string,corrAns,practice_trials.thisRepN,practice_trials.thisTrialN,practice_trials.thisN,practice_trials.thisIndex,trials_1.thisRepN,trials_1.thisTrialN,trials_1.thisN,trials_1.thisIndex,trials_2.thisRepN,trials_2.thisTrialN,trials_2.thisN,trials_2.thisIndex,key_resp_0.keys,key_resp_0.corr,key_resp_0.rt,text_1.started,text_1.stopped,key_resp_1.keys,key_resp_1.corr,key_resp_1.rt,key_resp_1.started,key_resp_1.stopped,sound_1A_1.started,sound_1A_1.stopped,break_time.started,break_time.stopped,text_2.started,text_2.stopped,key_resp_2.keys,key_resp_2.corr,key_resp_2.rt,key_resp_2.started,key_resp_2.stopped,sound_1A_2.started,sound_1A_2.stopped,participant,session,date,expName,psychopyVersion,frameRate,
fresh,fresh,0,0,0,0,,,,,,,,,"['f', 'r', 'e', 's', 'h']",1,"[1.0630665000062436, 1.2069426999660209, 1.295005299965851, 1.423077099956572, 1.5350177000509575]",,,,,,,,,,,,,,,,,,,,,s09_02162024,001,2024-02-16_12h27.35.968,test_typingtask_norepeats,2020.2.10,59.98537556581086,
dream,dream,0,1,1,1,,,,,,,,,"['d', 'r', 'e', 'a', 'm']",1,"[0.7397312000393867, 0.923772000009194, 0.9958517999621108, 1.0837014999706298, 1.1799121999647468]",,,,,,,,,,,,,,,,,,,,,s09_02162024,001,2024-02-16_12h27.35.968,test_typingtask_norepeats,2020.2.10,59.98537556581086,
slime,slime,0,2,2,2,,,,,,,,,"['s', 'l', 'i', 'm', 'e']",1,"[0.7117105999495834, 0.791632300009951, 0.8875918999547139, 0.9916447999421507, 1.07971009996254]",,,,,,,,,,,,,,,,,,,,,s09_02162024,001,2024-02-16_12h27.35.968,test_typingtask_norepeats,2020.2.10,59.98537556581086,
zibja,zibja,,,,,0,0,0,0,,,,,,,,62.8004074000055,None,"['z', 'i', 'b', 'j', 'a']",1,"[0.993521900032647, 1.2013832000084221, 1.377363899955526, 1.7373688999796286, 1.8413432000670582]",62.8004074000055,None,62.799427289993034,62.899447799893096,,,,,,,,,,,,s09_02162024,001,2024-02-16_12h27.35.968,test_typingtask_norepeats,2020.2.10,59.98537556581086,
cheer,cheer,,,,,0,1,1,1,,,,,,,,68.29954509995878,None,"['c', 'h', 'e', 'e', 'r']",1,"[0.7022569000255316, 0.7902773000532761, 0.9182339000981301, 1.0464541000546888, 1.1342138000763953]",68.29954509995878,None,68.29945808999473,68.39943359990139,,,,,,,,,,,,s09_02162024,001,2024-02-16_12h27.35.968,test_typingtask_norepeats,2020.2.10,59.98537556581086,
faqir,faqir,,,,,0,2,2,2,,,,,,,,73.79949159990065,None,"['f', 'a', 'q', 'i', 'r']",1,"[0.586300199967809, 0.7304103999631479, 1.0344377999426797, 1.6582812999840826, 1.810401999973692]",73.79949159990065,None,73.79951898999279,73.89951629994903,,,,,,,,,,,,s09_02162024,001,2024-02-16_12h27.35.968,test_typingtask_norepeats,2020.2.10,59.98537556581086,
kremp,kremp,,,,,0,3,3,3,,,,,,,,79.29950490000192,None,"['k', 'r', 'e', 'm', 'p']",1,"[0.7903063000412658, 0.9503346000565216, 1.0542022000299767, 1.1341978999553248, 1.2382949000457302]",79.29950490000192,None,79.29949058989295,79.39949859993067,,,,,,,,,,,,s09_02162024,001,2024-02-16_12h27.35.968,test_typingtask_norepeats,2020.2.10,59.98537556581086,
zibja,zibja,,,,,0,4,4,4,,,,,,,,84.79952809994575,None,"['z', 'i', 'b', 'j', 'a']",1,"[0.7222457999596372, 0.8902396999765188, 1.0902235999237746, 1.2663043999345973, 1.3862085998989642]",84.79952809994575,None,84.79950438999803,84.89952099998482,,,,,,,,,,,,s09_02162024,001,2024-02-16_12h27.35.968,test_typingtask_norepeats,2020.2.10,59.98537556581086,
there,there,,,,,0,5,5,5,,,,,,,,90.29955179989338,None,"['t', 'h', 'e', 'r', 'e']",1,"[0.7022583000361919, 0.7502497000386938, 0.8221558999503031, 0.8941630000481382, 0.9663357000099495]",90.29955179989338,None,90.299555689923,None,,,,,,,,,,,,s09_02162024,001,2024-02-16_12h27.35.968,test_typingtask_norepeats,2020.2.10,59.98537556581086,
belly,belly,,,,,0,6,6,6,,,,,,,,95.79956249997485,None,"['b', 'e', 'l', 'l', 'y']",1,"[0.6743540000170469, 0.8184149999869987, 0.9142366000451148, 1.0502608000533655, 1.1382728000171483]",95.79956249997485,None,95.7995230899076,95.89959159994032,,,,,,,,,,,,s09_02162024,001,2024-02-16_12h27.35.968,test_typingtask_norepeats,2020.2.10,59.98537556581086,
haole,haole,,,,,0,7,7,7,,,,,,,,101.29958170000464,None,"['h', 'a', 'o', 'l', 'e']",1,"[0.6941445999545977, 0.8381822999799624, 1.086284299963154, 1.294361099950038, 1.374447699985467]",101.29958170000464,None,101.29955638992833,101.39980019989889,,,,,,,,,,,,s09_02162024,001,2024-02-16_12h27.35.968,test_typingtask_norepeats,2020.2.10,59.98537556581086,
belly,belly,,,,,0,8,8,8,,,,,,,,106.7997056999011,None,"['b', 'e', 'l', 'l', 'y']",1,"[0.5700664001051337, 0.7139866000507027, 0.7941593000432476, 0.930087500018999, 1.0339898000238463]",106.7997056999011,None,106.7995921899681,None,,,,,,,,,,,,s09_02162024,001,2024-02-16_12h27.35.968,test_typingtask_norepeats,2020.2.10,59.98537556581086,
buddy,buddy,,,,,0,9,9,9,,,,,,,,112.29961429990362,None,"['b', 'u', 'd', 'd', 'y']",1,"[0.5980682999361306, 0.806122999987565, 1.0300900000147521, 1.1581247999565676, 1.358126200037077]",112.29961429990362,None,112.29962378997588,None,,,,,,,,,,,,s09_02162024,001,2024-02-16_12h27.35.968,test_typingtask_norepeats,2020.2.10,59.98537556581086,
edthe,edthe,,,,,0,10,10,10,,,,,,,,117.79962529998738,None,"['e', 'd', 't', 'h', 'e']",1,"[0.6742425999836996, 0.8741699000820518, 1.114242700044997, 1.2340661999769509, 1.306158100022003]",117.79962529998738,None,117.79958189000608,None,,,,,,,,,,,,s09_02162024,001,2024-02-16_12h27.35.968,test_typingtask_norepeats,2020.2.10,59.98537556581086,
haole,haole,,,,,0,11,11,11,,,,,,,,123.2996523999609,None,"['h', 'a', 'l', 'e', 'l']",0,"[0.6381122000748292, 0.790033100056462, 0.8940456000855193, 1.9503295000176877, 2.4861462000990286]",123.2996523999609,None,123.29966258992208,None,,,,,,,,,,,,s09_02162024,001,2024-02-16_12h27.35.968,test_typingtask_norepeats,2020.2.10,59.98537556581086,
kremp,kremp,,,,,0,12,12,12,,,,,,,,128.79967039998155,None,"['k', 'r', 'e', 'm', 'p']",1,"[0.7300138999707997, 0.9380462999688461, 1.0262633999809623, 1.114005699986592, 1.162157400045544]",128.79967039998155,None,128.79966238992057,None,,,,,,,,,,,,s09_02162024,001,2024-02-16_12h27.35.968,test_typingtask_norepeats,2020.2.10,59.98537556581086,
zibja,zibja,,,,,0,13,13,13,,,,,,,,134.29969659994822,None,"['z', 'i', 'b', 'j', 'a']",1,"[0.6780679998919368, 0.8619992999592796, 1.014171399991028, 1.19810369994957, 1.2941711999010295]",134.29969659994822,None,134.29968978989638,None,,,,,,,,,,,,s09_02162024,001,2024-02-16_12h27.35.968,test_typingtask_norepeats,2020.2.10,59.98537556581086,
theme,theme,,,,,0,14,14,14,,,,,,,,139.79970739991404,None,"['t', 'h', 'e', 'm', 'e']",1,"[0.7140462000388652, 0.7780202999711037, 0.8820926999906078, 0.9621284999884665, 1.0583102999953553]",139.79970739991404,None,139.79975878995612,None,,,,,,,,,,,,s09_02162024,001,2024-02-16_12h27.35.968,test_typingtask_norepeats,2020.2.10,59.98537556581086,
tithe,tithe,,,,,0,15,15,15,,,,,,,,145.29973089997657,None,"['t', 'i', 't', 'h', 'e']",1,"[0.7659987000515684, 0.8859499000245705, 1.0300899000139907, 1.0938667000737041, 1.213923600036651]",145.29973089997657,None,145.29972168990645,None,,,,,,,,,,,,s09_02162024,001,2024-02-16_12h27.35.968,test_typingtask_norepeats,2020.2.10,59.98537556581086,
would,would,,,,,0,16,16,16,,,,,,,,150.7997576999478,None,"['w', 'o', 'u', 'l', 'd']",1,"[0.6419495000736788, 0.7220715000294149, 0.7619015000527725, 0.8980337000684813, 0.9538590000011027]",150.7997576999478,None,150.7997365899035,None,,,,,,,,,,,,s09_02162024,001,2024-02-16_12h27.35.968,test_typingtask_norepeats,2020.2.10,59.98537556581086,
champ,champ,,,,,0,17,17,17,,,,,,,,156.29975839995313,None,"['c', 'h', 'a', 'm', 'p']",1,"[0.7019888000795618, 0.7899578000651672, 0.8939116999972612, 0.9899482000619173, 1.0141292000189424]",156.29975839995313,None,156.29975658993936,None,,,,,,,,,,,,s09_02162024,001,2024-02-16_12h27.35.968,test_typingtask_norepeats,2020.2.10,59.98537556581086,
pykka,pykka,,,,,0,18,18,18,,,,,,,,161.79978169989772,None,"['p', 'y', 'k', 'k', 'a']",1,"[0.6979205999523401, 1.0338893999578431, 1.3138750999933109, 1.4659477999666706, 1.5460055000148714]",161.79978169989772,None,161.7997841899167,None,,,,,,,,,,,,s09_02162024,001,2024-02-16_12h27.35.968,test_typingtask_norepeats,2020.2.10,59.98537556581086,
think,think,,,,,0,19,19,19,,,,,,,,167.29977959999815,None,"['t', 'h', 'i', 'n', 'k']",1,"[0.6619203999871388, 0.6859448000323027, 0.7738151999656111, 0.9020322000142187, 0.9498740000417456]",167.29977959999815,None,167.29979818990688,None,,,,,,,,,,,,s09_02162024,001,2024-02-16_12h27.35.968,test_typingtask_norepeats,2020.2.10,59.98537556581086,
haole,haole,,,,,0,20,20,20,,,,,,,,172.79981349990703,None,"['h', 'a', 'o', 'l', 'e']",1,"[0.6259465999901295, 0.7779846999328583, 0.9299520999193192, 1.0978011999977753, 1.2019569999538362]",172.79981349990703,None,172.79981698993362,None,,,,,,,,,,,,s09_02162024,001,2024-02-16_12h27.35.968,test_typingtask_norepeats,2020.2.10,59.98537556581086,
there,there,,,,,0,21,21,21,,,,,,,,178.2998231999809,None,"['t', 'h', 'e', 'r', 'e']",1,"[0.6618613000027835, 0.6939779000822455, 0.7900430000154302, 0.8458188000367954, 0.9180451000574976]",178.2998231999809,None,178.29981748993742,None,,,,,,,,,,,,s09_02162024,001,2024-02-16_12h27.35.968,test_typingtask_norepeats,2020.2.10,59.98537556581086,
druze,druze,,,,,0,22,22,22,,,,,,,,183.79984019999392,None,"['d', 'r', 'u', 'z', 'e']",1,"[0.7138226999668404, 0.8819600000279024, 0.9779792999615893, 1.1057972999988124, 1.2419338000472635]",183.79984019999392,None,183.7998625899316,183.8998883999884,,,,,,,,,,,,s09_02162024,001,2024-02-16_12h27.35.968,test_typingtask_norepeats,2020.2.10,59.98537556581086,
heond,heond,,,,,0,23,23,23,,,,,,,,189.2998469999293,None,"['h', 'e', 'o', 'n', 'd']",1,"[0.6458558000158519, 0.7737453000154346, 0.9178863000124693, 1.0537857000017539, 1.1659417999908328]",189.2998469999293,None,189.2998793899431,189.39984549989458,,,,,,,,,,,,s09_02162024,001,2024-02-16_12h27.35.968,test_typingtask_norepeats,2020.2.10,59.98537556581086,
faqir,faqir,,,,,0,24,24,24,,,,,,,,194.79991109995171,None,"['f', 'a', 'q', 'u', 'i', 'r']",0,"[0.7217624000040814, 0.8659264000598341, 1.1297334000701085, 1.2979338000295684, 1.609775000018999, 1.9137202000711113]",194.79991109995171,None,194.79990259000334,194.89987129997462,,,,,,,,,,,,s09_02162024,001,2024-02-16_12h27.35.968,test_typingtask_norepeats,2020.2.10,59.98537556581086,
theme,theme,,,,,0,25,25,25,,,,,,,,200.2999276999617,None,"['t', 'h', 'e']",0,"[0.6617547000059858, 0.7017686000326648, 0.9177236000541598]",200.2999276999617,None,200.29993928993355,200.3999243999133,,,,,,,,,,,,s09_02162024,001,2024-02-16_12h27.35.968,test_typingtask_norepeats,2020.2.10,59.98537556581086,
think,think,,,,,0,26,26,26,,,,,,,,205.79994019994047,None,"['t', 'h', 'i', 'n', 'k']",1,"[0.5857452999334782, 0.6257812000112608, 0.7136917999014258, 0.8336712999735028, 0.8898926000110805]",205.79994019994047,None,205.79997818999692,205.89993879990652,,,,,,,,,,,,s09_02162024,001,2024-02-16_12h27.35.968,test_typingtask_norepeats,2020.2.10,59.98537556581086,
cheer,cheer,,,,,0,27,27,27,,,,,,,,211.2999416999519,None,"['c', 'h', 'e', 'e', 'r']",1,"[0.6297365000937134, 0.7097391000716016, 0.8457969001028687, 0.9898464001016691, 1.0776769000804052]",211.2999416999519,None,211.2999727899558,211.39996789989527,,,,,,,,,,,,s09_02162024,001,2024-02-16_12h27.35.968,test_typingtask_norepeats,2020.2.10,59.98537556581086,
buddy,buddy,,,,,0,28,28,28,,,,,,,,216.79998349992093,None,"['b', 'u', 'd', 'd', 'y']",1,"[0.673748999950476, 0.8336502999300137, 1.0096625000005588, 1.1377172999782488, 1.2895761999534443]",216.79998349992093,None,216.79998888996198,216.8999853999121,,,,,,,,,,,,s09_02162024,001,2024-02-16_12h27.35.968,test_typingtask_norepeats,2020.2.10,59.98537556581086,
puppy,puppy,,,,,0,29,29,29,,,,,,,,222.30001129989978,None,"['p', 'u', 'p', 'p', 'y']",1,"[0.6376205999404192, 0.8216350999427959, 0.9817098999628797, 1.1258066999725997, 1.3017225000075996]",222.30001129989978,None,222.2999802898965,222.40000549994875,,,,,,,,,,,,s09_02162024,001,2024-02-16_12h27.35.968,test_typingtask_norepeats,2020.2.10,59.98537556581086,
vodka,vodka,,,,,0,30,30,30,,,,,,,,227.80005149997305,None,"['v', 'o', 'd', 'k', 'a']",1,"[0.7059589000418782, 0.8817493000533432, 1.441616200027056, 1.6417253999970853, 1.7375506999669597]",227.80005149997305,None,227.80006548996317,227.90003349992912,,,,,,,,,,,,s09_02162024,001,2024-02-16_12h27.35.968,test_typingtask_norepeats,2020.2.10,59.98537556581086,
edthe,edthe,,,,,0,31,31,31,,,,,,,,233.30005819990765,None,"['e', 'd', 't', 'h', 'e']",1,"[0.65370859997347, 0.8856002000393346, 1.1255542000290006, 1.2216510999714956, 1.293582999962382]",233.30005819990765,None,233.3000524899806,233.40006839996204,,,,,,,,,,,,s09_02162024,001,2024-02-16_12h27.35.968,test_typingtask_norepeats,2020.2.10,59.98537556581086,
buddy,buddy,,,,,0,32,32,32,,,,,,,,238.80004169989843,None,"['b', 'u', 'd', 'd', 'y']",1,"[0.6176480000140145, 0.7615632000379264, 0.9215299999341369, 1.0735209999838844, 1.225614900002256]",238.80004169989843,None,238.80003548996757,238.90007999993395,,,,,,,,,,,,s09_02162024,001,2024-02-16_12h27.35.968,test_typingtask_norepeats,2020.2.10,59.98537556581086,
edthe,edthe,,,,,0,33,33,33,,,,,,,,244.30009649996646,None,"['e', 'd', 't', 'h', 'e']",1,"[0.6455285000847653, 0.8615863000741228, 1.0855588000267744, 1.1575897000730038, 1.2455869000405073]",244.30009649996646,None,244.30005468999735,244.40011099993717,,,,,,,,,,,,s09_02162024,001,2024-02-16_12h27.35.968,test_typingtask_norepeats,2020.2.10,59.98537556581086,
champ,champ,,,,,0,34,34,34,,,,,,,,249.80012399994303,None,"['c', 'h', 'a', 'm', 'p']",1,"[0.7055298999184743, 0.8094573999987915, 0.92955139989499, 1.0176191999344155, 1.057658699923195]",249.80012399994303,None,249.80023248995423,249.90011629997753,,,,,,,,,,,,s09_02162024,001,2024-02-16_12h27.35.968,test_typingtask_norepeats,2020.2.10,59.98537556581086,
think,think,,,,,0,35,35,35,,,,,,,,255.30014929990284,None,"['t', 'h', 'i', 'n', 'k']",1,"[0.6374991999473423, 0.6776138000423089, 0.7574108999688178, 0.8695456000277773, 0.9254730000393465]",255.30014929990284,None,255.3001422899659,255.40012819995172,,,,,,,,,,,,s09_02162024,001,2024-02-16_12h27.35.968,test_typingtask_norepeats,2020.2.10,59.98537556581086,
cooed,cooed,,,,,0,36,36,36,,,,,,,,260.80015629995614,None,"['c', 'o', 'o', 'e', 'd']",1,"[0.6255163999740034, 0.7934066999005154, 0.9534194999141619, 1.081464699935168, 1.2494279999518767]",260.80015629995614,None,260.8004410899128,260.9001618999755,,,,,,,,,,,,s09_02162024,001,2024-02-16_12h27.35.968,test_typingtask_norepeats,2020.2.10,59.98537556581086,
cheer,cheer,,,,,0,37,37,37,,,,,,,,266.3001783998916,None,"['c', 'h', 'e', 'e', 'r']",1,"[0.621430000057444, 0.7254433000925928, 0.8454689000500366, 0.9734073000727221, 1.0454147000564262]",266.3001783998916,None,266.30024718994974,266.40018679993227,,,,,,,,,,,,s09_02162024,001,2024-02-16_12h27.35.968,test_typingtask_norepeats,2020.2.10,59.98537556581086,
theme,theme,,,,,0,38,38,38,,,,,,,,271.80020409997087,None,"['t', 'h', 'e', 'm', 'e']",1,"[0.5934618000173941, 0.6414142000721768, 0.7533336000051349, 0.8654453000053763, 0.889415799989365]",271.80020409997087,None,271.80017188995845,271.90020759997424,,,,,,,,,,,,s09_02162024,001,2024-02-16_12h27.35.968,test_typingtask_norepeats,2020.2.10,59.98537556581086,
therm,therm,,,,,0,39,39,39,,,,,,,,277.3002350999741,None,"['t', 'h', 'e', 'r', 'm']",1,"[0.7413965000305325, 0.8054780000820756, 0.9172785000409931, 1.0214087000349537, 1.0854152999818325]",277.3002350999741,None,277.30020138995025,277.400230399915,,,,,,,,,,,,s09_02162024,001,2024-02-16_12h27.35.968,test_typingtask_norepeats,2020.2.10,59.98537556581086,
vanru,vanru,,,,,0,40,40,40,,,,,,,,282.80022459989414,None,"['v', 'a', 'n', 'r', 'u']",1,"[0.7453246000222862, 0.9133183000376448, 1.0974486999912187, 1.3373662000522017, 1.4653592000249773]",282.80022459989414,None,282.8002765899408,282.9002707999898,,,,,,,,,,,,s09_02162024,001,2024-02-16_12h27.35.968,test_typingtask_norepeats,2020.2.10,59.98537556581086,
druze,druze,,,,,0,41,41,41,,,,,,,,288.3002888999181,None,"['d', 'r', 'u', 'z', 'e']",1,"[0.6773237999295816, 0.8532545999623835, 0.9973112000152469, 1.1174284999724478, 1.2692843999247998]",288.3002888999181,None,288.3003235899494,288.40030049998313,,,,,,,,,,,,s09_02162024,001,2024-02-16_12h27.35.968,test_typingtask_norepeats,2020.2.10,59.98537556581086,
pykka,pykka,,,,,0,42,42,42,,,,,,,,293.80030189990066,None,"['p', 'y', 'k', 'k', 'a']",1,"[0.697312599979341, 0.9292204000521451, 1.2093232000479475, 1.3532113999826834, 1.4092960000270978]",293.80030189990066,None,293.8002982899896,293.90030099998694,,,,,,,,,,,,s09_02162024,001,2024-02-16_12h27.35.968,test_typingtask_norepeats,2020.2.10,59.98537556581086,
vodka,vodka,,,,,0,43,43,43,,,,,,,,299.3003224999411,None,"['v', 'o', 'd', 'k', 'a']",1,"[0.701483300072141, 0.9012983000138775, 1.0772636000765488, 1.3492444000439718, 1.4774133000755683]",299.3003224999411,None,299.30056778994623,299.4003204999026,,,,,,,,,,,,s09_02162024,001,2024-02-16_12h27.35.968,test_typingtask_norepeats,2020.2.10,59.98537556581086,
edthe,edthe,,,,,0,44,44,44,,,,,,,,304.8003482999047,None,"['e', 'd', 't', 'h', 'e']",1,"[0.6812724999617785, 0.8971877000294626, 1.1612334999954328, 1.2413372999290004, 1.3451872000005096]",304.8003482999047,None,304.8003214899334,None,,,,,,,,,,,,s09_02162024,001,2024-02-16_12h27.35.968,test_typingtask_norepeats,2020.2.10,59.98537556581086,
kremp,kremp,,,,,0,45,45,45,,,,,,,,310.3003764000023,None,"['k', 'r', 'e', 'm', 'p']",1,"[0.6211971000302583, 0.797263800050132, 1.0052542999619618, 1.1011737999506295, 1.173310499987565]",310.3003764000023,None,310.30036518991693,310.400396999903,,,,,,,,,,,,s09_02162024,001,2024-02-16_12h27.35.968,test_typingtask_norepeats,2020.2.10,59.98537556581086,
there,there,,,,,0,46,46,46,,,,,,,,315.80035969999153,None,"['t', 'h', 'e', 'r', 'e']",1,"[0.6333742999704555, 0.6893952999962494, 0.7771261000307277, 0.8651966999750584, 0.9293453000718728]",315.80035969999153,None,315.8006625899696,315.90036199998576,,,,,,,,,,,,s09_02162024,001,2024-02-16_12h27.35.968,test_typingtask_norepeats,2020.2.10,59.98537556581086,
kremp,kremp,,,,,0,47,47,47,,,,,,,,321.3004543998977,None,"['k', 'r', 'e', 'm', 'p']",1,"[0.6530945999547839, 0.797041599988006, 0.8770385000389069, 0.965161900036037, 1.0370560999726877]",321.3004543998977,None,321.3003914900008,None,,,,,,,,,,,,s09_02162024,001,2024-02-16_12h27.35.968,test_typingtask_norepeats,2020.2.10,59.98537556581086,
champ,champ,,,,,0,48,48,48,,,,,,,,326.8004442999372,None,"['c', 'h', 'a', 'm', 'p']",1,"[0.7290916999336332, 0.8252064000116661, 0.921072999946773, 0.9930443000048399, 1.0251383999129757]",326.8004442999372,None,326.80047538994114,326.9004695999902,,,,,,,,,,,,s09_02162024,001,2024-02-16_12h27.35.968,test_typingtask_norepeats,2020.2.10,59.98537556581086,
vodka,vodka,,,,,0,49,49,49,,,,,,,,332.3004652999807,None,"['v', 'o', 'd', 'k', 'a']",1,"[0.6771352000068873, 0.8292003000387922, 0.9651747000170872, 1.0530706000281498, 1.2051140000112355]",332.3004652999807,None,332.30052888999927,332.40046549995895,,,,,,,,,,,,s09_02162024,001,2024-02-16_12h27.35.968,test_typingtask_norepeats,2020.2.10,59.98537556581086,
there,there,,,,,0,50,50,50,,,,,,,,337.80045069998596,None,"['t', 'h', 'e', 'r', 'e']",1,"[0.6251246000174433, 0.6650200000731274, 0.7610843000002205, 0.8172618000535294, 0.8970355000346899]",337.80045069998596,None,337.8007706899778,None,,,,,,,,,,,,s09_02162024,001,2024-02-16_12h27.35.968,test_typingtask_norepeats,2020.2.10,59.98537556581086,
lucky,lucky,,,,,0,51,51,51,,,,,,,,343.30050139990635,None,"['l', 'u', 'c', 'k', 'y']",1,"[0.6050390000455081, 0.7650780000258237, 0.9330664000008255, 1.037122100009583, 1.197109599946998]",343.30050139990635,None,343.3004979899968,343.4005111999577,,,,,,,,,,,,s09_02162024,001,2024-02-16_12h27.35.968,test_typingtask_norepeats,2020.2.10,59.98537556581086,
druze,druze,,,,,0,52,52,52,,,,,,,,348.80052239994984,None,"['d', 'r', 'u', 'z', 'e']",1,"[0.6091241999529302, 0.7689612999092788, 0.8809967999113724, 1.033029199927114, 1.1450632999185473]",348.80052239994984,None,348.8008079899126,None,,,,,,,,,,,,s09_02162024,001,2024-02-16_12h27.35.968,test_typingtask_norepeats,2020.2.10,59.98537556581086,
vodka,vodka,,,,,0,53,53,53,,,,,,,,354.3005451998906,None,"['v', 'o', 'd', 'a', 'k']",0,"[0.6531180000165477, 0.7890856000594795, 1.228994800010696, 1.4290321000153199, 1.4929244000231847]",354.3005451998906,None,354.3005455898936,None,,,,,,,,,,,,s09_02162024,001,2024-02-16_12h27.35.968,test_typingtask_norepeats,2020.2.10,59.98537556581086,
lucky,lucky,,,,,0,54,54,54,,,,,,,,359.8005814999342,None,"['l', 'u', 'c', 'k', 'y']",1,"[0.720967200002633, 0.9129572999663651, 1.0890560999978334, 1.1928700999123976, 1.3369464999996126]",359.8005814999342,None,359.80056358991425,None,,,,,,,,,,,,s09_02162024,001,2024-02-16_12h27.35.968,test_typingtask_norepeats,2020.2.10,59.98537556581086,
about,about,,,,,0,55,55,55,,,,,,,,365.30061679997016,None,"['a', 'b', 'o', 'u', 't']",1,"[0.5409045000560582, 0.6688968000235036, 0.7569112000055611, 0.8288726999890059, 1.060950000071898]",365.30061679997016,None,365.3006020899746,None,,,,,,,,,,,,s09_02162024,001,2024-02-16_12h27.35.968,test_typingtask_norepeats,2020.2.10,59.98537556581086,
druze,druze,,,,,0,56,56,56,,,,,,,,370.80065769993234,None,"['d', 'r', 'u', 'z', 'e']",1,"[0.6088601999217644, 0.8168497999431565, 1.048761299927719, 1.1448300000047311, 1.2729185000061989]",370.80065769993234,None,370.8006074898993,None,,,,,,,,,,,,s09_02162024,001,2024-02-16_12h27.35.968,test_typingtask_norepeats,2020.2.10,59.98537556581086,
buddy,buddy,,,,,0,57,57,57,,,,,,,,376.3006205999991,None,"['b', 'u', 'd', 'd', 'y']",1,"[0.6689175000647083, 0.7968432999914512, 0.9249810000183061, 1.0768787000561133, 1.2049027000321075]",376.3006205999991,None,376.300855489925,None,,,,,,,,,,,,s09_02162024,001,2024-02-16_12h27.35.968,test_typingtask_norepeats,2020.2.10,59.98537556581086,
would,would,,,,,0,58,58,58,,,,,,,,381.8006903999485,None,"['w', 'o', 'u', 'l', 'd']",1,"[0.6648415999952704, 0.7448483998887241, 0.7929626998957247, 0.9127187998965383, 0.9607257999014109]",381.8006903999485,None,381.8006625899696,None,,,,,,,,,,,,s09_02162024,001,2024-02-16_12h27.35.968,test_typingtask_norepeats,2020.2.10,59.98537556581086,
heond,heond,,,,,0,59,59,59,,,,,,,,387.30072369996924,None,"['h', 'e', 'o', 'n', 'd']",1,"[0.6287593999877572, 0.8447048000525683, 0.9887384000467137, 1.0767083000391722, 1.1647296000737697]",387.30072369996924,None,387.3006912899553,None,,,,,,,,,,,,s09_02162024,001,2024-02-16_12h27.35.968,test_typingtask_norepeats,2020.2.10,59.98537556581086,
haole,haole,,,,,0,60,60,60,,,,,,,,392.8007387999678,None,"['h', 'a', 'o', 'l', 'e']",1,"[0.6728818999836221, 1.2247820000629872, 1.5927716000005603, 1.7529021000955254, 1.8408406000817195]",392.8007387999678,None,392.8007124900003,None,,,,,,,,,,,,s09_02162024,001,2024-02-16_12h27.35.968,test_typingtask_norepeats,2020.2.10,59.98537556581086,
cooed,cooed,,,,,0,61,61,61,,,,,,,,398.30077539989725,None,"['c', 'o', 'o', 'e', 'd']",1,"[0.7169333000201732, 0.8528477000072598, 0.9966890000505373, 1.09264789998997, 1.2607026000041515]",398.30077539989725,None,398.30081558997045,398.4008000999456,,,,,,,,,,,,s09_02162024,001,2024-02-16_12h27.35.968,test_typingtask_norepeats,2020.2.10,59.98537556581086,
cheer,cheer,,,,,0,62,62,62,,,,,,,,403.8007969999453,None,"['c', 'h', 'e', 'e', 'r']",1,"[0.7126526000211015, 0.8167909000767395, 0.95265410002321, 1.1128118000924587, 1.192680700100027]",403.8007969999453,None,403.8007716899854,None,,,,,,,,,,,,s09_02162024,001,2024-02-16_12h27.35.968,test_typingtask_norepeats,2020.2.10,59.98537556581086,
cooed,cooed,,,,,0,63,63,63,,,,,,,,409.3008541999152,None,"['c', 'o', 'o', 'e', 'd']",1,"[0.5966083999956027, 0.7565604000119492, 0.9086391000309959, 1.028571900096722, 1.2125546000897884]",409.3008541999152,None,409.3008389899158,None,,,,,,,,,,,,s09_02162024,001,2024-02-16_12h27.35.968,test_typingtask_norepeats,2020.2.10,59.98537556581086,
puppy,puppy,,,,,0,64,64,64,,,,,,,,414.80084289994556,None,"['p', 'u', 'p', 'p', 'y']",1,"[0.648658899939619, 0.8327948999358341, 0.9926066999323666, 1.152567399898544, 1.2566130999475718]",414.80084289994556,None,414.8008614899707,414.9008727999171,,,,,,,,,,,,s09_02162024,001,2024-02-16_12h27.35.968,test_typingtask_norepeats,2020.2.10,59.98537556581086,
about,about,,,,,0,65,65,65,,,,,,,,420.30087139992975,None,"['a', 'b', 'o', 'u', 't']",1,"[0.6929814999457449, 0.7645473999436945, 0.8368040999630466, 0.9005597999785095, 1.0045789999421686]",420.30087139992975,None,420.30087358994643,420.4008669999894,,,,,,,,,,,,s09_02162024,001,2024-02-16_12h27.35.968,test_typingtask_norepeats,2020.2.10,59.98537556581086,
theme,theme,,,,,0,66,66,66,,,,,,,,425.8008830999024,None,"['t', 'h', 'e', 'm', 'e']",1,"[0.6726000999333337, 0.7287550999317318, 0.8168446000199765, 0.9767137999879196, 1.1446294999914244]",425.8008830999024,None,425.8008627899806,425.90089289995376,,,,,,,,,,,,s09_02162024,001,2024-02-16_12h27.35.968,test_typingtask_norepeats,2020.2.10,59.98537556581086,
tithe,tithe,,,,,0,67,67,67,,,,,,,,431.3009219999658,None,"['t', 'i', 't', 'h', 'e']",1,"[0.7165611000964418, 0.884542900021188, 1.0124399000778794, 1.0924521000124514, 1.1805771000217646]",431.3009219999658,None,431.30092968990795,431.4009201999288,,,,,,,,,,,,s09_02162024,001,2024-02-16_12h27.35.968,test_typingtask_norepeats,2020.2.10,59.98537556581086,
cheer,cheer,,,,,0,68,68,68,,,,,,,,436.80094799993094,None,"['c', 'h', 'e', 'e', 'r']",1,"[0.6086737000150606, 0.7124717999249697, 0.8085016999393702, 0.9445125999627635, 1.032416099915281]",436.80094799993094,None,436.8009546899819,436.9009556999663,,,,,,,,,,,,s09_02162024,001,2024-02-16_12h27.35.968,test_typingtask_norepeats,2020.2.10,59.98537556581086,
therm,therm,,,,,0,69,69,69,,,,,,,,442.30098939989693,None,"['t', 'h', 'e', 'r', 'm']",1,"[0.6204993999563158, 0.6765484999632463, 0.7726016000378877, 0.8365684000309557, 0.9405907000182196]",442.30098939989693,None,442.30097678991734,442.4009970999323,,,,,,,,,,,,s09_02162024,001,2024-02-16_12h27.35.968,test_typingtask_norepeats,2020.2.10,59.98537556581086,
lucky,lucky,,,,,0,70,70,70,,,,,,,,447.8009982999647,None,"['l', 'u', 'c', 'k', 'y']",1,"[0.6009588000597432, 0.7523419000208378, 0.9204601000528783, 1.0408022000920027, 1.192426300025545]",447.8009982999647,None,447.8009673899622,447.9009962999262,,,,,,,,,,,,s09_02162024,001,2024-02-16_12h27.35.968,test_typingtask_norepeats,2020.2.10,59.98537556581086,
think,think,,,,,0,71,71,71,,,,,,,,453.3010215999093,None,"['t', 'h', 'i', 'n', 'k']",1,"[0.5964232999831438, 0.6364426999352872, 0.7163726999424398, 0.8364061999600381, 0.8923353999853134]",453.3010215999093,None,453.30101968989476,None,,,,,,,,,,,,s09_02162024,001,2024-02-16_12h27.35.968,test_typingtask_norepeats,2020.2.10,59.98537556581086,
therm,therm,,,,,0,72,72,72,,,,,,,,458.8010864999378,None,"['t', 'h', 'e', 'r', 'm']",1,"[0.616386599955149, 0.656293399981223, 0.7444450999610126, 0.800468000001274, 0.8402946999995038]",458.8010864999378,None,458.8010402899352,None,,,,,,,,,,,,s09_02162024,001,2024-02-16_12h27.35.968,test_typingtask_norepeats,2020.2.10,59.98537556581086,
kremp,kremp,,,,,0,73,73,73,,,,,,,,464.30107990000397,None,"['k', 'r', 'e', 'm', 'p']",1,"[0.6923980000428855, 0.8283370999852195, 0.9403687999583781, 1.0364630999974906, 1.1003322000615299]",464.30107990000397,None,464.3010749899666,None,,,,,,,,,,,,s09_02162024,001,2024-02-16_12h27.35.968,test_typingtask_norepeats,2020.2.10,59.98537556581086,
tithe,tithe,,,,,0,74,74,74,,,,,,,,469.801094800001,None,"['t', 'i', 't', 'h', 'e']",1,"[0.6323394000064582, 0.7123233999591321, 0.872406700043939, 0.9203317000064999, 1.0243809999665245]",469.801094800001,None,469.80113148993115,None,,,,,,,,,,,,s09_02162024,001,2024-02-16_12h27.35.968,test_typingtask_norepeats,2020.2.10,59.98537556581086,
heond,heond,,,,,0,75,75,75,,,,,,,,475.3011543999892,None,"['h', 'e', 'o', 'n', 'd']",1,"[0.6122872000560164, 0.748322100029327, 1.0203419999452308, 1.1083813000004739, 1.2125007000286132]",475.3011543999892,None,475.3011452899198,None,,,,,,,,,,,,s09_02162024,001,2024-02-16_12h27.35.968,test_typingtask_norepeats,2020.2.10,59.98537556581086,
puppy,puppy,,,,,0,76,76,76,,,,,,,,480.8014241999481,None,"['p', 'u', 'p', 'p', 'y']",1,"[0.6800981999840587, 0.8239896999439225, 0.9519804000156, 1.1040592999197543, 1.2161742999451235]",480.8014241999481,None,480.8011864900007,None,,,,,,,,,,,,s09_02162024,001,2024-02-16_12h27.35.968,test_typingtask_norepeats,2020.2.10,59.98537556581086,
vanru,vanru,,,,,0,77,77,77,,,,,,,,486.3011856999947,None,"['v', 'a', 'n', 'r', 'u']",1,"[0.6923127999762073, 0.8122136000311002, 0.9483242999995127, 1.1642933000111952, 1.268192599993199]",486.3011856999947,None,486.3013747899211,None,,,,,,,,,,,,s09_02162024,001,2024-02-16_12h27.35.968,test_typingtask_norepeats,2020.2.10,59.98537556581086,
champ,champ,,,,,0,78,78,78,,,,,,,,491.80121139995754,None,"['c', 'h', 'a', 'm', 'p']",1,"[0.632305399980396, 0.7523359000915661, 0.8723358000861481, 0.9282674000132829, 0.9521760999923572]",491.80121139995754,None,491.80121018994834,None,,,,,,,,,,,,s09_02162024,001,2024-02-16_12h27.35.968,test_typingtask_norepeats,2020.2.10,59.98537556581086,
there,there,,,,,0,79,79,79,,,,,,,,497.3012262999546,None,"['t', 'h', 'e', 'r', 'e']",1,"[0.572256900020875, 0.6281439000740647, 0.7082010000012815, 0.7721760000567883, 0.8522729000542313]",497.3012262999546,None,497.3012927899952,None,,,,,,,,,,,,s09_02162024,001,2024-02-16_12h27.35.968,test_typingtask_norepeats,2020.2.10,59.98537556581086,
pykka,pykka,,,,,0,80,80,80,,,,,,,,502.8012569999555,None,"['p', 'y', 'k', 'k', 'a']",1,"[0.6003647000761703, 0.816304299980402, 1.0482431000564247, 1.2082896999781951, 1.2402823000447825]",502.8012569999555,None,502.8012749899761,None,,,,,,,,,,,,s09_02162024,001,2024-02-16_12h27.35.968,test_typingtask_norepeats,2020.2.10,59.98537556581086,
belly,belly,,,,,0,81,81,81,,,,,,,,508.3013281999156,None,"['b', 'e', 'l', 'l', 'y']",1,"[0.6361472000135109, 0.7963019000599161, 0.8840999000240117, 1.012028400087729, 1.1003889000276104]",508.3013281999156,None,508.30137288990665,None,,,,,,,,,,,,s09_02162024,001,2024-02-16_12h27.35.968,test_typingtask_norepeats,2020.2.10,59.98537556581086,
about,about,,,,,0,82,82,82,,,,,,,,513.8013318999438,None,"['a', 'b', 'o', 'u', 't']",1,"[0.5360707000363618, 0.6001929000485688, 0.6801948000211269, 0.7441861000843346, 0.832056500017643]",513.8013318999438,None,513.8013496899628,None,,,,,,,,,,,,s09_02162024,001,2024-02-16_12h27.35.968,test_typingtask_norepeats,2020.2.10,59.98537556581086,
tithe,tithe,,,,,0,83,83,83,,,,,,,,519.301372799906,None,"['t', 'i', 't', 'h', 'e']",1,"[0.6201715000206605, 0.7080033000092953, 0.8521026000380516, 0.9320959999458864, 1.044140600017272]",519.301372799906,None,519.3016116899787,None,,,,,,,,,,,,s09_02162024,001,2024-02-16_12h27.35.968,test_typingtask_norepeats,2020.2.10,59.98537556581086,
pykka,pykka,,,,,0,84,84,84,,,,,,,,524.8013941999525,None,"['p', 'y', 'k', 'k', 'a']",1,"[0.5921164000174031, 0.8081015000352636, 1.0240755000850186, 1.1680766000645235, 1.2560408000135794]",524.8013941999525,None,524.8014005900011,None,,,,,,,,,,,,s09_02162024,001,2024-02-16_12h27.35.968,test_typingtask_norepeats,2020.2.10,59.98537556581086,
would,would,,,,,0,85,85,85,,,,,,,,530.3014646999072,None,"['w', 'o', 'u', 'l', 'd']",1,"[0.6439930000342429, 0.6998928000684828, 0.7480658000567928, 0.8600713000632823, 0.939935400034301]",530.3014646999072,None,530.3015645899693,None,,,,,,,,,,,,s09_02162024,001,2024-02-16_12h27.35.968,test_typingtask_norepeats,2020.2.10,59.98537556581086,
vanru,vanru,,,,,0,86,86,86,,,,,,,,535.8014567999635,None,"['v', 'a', 'n', 'r', 'u']",1,"[0.8239337999839336, 0.944377199979499, 1.1358734000241384, 1.3519941000267863, 1.5199542000191286]",535.8014567999635,None,535.8014338899054,None,,,,,,,,,,,,s09_02162024,001,2024-02-16_12h27.35.968,test_typingtask_norepeats,2020.2.10,59.98537556581086,
about,about,,,,,0,87,87,87,,,,,,,,541.301471899962,None,"['a', 'b', 'o', 'u', 't']",1,"[0.5319411000236869, 0.6120534000219777, 0.6838675999315456, 0.7399215999757871, 0.7799518000101671]",541.301471899962,None,541.3014651899109,None,,,,,,,,,,,,s09_02162024,001,2024-02-16_12h27.35.968,test_typingtask_norepeats,2020.2.10,59.98537556581086,
lucky,lucky,,,,,0,88,88,88,,,,,,,,546.8015351999784,None,"['l', 'u', 'c', 'k', 'y']",1,"[0.6158435000106692, 0.7359057000139728, 0.8879756999667734, 0.9919867999851704, 1.159954100032337]",546.8015351999784,None,546.801497489924,None,,,,,,,,,,,,s09_02162024,001,2024-02-16_12h27.35.968,test_typingtask_norepeats,2020.2.10,59.98537556581086,
heond,heond,,,,,0,89,89,89,,,,,,,,552.3015454999404,None,"['h', 'e', 'o', 'n', 'd']",1,"[0.6599019999848679, 0.7879534000530839, 1.307800899958238, 1.3557530000107363, 1.4278655999805778]",552.3015454999404,None,552.301495389908,None,,,,,,,,,,,,s09_02162024,001,2024-02-16_12h27.35.968,test_typingtask_norepeats,2020.2.10,59.98537556581086,
cooed,cooed,,,,,0,90,90,90,,,,,,,,557.8015323999571,None,"['c', 'o', 'o', 'e', 'd']",1,"[0.6078061000443995, 0.7037926999619231, 0.8398398000281304, 0.9360936000011861, 1.0959760999539867]",557.8015323999571,None,557.8015209899866,None,,,,,,,,,,,,s09_02162024,001,2024-02-16_12h27.35.968,test_typingtask_norepeats,2020.2.10,59.98537556581086,
faqir,faqir,,,,,0,91,91,91,,,,,,,,563.3023058999097,None,"['f', 'a', 'q', 'i', 'r']",1,"[0.6749600999755785, 0.8111894000321627, 1.115109600010328, 1.435155100072734, 1.587130400002934]",563.3023058999097,None,563.3015990899992,None,,,,,,,,,,,,s09_02162024,001,2024-02-16_12h27.35.968,test_typingtask_norepeats,2020.2.10,59.98537556581086,
belly,belly,,,,,0,92,92,92,,,,,,,,568.8016319999006,None,"['b', 'e', 'l', 'l', 'y']",1,"[0.5916972999693826, 0.7437853999435902, 0.799885299988091, 0.935779899940826, 1.031752899987623]",568.8016319999006,None,568.8017344899824,None,,,,,,,,,,,,s09_02162024,001,2024-02-16_12h27.35.968,test_typingtask_norepeats,2020.2.10,59.98537556581086,
puppy,puppy,,,,,0,93,93,93,,,,,,,,574.3016485999105,None,"['p', 'u', 'p', 'p', 'y']",1,"[0.5637678999919444, 0.7478380999527872, 0.915790900005959, 1.06775970000308, 1.1957790999440476]",574.3016485999105,None,574.3016578899812,None,,,,,,,,,,,,s09_02162024,001,2024-02-16_12h27.35.968,test_typingtask_norepeats,2020.2.10,59.98537556581086,
tithe,tithe,,,,,0,94,94,94,,,,,,,,579.8016775998985,None,"['t', 'i', 't', 'h', 'e']",1,"[0.6077795999590307, 0.6957127000205219, 0.855716299964115, 0.9677241999888793, 1.0637019999558106]",579.8016775998985,None,579.8016663899296,None,,,,,,,,,,,,s09_02162024,001,2024-02-16_12h27.35.968,test_typingtask_norepeats,2020.2.10,59.98537556581086,
zibja,zibja,,,,,0,95,95,95,,,,,,,,585.3016951999161,None,"['z', 'i', 'b', 'j', 'a']",1,"[0.7796151000075042, 0.9877160999458283, 1.1958008999936283, 1.435719099943526, 1.5637287999270484]",585.3016951999161,None,585.3016592899919,None,,,,,,,,,,,,s09_02162024,001,2024-02-16_12h27.35.968,test_typingtask_norepeats,2020.2.10,59.98537556581086,
vodka,vodka,,,,,0,96,96,96,,,,,,,,590.8017196999863,None,"['v', 'o', 'd', 'k', 'a']",1,"[0.6076979000354186, 0.8316765000345185, 1.0397000999655575, 1.2076840000227094, 1.327670200029388]",590.8017196999863,None,590.8017284899367,None,,,,,,,,,,,,s09_02162024,001,2024-02-16_12h27.35.968,test_typingtask_norepeats,2020.2.10,59.98537556581086,
zibja,zibja,,,,,0,97,97,97,,,,,,,,596.3017171999672,None,"['z', 'i', 'b', 'j', 'a']",1,"[0.763628700049594, 0.9636696999659762, 1.1077567000174895, 1.2837354000657797, 1.3797352999681607]",596.3017171999672,None,596.3017525900038,None,,,,,,,,,,,,s09_02162024,001,2024-02-16_12h27.35.968,test_typingtask_norepeats,2020.2.10,59.98537556581086,
think,think,,,,,0,98,98,98,,,,,,,,601.8017763999524,None,"['t', 'h', 'i', 'n', 'k']",1,"[0.6796333000529557, 0.7275996999815106, 0.8075264000799507, 0.9196517000673339, 0.9515274000586942]",601.8017763999524,None,601.8017638899735,None,,,,,,,,,,,,s09_02162024,001,2024-02-16_12h27.35.968,test_typingtask_norepeats,2020.2.10,59.98537556581086,
faqir,faqir,,,,,0,99,99,99,,,,,,,,607.3017761999508,None,"['f', 'a', 'q', 'i', 'r']",1,"[0.7316788000753149, 0.9156355999875814, 1.1956187000032514, 1.4035953000420704, 1.5636094000656158]",607.3017761999508,None,607.3018065899494,None,,,,,,,,,,,,s09_02162024,001,2024-02-16_12h27.35.968,test_typingtask_norepeats,2020.2.10,59.98537556581086,
would,would,,,,,0,100,100,100,,,,,,,,612.8018451998942,None,"['w', 'o', 'u', 'l', 'd']",1,"[0.6555648000212386, 0.7114808999467641, 0.7596248999470845, 0.8795410000020638, 0.9595241999486461]",612.8018451998942,None,612.8017855899059,None,,,,,,,,,,,,s09_02162024,001,2024-02-16_12h27.35.968,test_typingtask_norepeats,2020.2.10,59.98537556581086,
heond,heond,,,,,0,101,101,101,,,,,,,,618.3018741999986,None,"['h', 'e', 'o', 'n', 'd']",1,"[0.6434585000388324, 0.8273248000768945, 0.9875283000292256, 1.0755018000490963, 1.1634022000944242]",618.3018741999986,None,618.3018042899319,None,,,,,,,,,,,,s09_02162024,001,2024-02-16_12h27.35.968,test_typingtask_norepeats,2020.2.10,59.98537556581086,
faqir,faqir,,,,,0,102,102,102,,,,,,,,623.8018516999437,None,"['f', 'a', 'q', 'i', 'r']",1,"[0.6235576000763103, 0.8234017000067979, 1.1435524000553414, 1.4476264000404626, 1.5594006000319496]",623.8018516999437,None,623.8018934899126,None,,,,,,,,,,,,s09_02162024,001,2024-02-16_12h27.35.968,test_typingtask_norepeats,2020.2.10,59.98537556581086,
vanru,vanru,,,,,0,103,103,103,,,,,,,,629.3018459999003,None,"['v', 'a', 'n', 'r', 'u']",1,"[0.675450999988243, 0.8435166999697685, 1.019535299972631, 1.187463599955663, 1.4034025999717414]",629.3018459999003,None,629.301876289898,None,,,,,,,,,,,,s09_02162024,001,2024-02-16_12h27.35.968,test_typingtask_norepeats,2020.2.10,59.98537556581086,
therm,therm,,,,,0,104,104,104,,,,,,,,634.8019088999135,None,"['t', 'h', 'e', 'r', 'm']",1,"[0.6154010000173002, 0.6795037999982014, 0.7995459999656305, 0.8552964000264183, 0.8954570000059903]",634.8019088999135,None,634.801903389988,None,,,,,,,,,,,,s09_02162024,001,2024-02-16_12h27.35.968,test_typingtask_norepeats,2020.2.10,59.98537556581086,
puppy,puppy,,,,,0,105,105,105,,,,,,,,640.3021310999757,None,"['p', 'u', 'p', 'p', 'y']",1,"[0.5871361000463367, 0.763093400048092, 0.8911762000061572, 1.051088299951516, 1.1792537999572232]",640.3021310999757,None,640.3019727899343,None,,,,,,,,,,,,s09_02162024,001,2024-02-16_12h27.35.968,test_typingtask_norepeats,2020.2.10,59.98537556581086,
pykka,pykka,,,,,0,106,106,106,,,,,,,,645.801962699974,None,"['p', 'y', 'k', 'k', 'a']",1,"[0.5912636000430211, 0.8313064000103623, 1.0713154000695795, 1.2153243999928236, 1.2951858000596985]",645.801962699974,None,645.8019561899243,None,,,,,,,,,,,,s09_02162024,001,2024-02-16_12h27.35.968,test_typingtask_norepeats,2020.2.10,59.98537556581086,
about,about,,,,,0,107,107,107,,,,,,,,651.3019599999534,None,"['a', 'b', 'o', 'u', 't']",1,"[0.6114289000397548, 0.6672680000774562, 0.7553899000631645, 0.811217000009492, 0.8912394000217319]",651.3019599999534,None,651.3021667898981,None,,,,,,,,,,,,s09_02162024,001,2024-02-16_12h27.35.968,test_typingtask_norepeats,2020.2.10,59.98537556581086,
cooed,cooed,,,,,0,108,108,108,,,,,,,,656.8019931999734,None,"['c', 'o', 'o', 'e', 'd']",1,"[0.5914897000184283, 0.7195555000798777, 0.8633026999887079, 0.9753820000914857, 1.1672638000454754]",656.8019931999734,None,656.8020135898958,None,,,,,,,,,,,,s09_02162024,001,2024-02-16_12h27.35.968,test_typingtask_norepeats,2020.2.10,59.98537556581086,
belly,belly,,,,,0,109,109,109,,,,,,,,662.3020574999973,None,"['b', 'e', 'l', 'l', 'y']",1,"[0.5153675000183284, 0.6673033999977633, 0.7471954999491572, 0.8991641999455169, 0.9954297000076622]",662.3020574999973,None,662.3023088899324,None,,,,,,,,,,,,s09_02162024,001,2024-02-16_12h27.35.968,test_typingtask_norepeats,2020.2.10,59.98537556581086,
edthe,edthe,,,,,0,110,110,110,,,,,,,,667.8020434998907,None,"['e', 'd', 't', 'h', 'e']",1,"[0.7032063000369817, 0.9033367000520229, 1.13522469997406, 1.2391600999981165, 1.3191791999852285]",667.8020434998907,None,667.8020969899487,None,,,,,,,,,,,,s09_02162024,001,2024-02-16_12h27.35.968,test_typingtask_norepeats,2020.2.10,59.98537556581086,
buddy,buddy,,,,,0,111,111,111,,,,,,,,673.3020530999638,None,"['b', 'u', 'd', 'd', 'y']",1,"[0.619173200102523, 0.7791602000361308, 0.9872681000269949, 1.1312771000666544, 1.2832005000673234]",673.3020530999638,None,673.3021166899823,None,,,,,,,,,,,,s09_02162024,001,2024-02-16_12h27.35.968,test_typingtask_norepeats,2020.2.10,59.98537556581086,
haole,haole,,,,,0,112,112,112,,,,,,,,678.8021329999901,None,"['b', 'a', 'l', 'e']",0,"[0.6551343000028282, 1.383173800073564, 2.1591078999917954, 2.3430936000077054]",678.8021329999901,None,678.8021044900058,None,,,,,,,,,,,,s09_02162024,001,2024-02-16_12h27.35.968,test_typingtask_norepeats,2020.2.10,59.98537556581086,
druze,druze,,,,,0,113,113,113,,,,,,,,684.3021446999628,None,"['d', 'r', 'u', 'z', 'e']",1,"[0.6510641999775544, 0.8110576999606565, 1.0271104999119416, 1.1072421999415383, 1.2192284999182448]",684.3021446999628,None,684.3021104899351,None,,,,,,,,,,,,s09_02162024,001,2024-02-16_12h27.35.968,test_typingtask_norepeats,2020.2.10,59.98537556581086,
would,would,,,,,0,114,114,114,,,,,,,,689.8021363998996,None,"['w', 'o', 'u', 'l', 'd']",1,"[0.615116799948737, 0.6710421999450773, 0.7110195000423118, 0.8309903000481427, 0.8790670000016689]",689.8021363998996,None,689.8021677899058,None,,,,,,,,,,,,s09_02162024,001,2024-02-16_12h27.35.968,test_typingtask_norepeats,2020.2.10,59.98537556581086,
vanru,vanru,,,,,0,115,115,115,,,,,,,,695.3021919999737,None,"['v', 'a', 'n', 'r', 'u']",1,"[0.715050800004974, 0.8991144000319764, 1.0990782000590116, 1.3070575000019744, 1.4509547000052407]",695.3021919999737,None,695.3022007899242,None,,,,,,,,,,,,s09_02162024,001,2024-02-16_12h27.35.968,test_typingtask_norepeats,2020.2.10,59.98537556581086,
lucky,lucky,,,,,0,116,116,116,,,,,,,,700.8022334999405,None,"['l', 'u', 'c', 'k', 'y']",1,"[0.5911051000002772, 0.7349578000139445, 0.9109221000690013, 1.015013900003396, 1.1829304000129923]",700.8022334999405,None,700.8021961900056,None,,,,,,,,,,,,s09_02162024,001,2024-02-16_12h27.35.968,test_typingtask_norepeats,2020.2.10,59.98537556581086,
therm,therm,,,,,0,117,117,117,,,,,,,,706.3022613999201,None,"['t', 'h', 'e', 'r', 'm']",1,"[0.6989516000030562, 0.7869415999157354, 0.8589540999382734, 0.9230035999789834, 0.9869033999275416]",706.3022613999201,None,706.302240789996,None,,,,,,,,,,,,s09_02162024,001,2024-02-16_12h27.35.968,test_typingtask_norepeats,2020.2.10,59.98537556581086,
theme,theme,,,,,0,118,118,118,,,,,,,,711.8022868999979,None,"['t', 'h', 'e', 'm', 'e']",1,"[0.5749149000039324, 0.614903400070034, 0.7030418000649661, 0.7908601000672206, 0.8948901999974623]",711.8022868999979,None,711.8022647899459,None,,,,,,,,,,,,s09_02162024,001,2024-02-16_12h27.35.968,test_typingtask_norepeats,2020.2.10,59.98537556581086,
champ,champ,,,,,0,119,119,119,,,,,,,,717.3023071999196,None,"['c', 'h', 'a', 'm', 'p']",1,"[0.6428862999891862, 0.7388629999477416, 0.827181400032714, 0.9148654999444261, 0.9389754999428988]",717.3023071999196,None,717.3022934899316,None,,,,,,,,,,,,s09_02162024,001,2024-02-16_12h27.35.968,test_typingtask_norepeats,2020.2.10,59.98537556581086,
puppy,puppy,,,,,,,,,0,0,0,0,,,,,,,,,,,,,722.8023339998908,None,746.7357603999553,None,"['p', 'u', 'p', 'p', 'y']",1,"[0.6733709999825805, 0.7935798999387771, 0.953446599887684, 1.0733604999259114, 1.177347799995914]",746.7357603999553,None,746.7357872899272,None,s09_02162024,001,2024-02-16_12h27.35.968,test_typingtask_norepeats,2020.2.10,59.98537556581086,
therm,therm,,,,,,,,,0,1,1,1,,,,,,,,,,,,,,,752.2358296999009,None,"['t', 'h', 'e', 'r', 'm']",1,"[0.51752310001757, 0.565375900012441, 0.6453023999929428, 0.7093735999660566, 0.7572780000045896]",752.2358296999009,None,752.2358197899418,None,s09_02162024,001,2024-02-16_12h27.35.968,test_typingtask_norepeats,2020.2.10,59.98537556581086,
faqir,faqir,,,,,,,,,0,2,2,2,,,,,,,,,,,,,,,757.7358490999322,None,"['f', 'a', 'q', 'i', 'r']",1,"[0.5693222000263631, 0.7293744999915361, 1.0172630000161007, 1.2494653000030667, 1.3614280000329018]",757.7358490999322,None,757.7358502899413,None,s09_02162024,001,2024-02-16_12h27.35.968,test_typingtask_norepeats,2020.2.10,59.98537556581086,
cheer,cheer,,,,,,,,,0,3,3,3,,,,,,,,,,,,,,,763.2358654999407,None,"['c', 'h', 'e', 'e', 'r']",1,"[0.6933606999227777, 0.7894167999038473, 0.9013673999579623, 1.0612392999464646, 1.1173776999348775]",763.2358654999407,None,763.2358418899937,None,s09_02162024,001,2024-02-16_12h27.35.968,test_typingtask_norepeats,2020.2.10,59.98537556581086,
tithe,tithe,,,,,,,,,0,4,4,4,,,,,,,,,,,,,,,768.7358853999758,None,"['t', 'i', 't', 'h', 'e']",1,"[0.6173338000662625, 0.8013611000496894, 0.9213909000391141, 1.0015154000138864, 1.0572066000895575]",768.7358853999758,None,768.7359006899758,None,s09_02162024,001,2024-02-16_12h27.35.968,test_typingtask_norepeats,2020.2.10,59.98537556581086,
buddy,buddy,,,,,,,,,0,5,5,5,,,,,,,,,,,,,,,774.2359224999091,None,"['b', 'u', 'd', 'd', 'y']",1,"[0.5973332999274135, 0.7092494999524206, 0.8452647000085562, 0.9571594999870285, 1.157159199938178]",774.2359224999091,None,774.235941989941,774.3359050999861,s09_02162024,001,2024-02-16_12h27.35.968,test_typingtask_norepeats,2020.2.10,59.98537556581086,
edthe,edthe,,,,,,,,,0,6,6,6,,,,,,,,,,,,,,,779.7359653000021,None,"['e', 'd', 't', 'h', 'e']",1,"[0.6331245000474155, 0.8812070999993011, 1.1612132999580353, 1.2330664000473917, 1.3214227999560535]",779.7359653000021,None,779.7359764899709,779.8359216999961,s09_02162024,001,2024-02-16_12h27.35.968,test_typingtask_norepeats,2020.2.10,59.98537556581086,
vanru,vanru,,,,,,,,,0,7,7,7,,,,,,,,,,,,,,,785.2359881999437,None,"['v', 'a', 'n', 'r', 'u']",1,"[0.6931760999141261, 0.8852548999711871, 1.077097799978219, 1.2532917999196798, 1.3812403999036178]",785.2359881999437,None,785.2359856899245,785.335991699947,s09_02162024,001,2024-02-16_12h27.35.968,test_typingtask_norepeats,2020.2.10,59.98537556581086,
heond,heond,,,,,,,,,0,8,8,8,,,,,,,,,,,,,,,790.736016199924,None,"['h', 'e', 'o', 'n', 'd']",1,"[0.6331717999419197, 0.7611573999747634, 0.9211080999812111, 1.0171576999127865, 1.0972477999748662]",790.736016199924,None,790.7360217899666,790.8360144000035,s09_02162024,001,2024-02-16_12h27.35.968,test_typingtask_norepeats,2020.2.10,59.98537556581086,
belly,belly,,,,,,,,,0,9,9,9,,,,,,,,,,,,,,,796.2360418000026,None,"['b', 'e', 'l', 'l', 'y']",1,"[0.5811119000427425, 0.7011498999781907, 0.7971269000554457, 0.917061600019224, 1.01307220000308]",796.2360418000026,None,796.2360533899744,796.3360479999101,s09_02162024,001,2024-02-16_12h27.35.968,test_typingtask_norepeats,2020.2.10,59.98537556581086,
theme,theme,,,,,,,,,0,10,10,10,,,,,,,,,,,,,,,801.7360378999729,None,"['t', 'h', 'e', 'm', 'e']",1,"[0.5531125999987125, 0.6091873000841588, 0.6891297000693157, 0.8010323999915272, 0.865171100012958]",801.7360378999729,None,801.7360722900019,801.8360775999026,s09_02162024,001,2024-02-16_12h27.35.968,test_typingtask_norepeats,2020.2.10,59.98537556581086,
heond,heond,,,,,,,,,0,11,11,11,,,,,,,,,,,,,,,807.2361063999124,None,"['h', 'e', 'o', 'n', 'd']",1,"[0.6210092999972403, 0.725101099931635, 0.8609520000172779, 0.9330041999928653, 1.0130856999894604]",807.2361063999124,None,807.2361034898902,807.336110199918,s09_02162024,001,2024-02-16_12h27.35.968,test_typingtask_norepeats,2020.2.10,59.98537556581086,
edthe,edthe,,,,,,,,,0,12,12,12,,,,,,,,,,,,,,,812.7361423999537,None,"['e', 'd', 't', 'h', 'e']",1,"[0.6649614000925794, 0.8729909000685439, 1.0411437000147998, 1.1289529000641778, 1.1930210000136867]",812.7361423999537,None,812.7361383899231,None,s09_02162024,001,2024-02-16_12h27.35.968,test_typingtask_norepeats,2020.2.10,59.98537556581086,
cooed,cooed,,,,,,,,,0,13,13,13,,,,,,,,,,,,,,,818.2361661999021,None,"['c', 'o', 'o', 'e', 'd']",1,"[0.6689279000274837, 0.8369075999362394, 0.9888949999585748, 1.108885299996473, 1.3011041999561712]",818.2361661999021,None,818.236153789924,None,s09_02162024,001,2024-02-16_12h27.35.968,test_typingtask_norepeats,2020.2.10,59.98537556581086,
kremp,kremp,,,,,,,,,0,14,14,14,,,,,,,,,,,,,,,823.7362202999648,None,"['k', 'r', 'e', 'm', 'p']",1,"[0.6648775000358, 0.824930900009349, 0.9129760999931023, 1.0650674999924377, 1.104976800037548]",823.7362202999648,None,823.7369119899929,None,s09_02162024,001,2024-02-16_12h27.35.968,test_typingtask_norepeats,2020.2.10,59.98537556581086,
haole,haole,,,,,,,,,0,15,15,15,,,,,,,,,,,,,,,829.2362425999017,None,"['h', 'a', 'o', 'l', 'e']",1,"[0.6289008000167087, 0.8128321999683976, 1.0209206000436097, 1.204975700005889, 1.3327871999936178]",829.2362425999017,None,829.2361834899173,None,s09_02162024,001,2024-02-16_12h27.35.968,test_typingtask_norepeats,2020.2.10,59.98537556581086,
about,about,,,,,,,,,0,16,16,16,,,,,,,,,,,,,,,834.7362120999023,None,"['a', 'b', 'o', 'u', 't']",1,"[0.648884000023827, 0.7210440000053495, 0.7930288000497967, 0.8649626999394968, 0.9529473000438884]",834.7362120999023,None,834.7362422898993,None,s09_02162024,001,2024-02-16_12h27.35.968,test_typingtask_norepeats,2020.2.10,59.98537556581086,
therm,therm,,,,,,,,,0,17,17,17,,,,,,,,,,,,,,,840.236284899991,None,"['t', 'h', 'e', 'm', 'r']",0,"[0.636902500060387, 0.684846100048162, 0.7967144000576809, 0.9087454000255093, 1.0289250999921933]",840.236284899991,None,840.2362834899802,None,s09_02162024,001,2024-02-16_12h27.35.968,test_typingtask_norepeats,2020.2.10,59.98537556581086,
zibja,zibja,,,,,,,,,0,18,18,18,,,,,,,,,,,,,,,845.7363100999501,None,"['z', 'i', 'b', 'j', 'a']",1,"[0.7368603000650182, 0.9367117000510916, 1.1287157000042498, 1.336727000074461, 1.4727162000490353]",845.7363100999501,None,845.7363028898951,None,s09_02162024,001,2024-02-16_12h27.35.968,test_typingtask_norepeats,2020.2.10,59.98537556581086,
about,about,,,,,,,,,0,19,19,19,,,,,,,,,,,,,,,851.2363410999533,None,"['a', 'b', 'o', 'u', 't']",1,"[0.5808129000943154, 0.6368884000694379, 0.7086873000953346, 0.7568452000850812, 0.852687600068748]",851.2363410999533,None,851.2363314899965,None,s09_02162024,001,2024-02-16_12h27.35.968,test_typingtask_norepeats,2020.2.10,59.98537556581086,
vodka,vodka,,,,,,,,,0,20,20,20,,,,,,,,,,,,,,,856.7363517999183,None,"['v', 'o', 'd', 'k', 'a']",1,"[0.6567434999160469, 0.824684499995783, 1.0328439999138936, 1.2007517999736592, 1.3447403999743983]",856.7363517999183,None,856.7363615899928,None,s09_02162024,001,2024-02-16_12h27.35.968,test_typingtask_norepeats,2020.2.10,59.98537556581086,
faqir,faqir,,,,,,,,,0,21,21,21,,,,,,,,,,,,,,,862.2363783000037,None,"['f', 'a', 'q', 'i', 'r']",1,"[0.708718299982138, 0.9407050999579951, 1.3646767999744043, 1.6206637000432238, 1.788747400045395]",862.2363783000037,None,862.2364001899375,None,s09_02162024,001,2024-02-16_12h27.35.968,test_typingtask_norepeats,2020.2.10,59.98537556581086,
tithe,tithe,,,,,,,,,0,22,22,22,,,,,,,,,,,,,,,867.7364160999423,None,"['i', 't', 't', 'h', 'e']",0,"[0.7606112000066787, 0.7926111000124365, 1.3926815999438986, 1.512689399998635, 1.5688002000097185]",867.7364160999423,None,867.7364178899559,None,s09_02162024,001,2024-02-16_12h27.35.968,test_typingtask_norepeats,2020.2.10,59.98537556581086,
edthe,edthe,,,,,,,,,0,23,23,23,,,,,,,,,,,,,,,873.236465999973,None,"['e', 'd', 't', 'h', 'e']",1,"[0.7166859999997541, 0.916598099982366, 1.1407393000554293, 1.260519600007683, 1.3486799000529572]",873.236465999973,None,873.236469289998,None,s09_02162024,001,2024-02-16_12h27.35.968,test_typingtask_norepeats,2020.2.10,59.98537556581086,
champ,champ,,,,,,,,,0,24,24,24,,,,,,,,,,,,,,,878.7364834999898,None,"['c', 'h', 'a', 'm', 'p']",1,"[0.648604299989529, 0.7685596999945119, 0.9286213000304997, 1.0246354000410065, 1.080547400051728]",878.7364834999898,None,878.736489089916,None,s09_02162024,001,2024-02-16_12h27.35.968,test_typingtask_norepeats,2020.2.10,59.98537556581086,
heond,heond,,,,,,,,,0,25,25,25,,,,,,,,,,,,,,,884.2364815999754,None,"['h', 'e', 'o', 'n', 'd']",1,"[0.7325744000263512, 0.8686547999968752, 1.0365071999840438, 1.1566392000531778, 1.2446232000365853]",884.2364815999754,None,884.2364752899273,None,s09_02162024,001,2024-02-16_12h27.35.968,test_typingtask_norepeats,2020.2.10,59.98537556581086,
think,think,,,,,,,,,0,26,26,26,,,,,,,,,,,,,,,889.7365464000031,None,"['t', 'h', 'i', 'n', 'k']",1,"[0.6244814000092447, 0.6725588999688625, 0.7604888000059873, 0.86456110002473, 0.9285739000188187]",889.7365464000031,None,889.736511089967,None,s09_02162024,001,2024-02-16_12h27.35.968,test_typingtask_norepeats,2020.2.10,59.98537556581086,
belly,belly,,,,,,,,,0,27,27,27,,,,,,,,,,,,,,,895.2365360999247,None,"['b', 'e', 'l', 'l', 'y']",1,"[0.5725265999790281, 0.7404998999554664, 0.8525738000171259, 1.0045472999336198, 1.1165709999622777]",895.2365360999247,None,895.236574989988,None,s09_02162024,001,2024-02-16_12h27.35.968,test_typingtask_norepeats,2020.2.10,59.98537556581086,
druze,druze,,,,,,,,,0,28,28,28,,,,,,,,,,,,,,,900.7365728999721,None,"['d', 'r', 'u', 'z', 'e']",1,"[0.6164028000785038, 0.8564072999870405, 1.0324094000970945, 1.1684534000232816, 1.2965905000455678]",900.7365728999721,None,900.7366032899706,None,s09_02162024,001,2024-02-16_12h27.35.968,test_typingtask_norepeats,2020.2.10,59.98537556581086,
faqir,faqir,,,,,,,,,0,29,29,29,,,,,,,,,,,,,,,906.2366533000022,None,"['f', 'a', 'q', 'i', 'r']",1,"[0.6043706999626011, 0.7724114999873564, 1.076462100027129, 1.268356699962169, 1.3963463000254706]",906.2366533000022,None,906.2366280899266,None,s09_02162024,001,2024-02-16_12h27.35.968,test_typingtask_norepeats,2020.2.10,59.98537556581086,
haole,haole,,,,,,,,,0,30,30,30,,,,,,,,,,,,,,,911.7366704999004,None,"['h', 'a', 'o', 'l', 'e']",1,"[0.6403776999795809, 0.8083313000388443, 0.9762869999976829, 1.1524945000419393, 1.2563245999626815]",911.7366704999004,None,911.7366486899671,None,s09_02162024,001,2024-02-16_12h27.35.968,test_typingtask_norepeats,2020.2.10,59.98537556581086,
zibja,zibja,,,,,,,,,0,31,31,31,,,,,,,,,,,,,,,917.2367030999158,None,"['z', 'i', 'b', 'j', 'a']",1,"[0.6843376000178978, 1.0042960999999195, 1.2202817000215873, 1.4362549999495968, 1.5802086000330746]",917.2367030999158,None,917.236679389968,None,s09_02162024,001,2024-02-16_12h27.35.968,test_typingtask_norepeats,2020.2.10,59.98537556581086,
cooed,cooed,,,,,,,,,0,32,32,32,,,,,,,,,,,,,,,922.7367304998916,None,"['c', 'o', 'o', 'e', 'd']",1,"[0.6002844000468031, 0.776238500024192, 0.9361922000534832, 1.064288099994883, 1.2722369000548497]",922.7367304998916,None,922.7367216899409,None,s09_02162024,001,2024-02-16_12h27.35.968,test_typingtask_norepeats,2020.2.10,59.98537556581086,
pykka,pykka,,,,,,,,,0,33,33,33,,,,,,,,,,,,,,,928.2371494999388,None,"['p', 'y', 'k', 'k', 'a']",1,"[0.5959237999049947, 0.9478576999390498, 1.1960634000133723, 1.371862499974668, 1.483840800006874]",928.2371494999388,None,928.2367438899935,None,s09_02162024,001,2024-02-16_12h27.35.968,test_typingtask_norepeats,2020.2.10,59.98537556581086,
puppy,puppy,,,,,,,,,0,34,34,34,,,,,,,,,,,,,,,933.7367976999376,None,"['p', 'u', 'p', 'p', 'y']",1,"[0.6482242000056431, 0.8641912000020966, 1.0482618999667466, 1.2005600999109447, 1.3041913999477401]",933.7367976999376,None,933.7367468898999,None,s09_02162024,001,2024-02-16_12h27.35.968,test_typingtask_norepeats,2020.2.10,59.98537556581086,
would,would,,,,,,,,,0,35,35,35,,,,,,,,,,,,,,,939.2368328999728,None,"['w', 'o', 'u', 'l', 'd']",1,"[0.7241649000206962, 0.7882650000974536, 0.8360898999962956, 0.9560762000037357, 1.0283200000412762]",939.2368328999728,None,939.2369564899825,None,s09_02162024,001,2024-02-16_12h27.35.968,test_typingtask_norepeats,2020.2.10,59.98537556581086,
pykka,pykka,,,,,,,,,0,36,36,36,,,,,,,,,,,,,,,944.7368552999105,None,"['p', 'y', 'k', 'k', 'a']",1,"[0.5841269999509677, 1.1841712000314146, 1.3761006999993697, 1.5281173000112176, 1.6162409000098705]",944.7368552999105,None,944.7368491899804,None,s09_02162024,001,2024-02-16_12h27.35.968,test_typingtask_norepeats,2020.2.10,59.98537556581086,
vanru,vanru,,,,,,,,,0,37,37,37,,,,,,,,,,,,,,,950.2368766999571,None,"['v', 'a', 'n', 'r', 'u']",1,"[0.692136500030756, 0.8521502000512555, 0.9960506000788882, 1.3801099000265822, 1.46019090001937]",950.2368766999571,None,950.2368393899058,None,s09_02162024,001,2024-02-16_12h27.35.968,test_typingtask_norepeats,2020.2.10,59.98537556581086,
would,would,,,,,,,,,0,38,38,38,,,,,,,,,,,,,,,955.7369195999345,None,"['w', 'o', 'u', 'l', 'd']",1,"[0.5840438000159338, 0.6240420999238268, 0.6800211999798194, 0.8000063999788836, 0.880013299989514]",955.7369195999345,None,955.7368762899539,None,s09_02162024,001,2024-02-16_12h27.35.968,test_typingtask_norepeats,2020.2.10,59.98537556581086,
puppy,puppy,,,,,,,,,0,39,39,39,,,,,,,,,,,,,,,961.2369219999528,None,"['p', 'u', 'p', 'p', 'y']",1,"[0.5562061999225989, 0.7241567999590188, 0.8840571999317035, 1.044123200001195, 1.1719482999760658]",961.2369219999528,None,961.2369443898904,None,s09_02162024,001,2024-02-16_12h27.35.968,test_typingtask_norepeats,2020.2.10,59.98537556581086,
there,there,,,,,,,,,0,40,40,40,,,,,,,,,,,,,,,966.7369707999751,None,"['t', 'h', 'e', 'r', 'e']",1,"[0.575982499984093, 0.6239667000481859, 0.7121329000219703, 0.7681062000337988, 0.8559422000544146]",966.7369707999751,None,966.7369636899209,None,s09_02162024,001,2024-02-16_12h27.35.968,test_typingtask_norepeats,2020.2.10,59.98537556581086,
edthe,edthe,,,,,,,,,0,41,41,41,,,,,,,,,,,,,,,972.2370040999958,None,"['e', 'd', 't', 'h', 'e']",1,"[0.611991300014779, 0.8119344000006095, 1.0758815000299364, 1.2279972999822348, 1.3159102000063285]",972.2370040999958,None,972.2369961899356,None,s09_02162024,001,2024-02-16_12h27.35.968,test_typingtask_norepeats,2020.2.10,59.98537556581086,
kremp,kremp,,,,,,,,,0,42,42,42,,,,,,,,,,,,,,,977.7370040999958,None,"['k', 'r', 'e', 'm', 'p']",1,"[0.6239515000488609, 0.7680580000160262, 0.8640769000630826, 0.960078899981454, 1.032054299954325]",977.7370040999958,None,977.7370324899791,None,s09_02162024,001,2024-02-16_12h27.35.968,test_typingtask_norepeats,2020.2.10,59.98537556581086,
there,there,,,,,,,,,0,43,43,43,,,,,,,,,,,,,,,983.2370687999064,None,"['t', 'h', 'e', 'r', 'e']",1,"[0.5638914000010118, 0.6198491000104696, 0.6758202000055462, 0.7398648000089452, 0.8198935999535024]",983.2370687999064,None,983.2370590899488,None,s09_02162024,001,2024-02-16_12h27.35.968,test_typingtask_norepeats,2020.2.10,59.98537556581086,
zibja,zibja,,,,,,,,,0,44,44,44,,,,,,,,,,,,,,,988.7370707999216,None,"['z', 'i', 'b', 'j', 'a']",1,"[0.6798687999835238, 0.8479669999796897, 0.9758788999170065, 1.1439014999195933, 1.2558434000238776]",988.7370707999216,None,988.7370887899422,None,s09_02162024,001,2024-02-16_12h27.35.968,test_typingtask_norepeats,2020.2.10,59.98537556581086,
haole,haole,,,,,,,,,0,45,45,45,,,,,,,,,,,,,,,994.2371305999113,None,"['h', 'a', 'o', 'l', 'e']",1,"[0.6038265000097454, 0.7558601000346243, 0.9319718999322504, 1.0841324999928474, 1.1718983999453485]",994.2371305999113,None,994.2371254899888,None,s09_02162024,001,2024-02-16_12h27.35.968,test_typingtask_norepeats,2020.2.10,59.98537556581086,
think,think,,,,,,,,,0,46,46,46,,,,,,,,,,,,,,,999.7371409999905,None,"['t', 'h', 'i', 'n', 'k']",1,"[0.5438042000168934, 0.575723999994807, 0.6557286999886855, 0.7678692999761552, 0.807723099947907]",999.7371409999905,None,999.737156089989,None,s09_02162024,001,2024-02-16_12h27.35.968,test_typingtask_norepeats,2020.2.10,59.98537556581086,
champ,champ,,,,,,,,,0,47,47,47,,,,,,,,,,,,,,,1005.2371798999375,None,"['c', 'h', 'a', 'm', 'p']",1,"[0.6198167999973521, 0.7317615000065416, 0.835699399933219, 0.931937399902381, 0.9878575999755412]",1005.2371798999375,None,1005.2371842899709,None,s09_02162024,001,2024-02-16_12h27.35.968,test_typingtask_norepeats,2020.2.10,59.98537556581086,
vanru,vanru,,,,,,,,,0,48,48,48,,,,,,,,,,,,,,,1010.7371962999459,None,"['v', 'a', 'n', 'r', 'u']",1,"[0.6558486999711022, 0.807971499976702, 0.9998091999441385, 1.1756610999582335, 1.3197298999875784]",1010.7371962999459,None,1010.7372235899209,None,s09_02162024,001,2024-02-16_12h27.35.968,test_typingtask_norepeats,2020.2.10,59.98537556581086,
think,think,,,,,,,,,0,49,49,49,,,,,,,,,,,,,,,1016.2372509998968,None,"['t', 'h', 'i', 'n', 'k']",1,"[0.6196594999637455, 0.6597112000454217, 0.7555739999515936, 0.8517749999882653, 0.9076881000073627]",1016.2372509998968,None,1016.2372457899735,None,s09_02162024,001,2024-02-16_12h27.35.968,test_typingtask_norepeats,2020.2.10,59.98537556581086,
lucky,lucky,,,,,,,,,0,50,50,50,,,,,,,,,,,,,,,1021.7372515999014,None,"['l', 'u', 'c', 'k', 'y']",1,"[0.6877123999875039, 0.8556165000190958, 1.0317300000460818, 1.1196011999854818, 1.2956338999792933]",1021.7372515999014,None,1021.7372797899995,None,s09_02162024,001,2024-02-16_12h27.35.968,test_typingtask_norepeats,2020.2.10,59.98537556581086,
tithe,tithe,,,,,,,,,0,51,51,51,,,,,,,,,,,,,,,1027.237312699901,None,"['t', 'i', 't', 'h', 'e']",1,"[0.5316262999549508, 0.6597183999838307, 0.8037449000403285, 0.9237070999806747, 1.0036074999952689]",1027.237312699901,None,1027.23730778998,None,s09_02162024,001,2024-02-16_12h27.35.968,test_typingtask_norepeats,2020.2.10,59.98537556581086,
puppy,puppy,,,,,,,,,0,52,52,52,,,,,,,,,,,,,,,1032.7373514999636,None,"['p', 'u', 'p', 'p', 'y']",1,"[0.607588900020346, 0.7836351000005379, 0.9435211000964046, 1.1039086000528187, 1.2076789001002908]",1032.7373514999636,None,1032.7373366899672,None,s09_02162024,001,2024-02-16_12h27.35.968,test_typingtask_norepeats,2020.2.10,59.98537556581086,
vanru,vanru,,,,,,,,,0,53,53,53,,,,,,,,,,,,,,,1038.2373832999729,None,"['v', 'a', 'n', 'r', 'u']",1,"[0.7394734000554308, 0.8754742000019178, 1.035473300027661, 1.2115404000505805, 1.3316213000798598]",1038.2373832999729,None,1038.2374127899645,None,s09_02162024,001,2024-02-16_12h27.35.968,test_typingtask_norepeats,2020.2.10,59.98537556581086,
belly,belly,,,,,,,,,0,54,54,54,,,,,,,,,,,,,,,1043.7374087999342,None,"['b', 'e', 'l', 'l', 'y']",1,"[0.5516012998996302, 0.7114126000087708, 0.7838485999964178, 0.9354911999544129, 1.0395607999525964]",1043.7374087999342,None,1043.73741218996,None,s09_02162024,001,2024-02-16_12h27.35.968,test_typingtask_norepeats,2020.2.10,59.98537556581086,
kremp,kremp,,,,,,,,,0,55,55,55,,,,,,,,,,,,,,,1049.2374578999588,None,"['k', 'r', 'e', 'm', 'p']",1,"[0.6114358000922948, 0.7474051000317559, 0.8515739000868052, 0.9714100999990478, 1.0436237000394613]",1049.2374578999588,None,1049.2374443899723,None,s09_02162024,001,2024-02-16_12h27.35.968,test_typingtask_norepeats,2020.2.10,59.98537556581086,
lucky,lucky,,,,,,,,,0,56,56,56,,,,,,,,,,,,,,,1054.7374642000068,None,"['l', 'u', 'c', 'k', 'y']",1,"[0.49538550002034754, 0.7273921000305563, 0.895389899960719, 1.0236452999524772, 1.1675382000394166]",1054.7374642000068,None,1054.7374645898933,None,s09_02162024,001,2024-02-16_12h27.35.968,test_typingtask_norepeats,2020.2.10,59.98537556581086,
cheer,cheer,,,,,,,,,0,57,57,57,,,,,,,,,,,,,,,1060.2375139999203,None,"['c', 'h', 'e', 'e', 'r']",1,"[0.635504600009881, 0.7313659000210464, 0.8513237000443041, 0.9954979000613093, 1.0593870000448078]",1060.2375139999203,None,1060.237498289917,None,s09_02162024,001,2024-02-16_12h27.35.968,test_typingtask_norepeats,2020.2.10,59.98537556581086,
buddy,buddy,,,,,,,,,0,58,58,58,,,,,,,,,,,,,,,1065.7376133999787,None,"['b', 'u', 'd', 'd', 'y']",1,"[0.7192992999916896, 0.8872733999742195, 1.0232086000032723, 1.1832502000033855, 1.3512998999794945]",1065.7376133999787,None,1065.7377326899557,None,s09_02162024,001,2024-02-16_12h27.35.968,test_typingtask_norepeats,2020.2.10,59.98537556581086,
lucky,lucky,,,,,,,,,0,59,59,59,,,,,,,,,,,,,,,1071.2375736999093,None,"['l', 'u', 'c', 'k', 'y']",1,"[0.5633283000206575, 0.7234245999716222, 0.8673870000056922, 0.9633968999842182, 1.1073569000000134]",1071.2375736999093,None,1071.2375392899964,None,s09_02162024,001,2024-02-16_12h27.35.968,test_typingtask_norepeats,2020.2.10,59.98537556581086,
zibja,zibja,,,,,,,,,0,60,60,60,,,,,,,,,,,,,,,1076.737593299942,None,"['z', 'i', 'b', 'j', 'a']",1,"[0.783246299950406, 0.927295699948445, 1.0632657000096515, 1.2472854999359697, 1.37521420000121]",1076.737593299942,None,1076.737554789998,None,s09_02162024,001,2024-02-16_12h27.35.968,test_typingtask_norepeats,2020.2.10,59.98537556581086,
edthe,edthe,,,,,,,,,0,61,61,61,,,,,,,,,,,,,,,1082.2375955999596,None,"['e', 'd', 't', 'h', 'e']",1,"[0.6033094000304118, 0.7792838000459597, 0.9393660000059754, 1.0593583000591025, 1.1073763000313193]",1082.2375955999596,None,1082.237624789949,None,s09_02162024,001,2024-02-16_12h27.35.968,test_typingtask_norepeats,2020.2.10,59.98537556581086,
champ,champ,,,,,,,,,0,62,62,62,,,,,,,,,,,,,,,1087.7376241999445,None,"['c', 'h', 'a', 'm', 'p']",1,"[0.4872303999727592, 0.5751819999422878, 0.6872713000047952, 0.759189400007017, 0.783186599961482]",1087.7376241999445,None,1087.7376641898998,None,s09_02162024,001,2024-02-16_12h27.35.968,test_typingtask_norepeats,2020.2.10,59.98537556581086,
druze,druze,,,,,,,,,0,63,63,63,,,,,,,,,,,,,,,1093.2377049999777,None,"['d', 'r', 'u', 'z', 'e']",1,"[0.6191803000401706, 0.8032711000414565, 0.8995002000592649, 1.0192819000221789, 1.1550987000809982]",1093.2377049999777,None,1093.237715589942,None,s09_02162024,001,2024-02-16_12h27.35.968,test_typingtask_norepeats,2020.2.10,59.98537556581086,
theme,theme,,,,,,,,,0,64,64,64,,,,,,,,,,,,,,,1098.737719399971,None,"['t', 'h', 'e', 'm', 'e']",1,"[0.5751193000469357, 0.6551750000799075, 0.7431039999937639, 0.8471886999905109, 0.903239700011909]",1098.737719399971,None,1098.7377174899564,None,s09_02162024,001,2024-02-16_12h27.35.968,test_typingtask_norepeats,2020.2.10,59.98537556581086,
cheer,cheer,,,,,,,,,0,65,65,65,,,,,,,,,,,,,,,1104.2377523999894,None,"['c', 'h', 'e', 'e', 'r']",1,"[0.5871072000591084, 0.6830663000000641, 0.7950159000465646, 0.9311047999653965, 0.9950310999993235]",1104.2377523999894,None,1104.2377553898957,None,s09_02162024,001,2024-02-16_12h27.35.968,test_typingtask_norepeats,2020.2.10,59.98537556581086,
champ,champ,,,,,,,,,0,66,66,66,,,,,,,,,,,,,,,1109.7377792999614,None,"['c', 'h', 'a', 'm', 'p']",1,"[0.5590999000705779, 0.6230831000721082, 0.7190494000678882, 0.7991386000066996, 0.8391874000662938]",1109.7377792999614,None,1109.7377784899552,None,s09_02162024,001,2024-02-16_12h27.35.968,test_typingtask_norepeats,2020.2.10,59.98537556581086,
cooed,cooed,,,,,,,,,0,67,67,67,,,,,,,,,,,,,,,1115.2377821999835,None,"['c', 'o', 'o', 'e', 'd']",1,"[0.5551717000780627, 0.6991172999842092, 0.8431156000588089, 0.9310588000807911, 1.1231525000184774]",1115.2377821999835,None,1115.2378143899957,None,s09_02162024,001,2024-02-16_12h27.35.968,test_typingtask_norepeats,2020.2.10,59.98537556581086,
therm,therm,,,,,,,,,0,68,68,68,,,,,,,,,,,,,,,1120.7378492999123,None,"['t', 'h', 'e', 'r', 'm']",1,"[0.5589924999512732, 0.6310080999974161, 0.7110380999511108, 0.8071484999964014, 0.9030284000327811]",1120.7378492999123,None,1120.7378454899997,None,s09_02162024,001,2024-02-16_12h27.35.968,test_typingtask_norepeats,2020.2.10,59.98537556581086,
faqir,faqir,,,,,,,,,0,69,69,69,,,,,,,,,,,,,,,1126.2378812999232,None,"['f', 'a', 'q', 'i', 'r']",1,"[0.7069445999804884, 0.8509763999609277, 1.098972799954936, 1.3229623000370339, 1.410925199976191]",1126.2378812999232,None,1126.237975389941,1126.3378868999425,s09_02162024,001,2024-02-16_12h27.35.968,test_typingtask_norepeats,2020.2.10,59.98537556581086,
vodka,vodka,,,,,,,,,0,70,70,70,,,,,,,,,,,,,,,1131.7379098999081,None,"['v', 'o', 'd', 'k', 'a']",1,"[0.6069264999823645, 0.8149136999854818, 0.9190282999770716, 1.1669104000320658, 1.2628676999593154]",1131.7379098999081,None,1131.7379025899688,1131.837904599961,s09_02162024,001,2024-02-16_12h27.35.968,test_typingtask_norepeats,2020.2.10,59.98537556581086,
druze,druze,,,,,,,,,0,71,71,71,,,,,,,,,,,,,,,1137.2379438999342,None,"['d', 'r', 'u', 'z', 'e']",1,"[0.5388285999651998, 0.7148283999413252, 0.8509825000073761, 0.9308905999641865, 1.0749468000140041]",1137.2379438999342,None,1137.2381953899865,1137.3379255000036,s09_02162024,001,2024-02-16_12h27.35.968,test_typingtask_norepeats,2020.2.10,59.98537556581086,
cheer,cheer,,,,,,,,,0,72,72,72,,,,,,,,,,,,,,,1142.7379797999747,None,"['c', 'h', 'e', 'e', 'r']",1,"[0.5349576000589877, 0.6229647999862209, 0.7429325000848621, 0.8789517000550404, 0.9348768000490963]",1142.7379797999747,None,1142.7379404899082,1142.8379709,s09_02162024,001,2024-02-16_12h27.35.968,test_typingtask_norepeats,2020.2.10,59.98537556581086,
about,about,,,,,,,,,0,73,73,73,,,,,,,,,,,,,,,1148.2379789999686,None,"['a', 'b', 'o', 'u', 't']",1,"[0.5628597000613809, 0.6347675999859348, 0.7147390000754967, 0.7547205000882968, 0.8270663000876084]",1148.2379789999686,None,1148.2379995898925,1148.3379767999286,s09_02162024,001,2024-02-16_12h27.35.968,test_typingtask_norepeats,2020.2.10,59.98537556581086,
theme,theme,,,,,,,,,0,74,74,74,,,,,,,,,,,,,,,1153.7380446000025,None,"['t', 'h', 'e', 'm', 'e']",1,"[0.6949023000197485, 0.7188828999642283, 0.8546688000205904, 0.9828673000447452, 1.062790700001642]",1153.7380446000025,None,1153.7380280899931,1153.8380057999166,s09_02162024,001,2024-02-16_12h27.35.968,test_typingtask_norepeats,2020.2.10,59.98537556581086,
kremp,kremp,,,,,,,,,0,75,75,75,,,,,,,,,,,,,,,1159.2380757000064,None,"['k', 'r', 'e', 'm', 'p']",1,"[0.698679200024344, 0.8346715000225231, 0.9226787999505177, 1.0027067000046372, 1.066879800055176]",1159.2380757000064,None,1159.2380774899036,1159.3380726999603,s09_02162024,001,2024-02-16_12h27.35.968,test_typingtask_norepeats,2020.2.10,59.98537556581086,
haole,haole,,,,,,,,,0,76,76,76,,,,,,,,,,,,,,,1164.73811019992,None,"['h', 'a', 'o', 'l', 'e']",1,"[0.6066783999558538, 0.7426085999468341, 0.894575799931772, 1.0627358999336138, 1.1586708999238908]",1164.73811019992,None,1164.7381052899989,None,s09_02162024,001,2024-02-16_12h27.35.968,test_typingtask_norepeats,2020.2.10,59.98537556581086,
therm,therm,,,,,,,,,0,77,77,77,,,,,,,,,,,,,,,1170.2381816999987,None,"['t', 'h', 'e', 'r', 'm']",1,"[0.5865867999382317, 0.6666275999741629, 0.7786426999373361, 0.8585893999552354, 0.9707048999844119]",1170.2381816999987,None,1170.2382538899662,1170.3381487999577,s09_02162024,001,2024-02-16_12h27.35.968,test_typingtask_norepeats,2020.2.10,59.98537556581086,
there,there,,,,,,,,,0,78,78,78,,,,,,,,,,,,,,,1175.7381938999752,None,"['t', 'h', 'e', 'r', 'e']",1,"[0.5666284000035375, 0.6387101999716833, 0.7025981000624597, 0.798726600012742, 0.8867220000829548]",1175.7381938999752,None,1175.7381678898935,None,s09_02162024,001,2024-02-16_12h27.35.968,test_typingtask_norepeats,2020.2.10,59.98537556581086,
faqir,faqir,,,,,,,,,0,79,79,79,,,,,,,,,,,,,,,1181.23817529995,None,"['f', 'a', 'q', 'i', 'r']",1,"[0.554803500068374, 0.6986715000821277, 1.0426077001029626, 1.29060060007032, 1.3787060000468045]",1181.23817529995,None,1181.238199989905,1181.3382407999597,s09_02162024,001,2024-02-16_12h27.35.968,test_typingtask_norepeats,2020.2.10,59.98537556581086,
pykka,pykka,,,,,,,,,0,80,80,80,,,,,,,,,,,,,,,1186.7382152999053,None,"['p', 'y', 'k', 'k', 'a']",1,"[0.6225833999924362, 0.8865993999643251, 1.0785167999565601, 1.230602200026624, 1.2944817999377847]",1186.7382152999053,None,1186.7382219899562,None,s09_02162024,001,2024-02-16_12h27.35.968,test_typingtask_norepeats,2020.2.10,59.98537556581086,
buddy,buddy,,,,,,,,,0,81,81,81,,,,,,,,,,,,,,,1192.238226699992,None,"['b', 'u', 'd', 'd', 'y']",1,"[0.5705807000631467, 0.7145034000277519, 0.8585626999847591, 1.0185801000334322, 1.1865742000518367]",1192.238226699992,None,1192.2382607899024,None,s09_02162024,001,2024-02-16_12h27.35.968,test_typingtask_norepeats,2020.2.10,59.98537556581086,
belly,belly,,,,,,,,,0,82,82,82,,,,,,,,,,,,,,,1197.7382984999567,None,"['b', 'e', 'l', 'l', 'y']",1,"[0.566377800074406, 0.6944494000636041, 0.8385209999978542, 0.9904216000577435, 1.0704277000622824]",1197.7382984999567,None,1197.7382533899624,1197.8382643999066,s09_02162024,001,2024-02-16_12h27.35.968,test_typingtask_norepeats,2020.2.10,59.98537556581086,
there,there,,,,,,,,,0,83,83,83,,,,,,,,,,,,,,,1203.2383232999127,None,"['t', 'h', 'e', 'r', 'e']",1,"[0.5704613999696448, 0.6345539999892935, 0.7065253999317065, 0.7864036000100896, 0.8743754000170156]",1203.2383232999127,None,1203.2382855899748,1203.3383212999906,s09_02162024,001,2024-02-16_12h27.35.968,test_typingtask_norepeats,2020.2.10,59.98537556581086,
would,would,,,,,,,,,0,84,84,84,,,,,,,,,,,,,,,1208.7383177999873,None,"['w', 'o', 'u', 'l', 'd']",1,"[0.6144611000781879, 0.6704087000107393, 0.7343792000319809, 0.8463680000277236, 0.926443999982439]",1208.7383177999873,None,1208.7383581899455,1208.838352199993,s09_02162024,001,2024-02-16_12h27.35.968,test_typingtask_norepeats,2020.2.10,59.98537556581086,
there,there,,,,,,,,,0,85,85,85,,,,,,,,,,,,,,,1214.2383884999435,None,"['t', 'h', 'e', 'r', 'e']",1,"[0.49038579990155995, 0.5623292999807745, 0.6264923999551684, 0.6906280999537557, 0.7703854999272153]",1214.2383884999435,None,1214.238386589929,None,s09_02162024,001,2024-02-16_12h27.35.968,test_typingtask_norepeats,2020.2.10,59.98537556581086,
about,about,,,,,,,,,0,86,86,86,,,,,,,,,,,,,,,1219.7384539999766,None,"['a', 'b', 'o', 'u', 't']",1,"[0.5103109000483528, 0.5823198000434786, 0.6623748000711203, 0.694192000082694, 0.846400500042364]",1219.7384539999766,None,1219.7384214899619,1219.8384254999692,s09_02162024,001,2024-02-16_12h27.35.968,test_typingtask_norepeats,2020.2.10,59.98537556581086,
cooed,cooed,,,,,,,,,0,87,87,87,,,,,,,,,,,,,,,1225.2384199999506,None,"['c', 'o', 'o', 'e', 'd']",1,"[0.6823459999868646, 0.8262853999622166, 0.9942288999445736, 1.1064156999345869, 1.290307999937795]",1225.2384199999506,None,1225.2385255899396,1225.3384525999427,s09_02162024,001,2024-02-16_12h27.35.968,test_typingtask_norepeats,2020.2.10,59.98537556581086,
cheer,cheer,,,,,,,,,0,88,88,88,,,,,,,,,,,,,,,1230.738486599992,None,"['c', 'h', 'e', 'e', 'r']",1,"[0.6062738000182435, 0.73434460000135, 0.8702945000259206, 1.038408700027503, 1.1342065000208095]",1230.738486599992,None,1230.738453389972,1230.838495099917,s09_02162024,001,2024-02-16_12h27.35.968,test_typingtask_norepeats,2020.2.10,59.98537556581086,
theme,theme,,,,,,,,,0,89,89,89,,,,,,,,,,,,,,,1236.2385264999466,None,"['t', 'h', 'e', 'm', 'e']",1,"[0.6181745999492705, 0.6902196999872103, 0.7623435999266803, 0.8902378999628127, 0.938151599955745]",1236.2385264999466,None,1236.2385542899253,None,s09_02162024,001,2024-02-16_12h27.35.968,test_typingtask_norepeats,2020.2.10,59.98537556581086,
about,about,,,,,,,,,0,90,90,90,,,,,,,,,,,,,,,1241.738550299895,None,"['a', 'b', 'o', 'u', 't']",1,"[0.5021911000367254, 0.5582377000246197, 0.6143614000175148, 0.6701487000100315, 0.726119099999778]",1241.738550299895,None,1241.7385469899862,1241.8385843998985,s09_02162024,001,2024-02-16_12h27.35.968,test_typingtask_norepeats,2020.2.10,59.98537556581086,
druze,druze,,,,,,,,,0,91,91,91,,,,,,,,,,,,,,,1247.2385871999431,None,"['d', 'r', 'u', 'z', 'e']",1,"[0.554183500004001, 0.7461799999000505, 0.8821889999089763, 0.9780728999758139, 1.1141641999129206]",1247.2385871999431,None,1247.2385459899785,1247.3385838998947,s09_02162024,001,2024-02-16_12h27.35.968,test_typingtask_norepeats,2020.2.10,59.98537556581086,
lucky,lucky,,,,,,,,,0,92,92,92,,,,,,,,,,,,,,,1252.7386202999623,None,"['l', 'u', 'c', 'k', 'y']",1,"[0.5820917000528425, 0.7421133000170812, 0.8700648000231013, 0.9980487000430003, 1.1421928000636399]",1252.7386202999623,None,1252.73857939,1252.838624499971,s09_02162024,001,2024-02-16_12h27.35.968,test_typingtask_norepeats,2020.2.10,59.98537556581086,
zibja,zibja,,,,,,,,,0,93,93,93,,,,,,,,,,,,,,,1258.2386478999397,None,"['z', 'i', 'b', 'j', 'a']",1,"[0.6343117000069469, 0.826037299935706, 0.9781178999692202, 1.153995499946177, 1.2661882999818772]",1258.2386478999397,None,1258.2386179899447,1258.3386500999331,s09_02162024,001,2024-02-16_12h27.35.968,test_typingtask_norepeats,2020.2.10,59.98537556581086,
vodka,vodka,,,,,,,,,0,94,94,94,,,,,,,,,,,,,,,1263.7387518999167,None,"['v', 'o', 'd', 'k', 'a']",1,"[0.6219468000344932, 0.7259065000107512, 0.8619234999641776, 1.0143818999640644, 1.1580746000399813]",1263.7387518999167,None,1263.7386648899526,1263.838777499972,s09_02162024,001,2024-02-16_12h27.35.968,test_typingtask_norepeats,2020.2.10,59.98537556581086,
think,think,,,,,,,,,0,95,95,95,,,,,,,,,,,,,,,1269.2387327000033,None,"['t', 'h', 'i', 'n', 'k']",1,"[0.5780230000382289, 0.6339972000569105, 0.7060132999904454, 0.8179617000278085, 0.8498927999753505]",1269.2387327000033,None,1269.2387134899734,1269.3387098999228,s09_02162024,001,2024-02-16_12h27.35.968,test_typingtask_norepeats,2020.2.10,59.98537556581086,
kremp,kremp,,,,,,,,,0,96,96,96,,,,,,,,,,,,,,,1274.7387297999812,None,"['k', 'r', 'e', 'm', 'p']",1,"[0.5980013000080362, 0.7021724000805989, 0.8058922999771312, 0.8940042000031099, 0.9820119000505656]",1274.7387297999812,None,1274.7387391899363,1274.838747199974,s09_02162024,001,2024-02-16_12h27.35.968,test_typingtask_norepeats,2020.2.10,59.98537556581086,
belly,belly,,,,,,,,,0,97,97,97,,,,,,,,,,,,,,,1280.2389203999192,None,"['b', 'e', 'l', 'l', 'y']",1,"[0.5219290999229997, 0.649793199962005, 0.7377652999712154, 0.8897139999317005, 1.00183730002027]",1280.2389203999192,None,1280.2387736899661,1280.3388095999835,s09_02162024,001,2024-02-16_12h27.35.968,test_typingtask_norepeats,2020.2.10,59.98537556581086,
lucky,lucky,,,,,,,,,0,98,98,98,,,,,,,,,,,,,,,1285.7388165999437,None,"['l', 'u', 'c', 'k', 'y']",1,"[0.5419175999704748, 0.6699988999171183, 0.8537947000004351, 0.917851599981077, 1.1339890999952331]",1285.7388165999437,None,1285.7388299899292,1285.8388159999158,s09_02162024,001,2024-02-16_12h27.35.968,test_typingtask_norepeats,2020.2.10,59.98537556581086,
vodka,vodka,,,,,,,,,0,99,99,99,,,,,,,,,,,,,,,1291.238836399978,None,"['v', 'o', 'd', 'k', 'a']",1,"[0.6738103000679985, 0.8018834000686184, 0.9778664000332355, 1.1058247999753803, 1.2018315000459552]",1291.238836399978,None,1291.2388519899803,1291.3388411999913,s09_02162024,001,2024-02-16_12h27.35.968,test_typingtask_norepeats,2020.2.10,59.98537556581086,
cooed,cooed,,,,,,,,,0,100,100,100,,,,,,,,,,,,,,,1296.7388783999486,None,"['c', 'o', 'o', 'e', 'd']",1,"[0.6297775000566617, 0.7659026000183076, 0.9258280000649393, 1.0377480000024661, 1.2298466000938788]",1296.7388783999486,None,1296.7388754899264,1296.8388880999992,s09_02162024,001,2024-02-16_12h27.35.968,test_typingtask_norepeats,2020.2.10,59.98537556581086,
champ,champ,,,,,,,,,0,101,101,101,,,,,,,,,,,,,,,1302.2388745999197,None,"['c', 'h', 'a', 'm', 'p']",1,"[0.5617824000073597, 0.6817806999897584, 0.7937018999364227, 0.8578147999942303, 0.889839299954474]",1302.2388745999197,None,1302.2389094899524,1302.3389103999361,s09_02162024,001,2024-02-16_12h27.35.968,test_typingtask_norepeats,2020.2.10,59.98537556581086,
think,think,,,,,,,,,0,102,102,102,,,,,,,,,,,,,,,1307.738972799969,None,"['t', 'h', 'i', 'n', 'k']",1,"[0.557644100044854, 0.5977000000420958, 0.6696410999866202, 0.7656196000752971, 0.805663000093773]",1307.738972799969,None,1307.738939089945,1307.8390088999877,s09_02162024,001,2024-02-16_12h27.35.968,test_typingtask_norepeats,2020.2.10,59.98537556581086,
druze,druze,,,,,,,,,0,103,103,103,,,,,,,,,,,,,,,1313.238993399893,None,"['d', 'r', 'u', 'z', 'e']",1,"[0.601637199986726, 0.8097919999854639, 0.9537050999933854, 1.0336477999808267, 1.1536191999912262]",1313.238993399893,None,1313.2390168899553,1313.3389785999898,s09_02162024,001,2024-02-16_12h27.35.968,test_typingtask_norepeats,2020.2.10,59.98537556581086,
buddy,buddy,,,,,,,,,0,104,104,104,,,,,,,,,,,,,,,1318.739012899925,None,"['b', 'u', 'd', 'd', 'y']",1,"[0.589663999970071, 0.6857864999910817, 0.8136071999324486, 0.9496349999681115, 1.093624599976465]",1318.739012899925,None,1318.7390267899143,None,s09_02162024,001,2024-02-16_12h27.35.968,test_typingtask_norepeats,2020.2.10,59.98537556581086,
theme,theme,,,,,,,,,0,105,105,105,,,,,,,,,,,,,,,1324.2390400998993,None,"['t', 'h', 'e', 'm', 'e']",1,"[0.5215998999774456, 0.5776508999988437, 0.6656240000156686, 0.7777083000401035, 0.8415596999693662]",1324.2390400998993,None,1324.2390421899152,1324.339050599956,s09_02162024,001,2024-02-16_12h27.35.968,test_typingtask_norepeats,2020.2.10,59.98537556581086,
pykka,pykka,,,,,,,,,0,106,106,106,,,,,,,,,,,,,,,1329.739039399894,None,"['p', 'y', 'k', 'k', 'a']",1,"[0.6296327000018209, 0.7815730000147596, 0.949817799963057, 1.1017123999772593, 1.2216609000461176]",1329.739039399894,None,1329.739068890002,1329.8390767999226,s09_02162024,001,2024-02-16_12h27.35.968,test_typingtask_norepeats,2020.2.10,59.98537556581086,
puppy,puppy,,,,,,,,,0,107,107,107,,,,,,,,,,,,,,,1335.2390656999778,None,"['p', 'p', 'p', 'y']",0,"[0.5455873000901192, 1.689567600027658, 1.833815100020729, 1.9297574000665918]",1335.2390656999778,None,1335.2391004898934,1335.3390717000002,s09_02162024,001,2024-02-16_12h27.35.968,test_typingtask_norepeats,2020.2.10,59.98537556581086,
would,would,,,,,,,,,0,108,108,108,,,,,,,,,,,,,,,1340.7391489999136,None,"['w', 'o', 'u', 'l', 'd']",1,"[0.613671200000681, 0.6695950999855995, 0.7175894000101835, 0.8296031999634579, 0.9015549999894574]",1340.7391489999136,None,1340.7391353899263,1340.8390989999752,s09_02162024,001,2024-02-16_12h27.35.968,test_typingtask_norepeats,2020.2.10,59.98537556581086,
therm,therm,,,,,,,,,0,109,109,109,,,,,,,,,,,,,,,1346.239164199913,None,"['t', 'h', 'e', 'r', 'm']",1,"[0.6254891999997199, 0.689527599955909, 0.7853700999403372, 0.8734155000420287, 0.937437399988994]",1346.239164199913,None,1346.2391817899304,1346.3391809999011,s09_02162024,001,2024-02-16_12h27.35.968,test_typingtask_norepeats,2020.2.10,59.98537556581086,
buddy,buddy,,,,,,,,,0,110,110,110,,,,,,,,,,,,,,,1351.7392269999254,None,"['b', 'u', 'd', 'd', 'y']",1,"[0.5574239999987185, 0.6453687999164686, 0.8054181999759749, 0.9573926999000832, 1.0773876999737695]",1351.7392269999254,None,1351.7391942899092,1351.8391956998967,s09_02162024,001,2024-02-16_12h27.35.968,test_typingtask_norepeats,2020.2.10,59.98537556581086,
heond,heond,,,,,,,,,0,111,111,111,,,,,,,,,,,,,,,1357.2392361999955,None,"['h', 'e', 'o', 'n', 'd']",1,"[0.6414076000219211, 0.793431399972178, 0.9454802999971434, 1.0334099000319839, 1.1374093000777066]",1357.2392361999955,None,1357.2392441899399,1357.3392306999303,s09_02162024,001,2024-02-16_12h27.35.968,test_typingtask_norepeats,2020.2.10,59.98537556581086,
would,would,,,,,,,,,0,112,112,112,,,,,,,,,,,,,,,1362.7392459999537,None,"['w', 'o', 'u', 'l', 'd']",1,"[0.5573235000483692, 0.5895005000056699, 0.6615652000764385, 0.7653414000524208, 0.8613417000742629]",1362.7392459999537,None,1362.739263689972,1362.8392706000013,s09_02162024,001,2024-02-16_12h27.35.968,test_typingtask_norepeats,2020.2.10,59.98537556581086,
vanru,vanru,,,,,,,,,0,113,113,113,,,,,,,,,,,,,,,1368.239301799913,None,"['v', 'a', 'n', 'r', 'u']",1,"[0.6653070999309421, 0.8093399000354111, 0.9933411999372765, 1.1932476999936625, 1.32125429995358]",1368.239301799913,None,1368.2393214899464,1368.3393132999772,s09_02162024,001,2024-02-16_12h27.35.968,test_typingtask_norepeats,2020.2.10,59.98537556581086,
tithe,tithe,,,,,,,,,0,114,114,114,,,,,,,,,,,,,,,1373.739421499893,None,"['t', 'i', 't', 'h', 'e']",1,"[0.6691871000220999, 0.7571612000465393, 0.9092336000176147, 1.0212825000053272, 1.0854110000655055]",1373.739421499893,None,1373.7393371899495,1373.8393336998997,s09_02162024,001,2024-02-16_12h27.35.968,test_typingtask_norepeats,2020.2.10,59.98537556581086,
vodka,vodka,,,,,,,,,0,115,115,115,,,,,,,,,,,,,,,1379.239332399913,None,"['v', 'o', 'd', 'k', 'a']",1,"[0.5852958000032231, 0.737341700005345, 0.8732266000006348, 0.9932490999344736, 1.0732093999395147]",1379.239332399913,None,1379.2393647899269,1379.3393613999942,s09_02162024,001,2024-02-16_12h27.35.968,test_typingtask_norepeats,2020.2.10,59.98537556581086,
haole,haole,,,,,,,,,0,116,116,116,,,,,,,,,,,,,,,1384.7394027999835,None,"['h', 'a', 'o', 'l', 'e']",1,"[0.6211841000476852, 0.8451885000104085, 1.1251812999835238, 1.3013008000561967, 1.429206300061196]",1384.7394027999835,None,1384.7393694899627,1384.8393591999775,s09_02162024,001,2024-02-16_12h27.35.968,test_typingtask_norepeats,2020.2.10,59.98537556581086,
tithe,tithe,,,,,,,,,0,117,117,117,,,,,,,,,,,,,,,1390.2394280999433,None,"['t', 'i', 't', 'h', 'e']",1,"[0.5692630999255925, 0.665085899992846, 0.8092545999679714, 0.8732280000112951, 0.993113899952732]",1390.2394280999433,None,1390.2394547899137,1390.339445099933,s09_02162024,001,2024-02-16_12h27.35.968,test_typingtask_norepeats,2020.2.10,59.98537556581086,
pykka,pykka,,,,,,,,,0,118,118,118,,,,,,,,,,,,,,,1395.739426999935,None,"['p', 'y', 'k', 'k', 'a']",1,"[0.5811844000127167, 0.8131059999577701, 0.9651385999750346, 1.1175962999695912, 1.2131071999901906]",1395.739426999935,None,1395.7394544899114,1395.8394660999766,s09_02162024,001,2024-02-16_12h27.35.968,test_typingtask_norepeats,2020.2.10,59.98537556581086,
heond,heond,,,,,,,,,0,119,119,119,,,,,,,,,,,,,,,1401.2394593999488,None,"['h', 'e', 'o', 'n', 'd']",1,"[0.5932170999003574, 0.7531097999308258, 0.8495388999581337, 0.9371673999121413, 1.0332600999390706]",1401.2394593999488,None,1401.2394597899518,None,s09_02162024,001,2024-02-16_12h27.35.968,test_typingtask_norepeats,2020.2.10,59.98537556581086,
