string,corrAns,practice_trials.thisRepN,practice_trials.thisTrialN,practice_trials.thisN,practice_trials.thisIndex,trials_1.thisRepN,trials_1.thisTrialN,trials_1.thisN,trials_1.thisIndex,trials_2.thisRepN,trials_2.thisTrialN,trials_2.thisN,trials_2.thisIndex,key_resp_0.keys,key_resp_0.corr,key_resp_0.rt,sound_2.started,sound_2.stopped,text_1.started,text_1.stopped,key_resp_1.keys,key_resp_1.corr,key_resp_1.rt,key_resp_1.started,key_resp_1.stopped,sound_1A_1.started,sound_1A_1.stopped,break_time.started,break_time.stopped,text_2.started,text_2.stopped,key_resp_2.keys,key_resp_2.corr,key_resp_2.rt,key_resp_2.started,key_resp_2.stopped,sound_1A_2.started,sound_1A_2.stopped,participant,session,date,expName,psychopyVersion,frameRate
fresh,fresh,0,0,0,0,,,,,,,,,"['f', 'r', 'e', 's', 'h']",1,"[1.1513241860084236, 1.3912621100025717, 1.583281696002814, 1.7752596760110464, 1.8473012739996193]",,,,,,,,,,,,,,,,,,,,,,,s175_08032022,1,2022_Aug_03_1805,test_typingtask_norepeats,2020.2.10,60.1755045
dream,dream,0,1,1,1,,,,,,,,,"['d', 'r', 'e', 'a', 'm']",1,"[0.9981147240032442, 1.1740577970049344, 1.3340833210095298, 1.5740527360030683, 1.686148527005571]",,,,,,,,,,,,,,,,,,,,,,,s175_08032022,1,2022_Aug_03_1805,test_typingtask_norepeats,2020.2.10,60.1755045
slime,slime,0,2,2,2,,,,,,,,,"['s', 'l', 'i', 'm', 'e']",1,"[0.8263507259980543, 1.0183907280006679, 1.2103482630045619, 1.4183908340055496, 1.4983825079980306]",,,,,,,,,,,,,,,,,,,,,,,s175_08032022,1,2022_Aug_03_1805,test_typingtask_norepeats,2020.2.10,60.1755045
cooed,cooed,,,,,0,0,0,0,,,,,,,,126.1326571,126.4325854,127.1686239,None,"['c', 'o', 'o', 'e', 'd']",1,"[0.7763660770142451, 1.0164104790019337, 1.1523716490046354, 1.2643633260013303, 1.448365250005736]",127.1686239,None,127.1663613,127.2659063,,,,,,,,,,,,s175_08032022,1,2022_Aug_03_1805,test_typingtask_norepeats,2020.2.10,60.1755045
there,there,,,,,0,1,1,1,,,,,,,,,,132.6496736,None,"['t', 'h', 'e', 'r', 'e']",1,"[0.7753348959959112, 0.8953326080081752, 1.0473305189952953, 1.1913600980042247, 1.3433447050047107]",132.6496736,None,132.6494683,132.7492537,,,,,,,,,,,,s175_08032022,1,2022_Aug_03_1805,test_typingtask_norepeats,2020.2.10,60.1755045
puppy,puppy,,,,,0,2,2,2,,,,,,,,,,138.1498127,None,"['p', 'u', 'p', 'p', 'y', 'u']",0,"[0.8113002640020568, 1.1951972890092293, 1.5472360660060076, 1.6671986419969471, 1.9711914409999736, 1.9873435519984923]",138.1498127,None,138.1495317,138.249055,,,,,,,,,,,,s175_08032022,1,2022_Aug_03_1805,test_typingtask_norepeats,2020.2.10,60.1755045
druze,druze,,,,,0,3,3,3,,,,,,,,,,143.6528293,None,"['d', 'r', 'u', 'z', 'e']",1,"[0.8681700110028032, 1.0602407660044264, 1.3881695320014842, 1.7162011790060205, 1.9322442209959263]",143.6528293,None,143.6498883,143.7497005,,,,,,,,,,,,s175_08032022,1,2022_Aug_03_1805,test_typingtask_norepeats,2020.2.10,60.1755045
vodka,vodka,,,,,0,4,4,4,,,,,,,,,,149.1678702,None,"['v', 'o', 'd', 'k', 'a']",1,"[0.8731645489897346, 1.0331892789981794, 1.3531327139935456, 1.5691383689991198, 1.7611659299873281]",149.1678702,None,149.1664647,149.2664413,,,,,,,,,,,,s175_08032022,1,2022_Aug_03_1805,test_typingtask_norepeats,2020.2.10,60.1755045
zibja,zibja,,,,,0,5,5,5,,,,,,,,,,154.6685673,None,"['z', 'i', 'b', 'j', 'a']",1,"[0.8284369569882983, 1.0684619749954436, 1.6124751979950815, 2.0524346299935132, 2.172433675994398]",154.6685673,None,154.6663232,154.7659828,,,,,,,,,,,,s175_08032022,1,2022_Aug_03_1805,test_typingtask_norepeats,2020.2.10,60.1755045
would,would,,,,,0,6,6,6,,,,,,,,,,160.1827314,None,"['w', 'o', 'u', 'l', 'd']",1,"[0.7943231770041166, 0.9543038410047302, 1.1623112840024987, 1.402321194007527, 1.5382705009978963]",160.1827314,None,160.182685,160.2827384,,,,,,,,,,,,s175_08032022,1,2022_Aug_03_1805,test_typingtask_norepeats,2020.2.10,60.1755045
champ,champ,,,,,0,7,7,7,,,,,,,,,,165.6826982,None,"['c', 'h', 'a', 'm', 'p']",1,"[0.7503130760014756, 0.8703585140028736, 1.1343187599995872, 1.246356404008111, 1.7183650829974795]",165.6826982,None,165.6829077,165.7826087,,,,,,,,,,,,s175_08032022,1,2022_Aug_03_1805,test_typingtask_norepeats,2020.2.10,60.1755045
would,would,,,,,0,8,8,8,,,,,,,,,,171.1840773,None,"['w', 'o', 'u', 'y', 'l', 'd']",0,"[0.7609261210018303, 0.9529237420065328, 1.2169998890021816, 1.2249363949958934, 1.5850546099973144, 1.7529552769992733]",171.1840773,None,171.1831818,171.2826227,,,,,,,,,,,,s175_08032022,1,2022_Aug_03_1805,test_typingtask_norepeats,2020.2.10,60.1755045
druze,druze,,,,,0,9,9,9,,,,,,,,,,176.6998719,None,"['d', 'r', 'u', 'z', 'e']",1,"[0.7971336159971543, 0.9891310749953846, 1.301183208997827, 1.581173671002034, 1.8131922650063643]",176.6998719,None,176.6996398,176.7994775,,,,,,,,,,,,s175_08032022,1,2022_Aug_03_1805,test_typingtask_norepeats,2020.2.10,60.1755045
haole,haole,,,,,0,10,10,10,,,,,,,,,,182.2002631,None,"['h', 'a', 'o', 'l', 'e']",1,"[0.9767919169971719, 1.2650310850003734, 1.5367335399932927, 1.7287915350025287, 1.800785523999366]",182.2002631,None,182.1993014,182.2997004,,,,,,,,,,,,s175_08032022,1,2022_Aug_03_1805,test_typingtask_norepeats,2020.2.10,60.1755045
therm,therm,,,,,0,11,11,11,,,,,,,,,,187.6995245,None,"['t', 'h', 'e', 'r', 'm']",1,"[0.8054820889956318, 0.9254936289944453, 1.17350376000104, 1.325499137994484, 1.4454851799964672]",187.6995245,None,187.699552,187.7995909,,,,,,,,,,,,s175_08032022,1,2022_Aug_03_1805,test_typingtask_norepeats,2020.2.10,60.1755045
belly,belly,,,,,0,12,12,12,,,,,,,,,,193.2004752,None,"['b', 'e', 'l', 'l', 'y']",1,"[0.8326254650019109, 1.0165293470054166, 1.2885359640058596, 1.4245335379964672, 1.560607531995629]",193.2004752,None,193.1996863,193.2993968,,,,,,,,,,,,s175_08032022,1,2022_Aug_03_1805,test_typingtask_norepeats,2020.2.10,60.1755045
vanru,vanru,,,,,0,13,13,13,,,,,,,,,,198.7171511,None,"['v', 'a', 'a', 'n', 'r', 'u']",0,"[0.8519000509986654, 1.0918740409979364, 1.9639039079920622, 2.0839238280022983, 2.459931207995396, 2.7638822400040226]",198.7171511,None,198.7162121,198.8160928,,,,,,,,,,,,s175_08032022,1,2022_Aug_03_1805,test_typingtask_norepeats,2020.2.10,60.1755045
zibja,zibja,,,,,0,14,14,14,,,,,,,,,,204.2331343,None,"['z', 'i', 'b', 'j', 'a']",1,"[0.9439141850016313, 1.1439127060002647, 1.4718736880022334, 1.7998636190022808, 1.927915649008355]",204.2331343,None,204.2325891,204.3327173,,,,,,,,,,,,s175_08032022,1,2022_Aug_03_1805,test_typingtask_norepeats,2020.2.10,60.1755045
belly,belly,,,,,0,15,15,15,,,,,,,,,,209.7327444,None,"['b', 'e', 'l', 'l', 'y']",1,"[0.8283123599976534, 1.0602543160057394, 1.3082465250045061, 1.4443408149963943, 1.5963015409943182]",209.7327444,None,209.7329615,209.8326632,,,,,,,,,,,,s175_08032022,1,2022_Aug_03_1805,test_typingtask_norepeats,2020.2.10,60.1755045
haole,haole,,,,,0,16,16,16,,,,,,,,,,215.2333462,None,"['h', 'a', 'o', 'l', 'e']",1,"[0.9357042199990246, 1.1517559030035045, 1.415691959002288, 1.6156995259952964, 1.7197058169986121]",215.2333462,None,215.2329037,215.332822,,,,,,,,,,,,s175_08032022,1,2022_Aug_03_1805,test_typingtask_norepeats,2020.2.10,60.1755045
heond,heond,,,,,0,17,17,17,,,,,,,,,,220.7327912,None,"['h', 'e', 'o', 'n', 'd']",1,"[0.948253164999187, 1.1722114290023455, 1.3882095750013832, 1.6842218849924393, 1.884248150003259]",220.7327912,None,220.7328925,220.8325122,,,,,,,,,,,,s175_08032022,1,2022_Aug_03_1805,test_typingtask_norepeats,2020.2.10,60.1755045
edthe,edthe,,,,,0,18,18,18,,,,,,,,,,226.2330542,None,"['e', 'd', 't', 'h', 'e']",1,"[0.7360043879889417, 0.9280472169921268, 1.2079344139929162, 1.3200711629906436, 1.4559396769909654]",226.2330542,None,226.2330055,226.3330684,,,,,,,,,,,,s175_08032022,1,2022_Aug_03_1805,test_typingtask_norepeats,2020.2.10,60.1755045
think,think,,,,,0,19,19,19,,,,,,,,,,231.7330895,None,"['t', 'h', 'i', 'n', 'k']",1,"[0.7399198600032832, 0.8359921509982087, 1.1639123729983112, 1.3559478649985977, 1.507913004999864]",231.7330895,None,231.7330312,231.8326761,,,,,,,,,,,,s175_08032022,1,2022_Aug_03_1805,test_typingtask_norepeats,2020.2.10,60.1755045
champ,champ,,,,,0,20,20,20,,,,,,,,,,237.2328919,None,"['c', 'h', 'a', 'm', 'p']",1,"[0.7921625610033516, 0.9601430230104597, 1.1921161190111889, 1.3201665790111292, 1.688151653012028]",237.2328919,None,237.2329385,237.3327205,,,,,,,,,,,,s175_08032022,1,2022_Aug_03_1805,test_typingtask_norepeats,2020.2.10,60.1755045
kremp,kremp,,,,,0,21,21,21,,,,,,,,,,242.7334768,None,"['k', 'r', 'e', 'm', 'p']",1,"[0.9715221899969038, 1.1635209399973974, 1.3395235649950337, 1.4515677099989261, 1.8115636730071856]",242.7334768,None,242.7332283,242.8325553,,,,,,,,,,,,s175_08032022,1,2022_Aug_03_1805,test_typingtask_norepeats,2020.2.10,60.1755045
puppy,puppy,,,,,0,22,22,22,,,,,,,,,,248.2329305,None,"['p', 'u', 'p', 'p', 'y']",1,"[0.7921509310108377, 1.1361125710100168, 1.5120640940003796, 1.640064589009853, 1.8801179959991714]",248.2329305,None,248.2327044,248.3327458,,,,,,,,,,,,s175_08032022,1,2022_Aug_03_1805,test_typingtask_norepeats,2020.2.10,60.1755045
lucky,lucky,,,,,0,23,23,23,,,,,,,,,,253.7329347,None,"['l', 'u', 'c', 'k', 'y']",1,"[0.7481112060049782, 1.0760776849929243, 1.3560725040006218, 1.4840747050038772, 1.7560698309971485]",253.7329347,None,253.7329646,253.8328701,,,,,,,,,,,,s175_08032022,1,2022_Aug_03_1805,test_typingtask_norepeats,2020.2.10,60.1755045
would,would,,,,,0,24,24,24,,,,,,,,,,259.232962,None,"['w', 'o', 'u', 'l', 'd']",1,"[0.8321174729935592, 0.9681197079917183, 1.2400890469871229, 1.4720571569923777, 1.5920576569915283]",259.232962,None,259.2330352,259.3328187,,,,,,,,,,,,s175_08032022,1,2022_Aug_03_1805,test_typingtask_norepeats,2020.2.10,60.1755045
think,think,,,,,0,25,25,25,,,,,,,,,,264.7330258,None,"['t', 'h', 'i', 'n', 'k']",1,"[0.8119649739965098, 0.8999680480046663, 1.2200125730014406, 1.3879886450013146, 1.5480022150004515]",264.7330258,None,264.7331542,264.8326049,,,,,,,,,,,,s175_08032022,1,2022_Aug_03_1805,test_typingtask_norepeats,2020.2.10,60.1755045
about,about,,,,,0,26,26,26,,,,,,,,,,270.2330676,None,"['a', 'b', 'o', 'u', 't']",1,"[0.8319695469981525, 0.9759349700034363, 1.3599592130049132, 1.5599406469991663, 1.6719282139965799]",270.2330676,None,270.2330422,270.3327728,,,,,,,,,,,,s175_08032022,1,2022_Aug_03_1805,test_typingtask_norepeats,2020.2.10,60.1755045
faqir,faqir,,,,,0,27,27,27,,,,,,,,,,275.735137,None,"['f', 'a', 'q', 'i', 'r']",1,"[0.9698661510046804, 1.2578747210063739, 1.4898673240095377, 1.8098681560077239, 1.9618608290038537]",275.735137,None,275.7330341,275.8330344,,,,,,,,,,,,s175_08032022,1,2022_Aug_03_1805,test_typingtask_norepeats,2020.2.10,60.1755045
haole,haole,,,,,0,28,28,28,,,,,,,,,,281.2340761,None,"['h', 'a', 'o', 'l', 'e']",1,"[0.862929915994755, 1.030975435001892, 1.2629307220049668, 1.4229416930029402, 1.5109464109991677]",281.2340761,None,281.2331806,281.3328656,,,,,,,,,,,,s175_08032022,1,2022_Aug_03_1805,test_typingtask_norepeats,2020.2.10,60.1755045
buddy,buddy,,,,,0,29,29,29,,,,,,,,,,286.7496694,None,"['b', 'n', 'u', 'd', 'd', 'd', 'y']",0,"[1.147391232996597, 1.1553901950101135, 1.7793882450059755, 2.107342053001048, 2.179339823007467, 2.4274280539975734, 2.699371645998326]",286.7496694,None,286.7499002,286.8494981,,,,,,,,,,,,s175_08032022,1,2022_Aug_03_1805,test_typingtask_norepeats,2020.2.10,60.1755045
vanru,vanru,,,,,0,30,30,30,,,,,,,,,,292.2662256,None,"['v', 'a', 'n', 'r', 'u']",1,"[0.8547858200035989, 0.990778881998267, 1.2948454340075841, 1.510853355997824, 1.6627819440036546]",292.2662256,None,292.266421,292.3661174,,,,,,,,,,,,s175_08032022,1,2022_Aug_03_1805,test_typingtask_norepeats,2020.2.10,60.1755045
therm,therm,,,,,0,31,31,31,,,,,,,,,,297.7665523,None,"['t', 'h', 'e', 'r', 'm']",1,"[0.7465274039859651, 0.8424571819923585, 1.0424538879888132, 1.2184964129992295, 1.3224488069972722]",297.7665523,None,297.7672581,297.8660806,,,,,,,,,,,,s175_08032022,1,2022_Aug_03_1805,test_typingtask_norepeats,2020.2.10,60.1755045
about,about,,,,,0,32,32,32,,,,,,,,,,303.2670072,None,"['a', 'b', 'o', 'u', 't']",1,"[0.7980704680085182, 0.9820608190057101, 1.3180447680060752, 1.550032701008604, 1.6700002690049587]",303.2670072,None,303.2669854,303.3661479,,,,,,,,,,,,s175_08032022,1,2022_Aug_03_1805,test_typingtask_norepeats,2020.2.10,60.1755045
therm,therm,,,,,0,33,33,33,,,,,,,,,,308.7666016,None,"['t', 'h', 'e', 'r', 'm']",1,"[0.7945163090043934, 0.8664038720016833, 1.042410445996211, 1.1944541279954137, 1.2904305700067198]",308.7666016,None,308.766236,308.8665185,,,,,,,,,,,,s175_08032022,1,2022_Aug_03_1805,test_typingtask_norepeats,2020.2.10,60.1755045
tithe,tithe,,,,,0,34,34,34,,,,,,,,,,314.2665362,None,"['t', 'i', 't', 'h', 'e']",1,"[0.8784680889948504, 0.9985007380018942, 1.1105176620039856, 1.2864947659982136, 1.478469118999783]",314.2665362,None,314.2664327,314.3663483,,,,,,,,,,,,s175_08032022,1,2022_Aug_03_1805,test_typingtask_norepeats,2020.2.10,60.1755045
therm,therm,,,,,0,35,35,35,,,,,,,,,,319.7670629,None,"['t', 'h', 'e', 'r', 'm']",1,"[0.7699355619988637, 0.8659460180060705, 1.0259533010103041, 1.2259570530004567, 1.3059464020043379]",319.7670629,None,319.7663713,319.8662729,,,,,,,,,,,,s175_08032022,1,2022_Aug_03_1805,test_typingtask_norepeats,2020.2.10,60.1755045
faqir,faqir,,,,,0,36,36,36,,,,,,,,,,325.2673533,None,"['f', 'a', 'q', 'i', 'r']",1,"[0.8937072030093987, 1.2136898230091901, 1.4296511190041201, 1.7177228890068363, 1.8376503769977717]",325.2673533,None,325.2669199,325.3663198,,,,,,,,,,,,s175_08032022,1,2022_Aug_03_1805,test_typingtask_norepeats,2020.2.10,60.1755045
puppy,puppy,,,,,0,37,37,37,,,,,,,,,,330.7665145,None,"['p', 'u', 'p', 'p', 'y']",1,"[0.8105151030031266, 1.7465410940058064, 2.1064892249996774, 2.234540265009855, 2.4825391140038846]",330.7665145,None,330.766697,330.8662488,,,,,,,,,,,,s175_08032022,1,2022_Aug_03_1805,test_typingtask_norepeats,2020.2.10,60.1755045
lucky,lucky,,,,,0,38,38,38,,,,,,,,,,336.2672898,None,"['l', 'u', 'c', 'k', 'y']",1,"[0.781815338996239, 1.0697099039971363, 1.3577345439989585, 1.4697693979978794, 1.7097688319918234]",336.2672898,None,336.2666794,336.3667738,,,,,,,,,,,,s175_08032022,1,2022_Aug_03_1805,test_typingtask_norepeats,2020.2.10,60.1755045
cheer,cheer,,,,,0,39,39,39,,,,,,,,,,341.7664593,None,"['c', 'h', 'e', 'e', 'r']",1,"[0.7946517040109029, 0.906556318004732, 1.1385616280022077, 1.2585576030105585, 1.4186866680101957]",341.7664593,None,341.7662839,341.8665556,,,,,,,,,,,,s175_08032022,1,2022_Aug_03_1805,test_typingtask_norepeats,2020.2.10,60.1755045
therm,therm,,,,,0,40,40,40,,,,,,,,,,347.266941,None,"['t', 'h', 'e', 'r', 'm']",1,"[0.7180910889874212, 0.7900766469974769, 0.9500713439920219, 1.0861487309884978, 1.1740637369948672]",347.266941,None,347.2664679,347.3665489,,,,,,,,,,,,s175_08032022,1,2022_Aug_03_1805,test_typingtask_norepeats,2020.2.10,60.1755045
zibja,zibja,,,,,0,41,41,41,,,,,,,,,,352.7681457,None,"['z', 'i', 'b', 'j', 'a']",1,"[0.808882765006274, 0.9690498179988936, 1.3128498139994917, 1.6408558700059075, 1.7608516500040423]",352.7681457,None,352.7669214,352.8665854,,,,,,,,,,,,s175_08032022,1,2022_Aug_03_1805,test_typingtask_norepeats,2020.2.10,60.1755045
belly,belly,,,,,0,42,42,42,,,,,,,,,,358.2831041,None,"['b', 'e', 'l', 'l', 'y']",1,"[0.7579155620042002, 0.9660432380042039, 1.2059304590075044, 1.341940861006151, 1.4779945949994726]",358.2831041,None,358.2830108,358.3833811,,,,,,,,,,,,s175_08032022,1,2022_Aug_03_1805,test_typingtask_norepeats,2020.2.10,60.1755045
think,think,,,,,0,43,43,43,,,,,,,,,,363.7841375,None,"['t', 'h', 'i', 'n', 'k']",1,"[0.704881325000315, 0.7929574869922362, 1.072868898001616, 1.2568713669897988, 1.4088860679912614]",363.7841375,None,363.783728,363.8834502,,,,,,,,,,,,s175_08032022,1,2022_Aug_03_1805,test_typingtask_norepeats,2020.2.10,60.1755045
druze,druze,,,,,0,44,44,44,,,,,,,,,,369.2833924,None,"['d', 'r', 'u', 'z', 'e']",1,"[0.9817183229897637, 1.1576140010001836, 1.4777490139967995, 1.7016221539961407, 1.941639144992223]",369.2833924,None,369.2834506,369.3832616,,,,,,,,,,,,s175_08032022,1,2022_Aug_03_1805,test_typingtask_norepeats,2020.2.10,60.1755045
buddy,buddy,,,,,0,45,45,45,,,,,,,,,,374.7845741,None,"['b', 'u', 'd', 'd', 'y']",1,"[0.7844994210026925, 1.1524837269971613, 1.4164394450053805, 1.5204524290020345, 1.6805403600010322]",374.7845741,None,374.7835904,374.8835162,,,,,,,,,,,,s175_08032022,1,2022_Aug_03_1805,test_typingtask_norepeats,2020.2.10,60.1755045
edthe,edthe,,,,,0,46,46,46,,,,,,,,,,380.3001653,None,"['e', 'd', 't', 'h', 'e']",1,"[0.8609236129996134, 1.1328900030057412, 1.3728414130018791, 1.476912138008629, 1.6128972000005888]",380.3001653,None,380.3001252,380.3998748,,,,,,,,,,,,s175_08032022,1,2022_Aug_03_1805,test_typingtask_norepeats,2020.2.10,60.1755045
kremp,kremp,,,,,0,47,47,47,,,,,,,,,,385.7999362,None,"['k', 'r', 'e', 'm', 'p']",1,"[0.76911613100674, 0.9770707480056444, 1.1531201059988234, 1.2730691250035306, 1.6250683550024405]",385.7999362,None,385.7997528,385.8997767,,,,,,,,,,,,s175_08032022,1,2022_Aug_03_1805,test_typingtask_norepeats,2020.2.10,60.1755045
cheer,cheer,,,,,0,48,48,48,,,,,,,,,,391.2997534,None,"['c', 'h', 'e', 'e', 'r']",1,"[0.7332834660046501, 0.861315187998116, 1.0532967820035992, 1.1813160220044665, 1.333254372002557]",391.2997534,None,391.2996545,391.3996482,,,,,,,,,,,,s175_08032022,1,2022_Aug_03_1805,test_typingtask_norepeats,2020.2.10,60.1755045
would,would,,,,,0,49,49,49,,,,,,,,,,396.7997731,None,"['w', 'o', 'u', 'l', 'd']",1,"[0.8732362790033221, 1.0412302699987777, 1.3132759430009173, 1.5772908070066478, 1.729234856000403]",396.7997731,None,396.7997681,396.8996119,,,,,,,,,,,,s175_08032022,1,2022_Aug_03_1805,test_typingtask_norepeats,2020.2.10,60.1755045
cheer,cheer,,,,,0,50,50,50,,,,,,,,,,402.2998395,None,"['c', 'h', 'e', 'e', 'r']",1,"[0.7972139220073586, 0.9891898839996429, 1.2051621120044729, 1.3411595210054656, 1.4852258890023222]",402.2998395,None,402.2997279,402.3995821,,,,,,,,,,,,s175_08032022,1,2022_Aug_03_1805,test_typingtask_norepeats,2020.2.10,60.1755045
pykka,pykka,,,,,0,51,51,51,,,,,,,,,,407.799712,None,"['p', 'y', 'k', 'k', 'a']",1,"[0.8013840640051058, 1.3452986269985558, 1.6572984660015209, 1.7693412130029174, 1.897308667001198]",407.799712,None,407.7998784,407.8996169,,,,,,,,,,,,s175_08032022,1,2022_Aug_03_1805,test_typingtask_norepeats,2020.2.10,60.1755045
puppy,puppy,,,,,0,52,52,52,,,,,,,,,,413.2998379,None,"['p', 'u', 'p', 'p', 'y']",1,"[0.8613207849994069, 1.4051560160005465, 1.7651907749968814, 1.8931601399963256, 2.2051556289952714]",413.2998379,None,413.300063,413.3998119,,,,,,,,,,,,s175_08032022,1,2022_Aug_03_1805,test_typingtask_norepeats,2020.2.10,60.1755045
vodka,vodka,,,,,0,53,53,53,,,,,,,,,,418.7999712,None,"['v', 'o', 'd', 'k', 'a']",1,"[0.9130729329917813, 1.0650705079897307, 1.433035779002239, 1.6010784249956487, 1.7450358359928941]",418.7999712,None,418.7997202,418.8996781,,,,,,,,,,,,s175_08032022,1,2022_Aug_03_1805,test_typingtask_norepeats,2020.2.10,60.1755045
theme,theme,,,,,0,54,54,54,,,,,,,,,,424.3000475,None,"['t', 'h', 'e', 'm', 'e']",1,"[0.7889488079963485, 0.8690233469969826, 1.0209433849959169, 1.180946866996237, 1.285000691001187]",424.3000475,None,424.2997779,424.4005459,,,,,,,,,,,,s175_08032022,1,2022_Aug_03_1805,test_typingtask_norepeats,2020.2.10,60.1755045
haole,haole,,,,,0,55,55,55,,,,,,,,,,429.7996043,None,"['h', 'a', 'o', 'l', 'e']",1,"[0.8094053090026136, 1.0733978280040901, 1.2174120069976198, 1.385447656008182, 1.5214030310016824]",429.7996043,None,429.7999486,429.8996055,,,,,,,,,,,,s175_08032022,1,2022_Aug_03_1805,test_typingtask_norepeats,2020.2.10,60.1755045
faqir,faqir,,,,,0,56,56,56,,,,,,,,,,435.3009096,None,"['f', 'a', 'q', 'i', 'r']",1,"[1.1080948099988746, 1.268134519996238, 2.508086952002486, 2.6280918549891794, 2.9321351669932483]",435.3009096,None,435.2998202,435.3996961,,,,,,,,,,,,s175_08032022,1,2022_Aug_03_1805,test_typingtask_norepeats,2020.2.10,60.1755045
pykka,pykka,,,,,0,57,57,57,,,,,,,,,,440.8166648,None,"['p', 'u', 'k', 'k', 'a']",0,"[0.8243337749881903, 1.1523777299880749, 1.440332378988387, 1.5843333469965728, 1.6803690059896326]",440.8166648,None,440.816418,440.9168612,,,,,,,,,,,,s175_08032022,1,2022_Aug_03_1805,test_typingtask_norepeats,2020.2.10,60.1755045
cooed,cooed,,,,,0,58,58,58,,,,,,,,,,446.3165196,None,"['c', 'o', 'o', 'e', 'd']",1,"[0.8365556789940456, 0.9965272539993748, 1.1245142049883725, 1.2525419399898965, 1.436532351988717]",446.3165196,None,446.3165235,446.416598,,,,,,,,,,,,s175_08032022,1,2022_Aug_03_1805,test_typingtask_norepeats,2020.2.10,60.1755045
tithe,tithe,,,,,0,59,59,59,,,,,,,,,,451.816858,None,"['t', 'i', 't', 'h', 'e']",1,"[0.7521822340058861, 0.8961517800053116, 0.9841508800018346, 1.176156561006792, 1.3842053930129623]",451.816858,None,451.8163832,451.9163127,,,,,,,,,,,,s175_08032022,1,2022_Aug_03_1805,test_typingtask_norepeats,2020.2.10,60.1755045
there,there,,,,,0,60,60,60,,,,,,,,,,457.3164761,None,"['t', 'h', 'e', 'r', 'e']",1,"[0.6925243760051671, 0.7805224000039743, 0.9165240599977551, 1.0765307809924707, 1.2125253239937592]",457.3164761,None,457.316492,457.4163145,,,,,,,,,,,,s175_08032022,1,2022_Aug_03_1805,test_typingtask_norepeats,2020.2.10,60.1755045
pykka,pykka,,,,,0,61,61,61,,,,,,,,,,462.8164647,None,"['p', 'y', 'k', 'k', 'a']",1,"[0.7925408750015777, 1.4405356030038092, 1.8245336430118186, 1.9765447579993634, 2.072537297004601]",462.8164647,None,462.8167496,462.9163687,,,,,,,,,,,,s175_08032022,1,2022_Aug_03_1805,test_typingtask_norepeats,2020.2.10,60.1755045
buddy,buddy,,,,,0,62,62,62,,,,,,,,,,468.3166031,None,"['b', 'u', 'd', 'd', 'y']",1,"[0.7724090330011677, 1.164404884999385, 1.4204040210024687, 1.5324515179963782, 1.6604090180044295]",468.3166031,None,468.3165567,468.416439,,,,,,,,,,,,s175_08032022,1,2022_Aug_03_1805,test_typingtask_norepeats,2020.2.10,60.1755045
would,would,,,,,0,63,63,63,,,,,,,,,,473.8167585,None,"['w', 'o', 'u', 'l', 'd']",1,"[0.7922486610041233, 0.9762449989939341, 1.232295574998716, 1.5042444499995327, 1.6242431729915552]",473.8167585,None,473.8164179,473.9164036,,,,,,,,,,,,s175_08032022,1,2022_Aug_03_1805,test_typingtask_norepeats,2020.2.10,60.1755045
about,about,,,,,0,64,64,64,,,,,,,,,,479.3164659,None,"['a', 'b', 'o', 'u', 't']",1,"[0.7245188060041983, 0.8525992360082455, 1.1885207750019617, 1.3805199290072778, 1.484579110998311]",479.3164659,None,479.3164962,479.4165151,,,,,,,,,,,,s175_08032022,1,2022_Aug_03_1805,test_typingtask_norepeats,2020.2.10,60.1755045
lucky,lucky,,,,,0,65,65,65,,,,,,,,,,484.8167083,None,"['l', 'u', 'c', 'k', 'y']",1,"[0.7683473020006204, 1.0803539749904303, 1.360300507993088, 1.4402966259949608, 1.6562915729882661]",484.8167083,None,484.816576,484.9165137,,,,,,,,,,,,s175_08032022,1,2022_Aug_03_1805,test_typingtask_norepeats,2020.2.10,60.1755045
cooed,cooed,,,,,0,66,66,66,,,,,,,,,,490.316426,None,"['c', 'o', 'o', 'e', 'd']",1,"[0.6925748780049616, 0.8686322870053118, 1.0045793449971825, 1.1085950459964806, 1.2605798010044964]",490.316426,None,490.3164377,490.4163946,,,,,,,,,,,,s175_08032022,1,2022_Aug_03_1805,test_typingtask_norepeats,2020.2.10,60.1755045
pykka,pykka,,,,,0,67,67,67,,,,,,,,,,495.8166863,None,"['p', 'u', 'k', 'k', 'a']",0,"[0.7843220500071766, 1.1683932570012985, 1.448360145004699, 1.5763498529995559, 1.6963843359990278]",495.8166863,None,495.8166042,495.9169835,,,,,,,,,,,,s175_08032022,1,2022_Aug_03_1805,test_typingtask_norepeats,2020.2.10,60.1755045
tithe,tithe,,,,,0,68,68,68,,,,,,,,,,501.3164893,None,"['t', 'i', 't', 'h', 'e']",1,"[0.8365875919989776, 0.9485608930117451, 1.0365613070025574, 1.22058955700777, 1.3645590150117641]",501.3164893,None,501.3165949,501.4167853,,,,,,,,,,,,s175_08032022,1,2022_Aug_03_1805,test_typingtask_norepeats,2020.2.10,60.1755045
champ,champ,,,,,0,69,69,69,,,,,,,,,,506.8166767,None,"['c', 'h', 'a', 'm', 'p']",1,"[0.9523813999985578, 1.1523927219968755, 1.3763405780046014, 1.5043404530006228, 1.8164308099949267]",506.8166767,None,506.8166917,506.9168113,,,,,,,,,,,,s175_08032022,1,2022_Aug_03_1805,test_typingtask_norepeats,2020.2.10,60.1755045
edthe,edthe,,,,,0,70,70,70,,,,,,,,,,512.316752,None,"['e', 'd', 't', 'h', 'e']",1,"[0.8282712130021537, 1.0283092099998612, 1.2362945750064682, 1.3082710620074067, 1.4042711259971838]",512.316752,None,512.3164004,512.4163572,,,,,,,,,,,,s175_08032022,1,2022_Aug_03_1805,test_typingtask_norepeats,2020.2.10,60.1755045
vanru,vanru,,,,,0,71,71,71,,,,,,,,,,517.8167284,None,"['v', 'a', 'n', 'r', 'u']",1,"[0.9042749229993206, 1.0243003880023025, 1.2483192310028244, 1.544329423995805, 1.8162926969962427]",517.8167284,None,517.8165305,517.9165433,,,,,,,,,,,,s175_08032022,1,2022_Aug_03_1805,test_typingtask_norepeats,2020.2.10,60.1755045
there,there,,,,,0,72,72,72,,,,,,,,,,523.3165006,None,"['t', 'h', 'e', 'r', 'e']",1,"[0.7005219169950578, 0.7805094299983466, 0.9165044999972451, 1.0525863280054182, 1.1965525859995978]",523.3165006,None,523.3165973,523.416487,,,,,,,,,,,,s175_08032022,1,2022_Aug_03_1805,test_typingtask_norepeats,2020.2.10,60.1755045
vodka,vodka,,,,,0,73,73,73,,,,,,,,,,528.8167053,None,"['v', 'o', 'd', 'k', 'a']",1,"[0.8163034039898776, 0.9523771499953, 1.248355712988996, 1.6003012169967405, 1.712306018001982]",528.8167053,None,528.8167227,528.9165018,,,,,,,,,,,,s175_08032022,1,2022_Aug_03_1805,test_typingtask_norepeats,2020.2.10,60.1755045
heond,heond,,,,,0,74,74,74,,,,,,,,,,534.3165315,None,"['h', 'e', 'o', 'n', 'd']",1,"[0.7644581009953981, 0.9404636539984494, 1.2285335210035555, 1.5084776309959125, 1.6924716939975042]",534.3165315,None,534.3166315,534.4163718,,,,,,,,,,,,s175_08032022,1,2022_Aug_03_1805,test_typingtask_norepeats,2020.2.10,60.1755045
lucky,lucky,,,,,0,75,75,75,,,,,,,,,,539.8166663,None,"['l', 'u', 'c', 'k', 'y']",1,"[0.7203344690060476, 0.9603594170039287, 1.1683828539971728, 1.2883357160026208, 1.5203353870019782]",539.8166663,None,539.8166663,539.9164513,,,,,,,,,,,,s175_08032022,1,2022_Aug_03_1805,test_typingtask_norepeats,2020.2.10,60.1755045
vodka,vodka,,,,,0,76,76,76,,,,,,,,,,545.3167422,None,"['v', 'o', 'd', 'k', 'a']",1,"[0.7962971590022789, 1.1803210240032058, 1.4202495400095358, 1.5402508440020029, 1.6843196880072355]",545.3167422,None,545.3168195,545.4167402,,,,,,,,,,,,s175_08032022,1,2022_Aug_03_1805,test_typingtask_norepeats,2020.2.10,60.1755045
about,about,,,,,0,77,77,77,,,,,,,,,,550.8169411,None,"['a', 'b', 'o', 'u', 't']",1,"[0.7681095019943314, 0.8640492709964747, 1.1920564909960376, 1.3920532549964264, 1.4961026980017778]",550.8169411,None,550.816622,550.9168486,,,,,,,,,,,,s175_08032022,1,2022_Aug_03_1805,test_typingtask_norepeats,2020.2.10,60.1755045
cooed,cooed,,,,,0,78,78,78,,,,,,,,,,556.31663,None,"['c', 'o', 'o', 'e', 'd']",1,"[0.7483819009939907, 0.9163850280019687, 1.0603427879977971, 1.148382056999253, 1.2923381629952928]",556.31663,None,556.3165201,556.4164237,,,,,,,,,,,,s175_08032022,1,2022_Aug_03_1805,test_typingtask_norepeats,2020.2.10,60.1755045
faqir,faqir,,,,,0,79,79,79,,,,,,,,,,561.8166126,None,"['f', 'a', 'q', 'i', 'r']",1,"[1.184561696005403, 1.320505502008018, 1.6484385869989637, 1.8804532520007342, 2.0324335799959954]",561.8166126,None,561.8167787,561.9164934,,,,,,,,,,,,s175_08032022,1,2022_Aug_03_1805,test_typingtask_norepeats,2020.2.10,60.1755045
heond,heond,,,,,0,80,80,80,,,,,,,,,,567.3166562,None,"['h', 'e', 'o', 'n', 'd']",1,"[0.8763499579945346, 1.1643534030008595, 1.2843626859976212, 1.5643497679993743, 1.7003508070047246]",567.3166562,None,567.3167792,567.4165814,,,,,,,,,,,,s175_08032022,1,2022_Aug_03_1805,test_typingtask_norepeats,2020.2.10,60.1755045
zibja,zibja,,,,,0,81,81,81,,,,,,,,,,572.8166616,None,"['z', 'i', 'b', 'j', 'a']",1,"[1.1763560640101787, 1.3603664900001604, 1.67235709700617, 2.0164289960084716, 2.1524189760093577]",572.8166616,None,572.8168961,572.9163235,,,,,,,,,,,,s175_08032022,1,2022_Aug_03_1805,test_typingtask_norepeats,2020.2.10,60.1755045
cheer,cheer,,,,,0,82,82,82,,,,,,,,,,578.3173304,None,"['c', 'h', 'e', 'e', 'e', 'r']",0,"[0.771704299011617, 0.9317214290058473, 1.1236715470004128, 1.235720434007817, 1.3716758220107295, 1.6677218840050045]",578.3173304,None,578.3173133,578.4170307,,,,,,,,,,,,s175_08032022,1,2022_Aug_03_1805,test_typingtask_norepeats,2020.2.10,60.1755045
tithe,tithe,,,,,0,83,83,83,,,,,,,,,,583.8334901,None,"['t', 'i', 't', 'h', 'e']",1,"[0.7835208309988957, 0.9195638410019455, 1.0235160059964983, 1.1275756399991224, 1.239516621993971]",583.8334901,None,583.8335422,583.9331994,,,,,,,,,,,,s175_08032022,1,2022_Aug_03_1805,test_typingtask_norepeats,2020.2.10,60.1755045
there,there,,,,,0,84,84,84,,,,,,,,,,589.3333121,None,"['t', 'h', 'e', 'r', 'e']",1,"[0.8117438350018347, 0.8836983579967637, 1.0357458169892197, 1.1797368679981446, 1.3076904199988348]",589.3333121,None,589.3334724,589.4335058,,,,,,,,,,,,s175_08032022,1,2022_Aug_03_1805,test_typingtask_norepeats,2020.2.10,60.1755045
belly,belly,,,,,0,85,85,85,,,,,,,,,,594.8337352,None,"['b', 'e', 'l', 'l', 'y']",1,"[0.8232779069949174, 0.9832829520019004, 1.2552591510029742, 1.3993056649924256, 1.5033169800008181]",594.8337352,None,594.8335795,594.9333904,,,,,,,,,,,,s175_08032022,1,2022_Aug_03_1805,test_typingtask_norepeats,2020.2.10,60.1755045
buddy,buddy,,,,,0,86,86,86,,,,,,,,,,600.3336198,None,"['b', 'i', 'd', 'd', 'y']",0,"[0.9554001649958082, 1.1713944029906997, 2.163429416003055, 2.3154282509931363, 2.4434147809952265]",600.3336198,None,600.3333317,600.433341,,,,,,,,,,,,s175_08032022,1,2022_Aug_03_1805,test_typingtask_norepeats,2020.2.10,60.1755045
edthe,edthe,,,,,0,87,87,87,,,,,,,,,,605.8500673,None,"['e', 'd', 't', 'h', 'e']",1,"[0.8229389320040355, 1.0069375509920064, 1.2069374029961182, 1.2869962900003884, 1.3830478839954594]",605.8500673,None,605.8501752,605.9504887,,,,,,,,,,,,s175_08032022,1,2022_Aug_03_1805,test_typingtask_norepeats,2020.2.10,60.1755045
pykka,pykka,,,,,0,88,88,88,,,,,,,,,,611.3501681,None,"['p', 'y', 'k', 'k', 'a']",1,"[0.8189103629993042, 1.322835352999391, 1.7388609220070066, 1.8668385740020312, 1.9548381150088971]",611.3501681,None,611.3498758,611.4498991,,,,,,,,,,,,s175_08032022,1,2022_Aug_03_1805,test_typingtask_norepeats,2020.2.10,60.1755045
about,about,,,,,0,89,89,89,,,,,,,,,,616.8502961,None,"['a', 'b', 'o', 'u', 't']",1,"[0.8787198820064077, 0.9987546040065354, 1.2787110200006282, 1.4867901660036296, 1.5747087390045635]",616.8502961,None,616.8500803,616.9498398,,,,,,,,,,,,s175_08032022,1,2022_Aug_03_1805,test_typingtask_norepeats,2020.2.10,60.1755045
druze,druze,,,,,0,90,90,90,,,,,,,,,,622.3504465,None,"['d', 'r', 'u', 'z', 'e']",1,"[0.9145673890016042, 1.090589416999137, 1.4505678960122168, 1.642571279007825, 1.8425701150117675]",622.3504465,None,622.3507911,622.4501851,,,,,,,,,,,,s175_08032022,1,2022_Aug_03_1805,test_typingtask_norepeats,2020.2.10,60.1755045
theme,theme,,,,,0,91,91,91,,,,,,,,,,627.8500239,None,"['t', 'h', 'e', 'm', 'e']",1,"[0.726984717999585, 0.8230115050100721, 0.9669796030066209, 1.1110618829989107, 1.2150257980101742]",627.8500239,None,627.8501984,627.9499828,,,,,,,,,,,,s175_08032022,1,2022_Aug_03_1805,test_typingtask_norepeats,2020.2.10,60.1755045
think,think,,,,,0,92,92,92,,,,,,,,,,633.350709,None,"['t', 'h', 'i', 'n', 'k']",1,"[0.7782878180005355, 0.8343412880058168, 1.1302973349957028, 1.2983393489994342, 1.4423041450063465]",633.350709,None,633.3499999,633.4498843,,,,,,,,,,,,s175_08032022,1,2022_Aug_03_1805,test_typingtask_norepeats,2020.2.10,60.1755045
cooed,cooed,,,,,0,93,93,93,,,,,,,,,,638.8502076,None,"['c', 'o', 'o', 'e', 'd']",1,"[0.7189279650046956, 0.870884283009218, 1.006828558005509, 1.1108930610062089, 1.2628084640018642]",638.8502076,None,638.8509207,638.9503181,,,,,,,,,,,,s175_08032022,1,2022_Aug_03_1805,test_typingtask_norepeats,2020.2.10,60.1755045
kremp,kremp,,,,,0,94,94,94,,,,,,,,,,644.3503942,None,"['k', 'r', 'e', 'm', 'p']",1,"[0.842618978000246, 1.0666906289989129, 1.3786176659923512, 1.466717813993455, 1.7386213319987291]",644.3503942,None,644.3504778,644.4501202,,,,,,,,,,,,s175_08032022,1,2022_Aug_03_1805,test_typingtask_norepeats,2020.2.10,60.1755045
heond,heond,,,,,0,95,95,95,,,,,,,,,,649.8503429,None,"['h', 'e', 'o', 'n', 'd']",1,"[0.7987732920009876, 0.9586813200003235, 1.0948028290004004, 1.294759370997781, 1.47867477699765]",649.8503429,None,649.8506332,649.9506323,,,,,,,,,,,,s175_08032022,1,2022_Aug_03_1805,test_typingtask_norepeats,2020.2.10,60.1755045
haole,haole,,,,,0,96,96,96,,,,,,,,,,655.3503269,None,"['h', 'a', 'o', 'l', 'e']",1,"[0.8666820999933407, 1.0666810690017883, 1.2027393570024287, 1.3706794530007755, 1.4586981409956934]",655.3503269,None,655.3501293,655.4500375,,,,,,,,,,,,s175_08032022,1,2022_Aug_03_1805,test_typingtask_norepeats,2020.2.10,60.1755045
edthe,edthe,,,,,0,97,97,97,,,,,,,,,,660.8503703,None,"['e', 'd', 't', 'h', 'e']",1,"[0.7746300470025744, 0.9506853850034531, 1.1506415750045562, 1.2386403950076783, 1.3186426480096998]",660.8503703,None,660.8502122,660.9503215,,,,,,,,,,,,s175_08032022,1,2022_Aug_03_1805,test_typingtask_norepeats,2020.2.10,60.1755045
think,think,,,,,0,98,98,98,,,,,,,,,,666.3506627,None,"['t', 'h', 'i', 'n', 'k']",1,"[0.7783388880052371, 0.8583451680024154, 1.0903359090007143, 1.2664037219947204, 1.3943954580026912]",666.3506627,None,666.3501652,666.4504753,,,,,,,,,,,,s175_08032022,1,2022_Aug_03_1805,test_typingtask_norepeats,2020.2.10,60.1755045
faqir,faqir,,,,,0,99,99,99,,,,,,,,,,671.8501776,None,"['f', 'a', 'q', 'i', 'r']",1,"[0.8468736459908541, 0.9748237019957742, 1.2149166019953554, 1.4468940059887245, 1.5668258989899186]",671.8501776,None,671.8501221,671.9498059,,,,,,,,,,,,s175_08032022,1,2022_Aug_03_1805,test_typingtask_norepeats,2020.2.10,60.1755045
vanru,vanru,,,,,0,100,100,100,,,,,,,,,,677.3506205,None,"['v', 'a', 'n', 'r', 'u']",1,"[0.88244203600334, 1.0104784190043574, 1.3144174430053681, 1.5544126060121926, 1.7303769800055306]",677.3506205,None,677.3504442,677.4499756,,,,,,,,,,,,s175_08032022,1,2022_Aug_03_1805,test_typingtask_norepeats,2020.2.10,60.1755045
there,there,,,,,0,101,101,101,,,,,,,,,,682.8501798,None,"['t', 'h', 'e', 'r', 'e']",1,"[0.6868207549996441, 0.7588419929961674, 0.878826547996141, 1.0148605269932887, 1.174852149997605]",682.8501798,None,682.8503079,682.95001,,,,,,,,,,,,s175_08032022,1,2022_Aug_03_1805,test_typingtask_norepeats,2020.2.10,60.1755045
theme,theme,,,,,0,102,102,102,,,,,,,,,,688.3503367,None,"['t', 'h', 'e', 'm', 'e']",1,"[0.7386660170013783, 0.8266742859996157, 0.9546636940067401, 1.0906634970015148, 1.25868348700169]",688.3503367,None,688.3501923,688.4500251,,,,,,,,,,,,s175_08032022,1,2022_Aug_03_1805,test_typingtask_norepeats,2020.2.10,60.1755045
champ,champ,,,,,0,103,103,103,,,,,,,,,,693.850517,None,"['c', 'h', 'a', 'm', 'p']",1,"[0.7744850529998075, 0.9345614649937488, 1.0784870630013756, 1.1744923759979429, 1.5025365699984832]",693.850517,None,693.8503975,693.9499422,,,,,,,,,,,,s175_08032022,1,2022_Aug_03_1805,test_typingtask_norepeats,2020.2.10,60.1755045
theme,theme,,,,,0,104,104,104,,,,,,,,,,699.3501775,None,"['t', 'h', 'e', 'm', 'e']",1,"[0.762872419989435, 0.8188676680001663, 0.9708272319985554, 1.0908219549892237, 1.282868171998416]",699.3501775,None,699.350124,699.4501958,,,,,,,,,,,,s175_08032022,1,2022_Aug_03_1805,test_typingtask_norepeats,2020.2.10,60.1755045
kremp,kremp,,,,,0,105,105,105,,,,,,,,,,704.8501418,None,"['k', 'r', 'e', 'm', 'p']",1,"[0.8869796140061226, 1.0709650290082209, 1.2788843550079037, 1.4548640100110788, 1.7268749680079054]",704.8501418,None,704.8503767,704.9500354,,,,,,,,,,,,s175_08032022,1,2022_Aug_03_1805,test_typingtask_norepeats,2020.2.10,60.1755045
cheer,cheer,,,,,0,106,106,106,,,,,,,,,,710.3503021,None,"['c', 'h', 'e', 'e', 'r']",1,"[0.7147539559955476, 0.8427190029906342, 0.9947858660016209, 1.1147410019912058, 1.2667094560019905]",710.3503021,None,710.3502865,710.4500139,,,,,,,,,,,,s175_08032022,1,2022_Aug_03_1805,test_typingtask_norepeats,2020.2.10,60.1755045
druze,druze,,,,,0,107,107,107,,,,,,,,,,715.8514566,None,"['d', 'r', 'u', 'z', 'e']",1,"[0.8776015610055765, 1.0215432820114074, 1.2135951050004223, 1.5495644309994532, 1.7336066860007122]",715.8514566,None,715.8504552,715.9504989,,,,,,,,,,,,s175_08032022,1,2022_Aug_03_1805,test_typingtask_norepeats,2020.2.10,60.1755045
belly,belly,,,,,0,108,108,108,,,,,,,,,,721.3681484,None,"['b', 'e', 'l', 'l', 'y']",1,"[0.824862896988634, 1.000898813988897, 1.2568545669928426, 1.3929077969951322, 1.520856939998339]",721.3681484,None,721.3667819,721.4666617,,,,,,,,,,,,s175_08032022,1,2022_Aug_03_1805,test_typingtask_norepeats,2020.2.10,60.1755045
puppy,puppy,,,,,0,109,109,109,,,,,,,,,,726.8669062,None,"['p', 'u', 'p', 'p', 'y']",1,"[0.7981400400021812, 1.1261034990020562, 1.4540961669990793, 1.5900934169912944, 1.7821374769991962]",726.8669062,None,726.8668872,726.96662,,,,,,,,,,,,s175_08032022,1,2022_Aug_03_1805,test_typingtask_norepeats,2020.2.10,60.1755045
lucky,lucky,,,,,0,110,110,110,,,,,,,,,,732.3669702,None,"['l', 'u', 'c', 'k', 'y']",1,"[0.7220307039970066, 1.010040573994047, 1.2661039579979843, 1.3620335489977151, 1.5620374819991412]",732.3669702,None,732.3670157,732.4667318,,,,,,,,,,,,s175_08032022,1,2022_Aug_03_1805,test_typingtask_norepeats,2020.2.10,60.1755045
champ,champ,,,,,0,111,111,111,,,,,,,,,,737.866973,None,"['c', 'h', 'a', 'm', 'p']",1,"[0.7020851520064753, 0.8220441270095762, 0.9900321340101073, 1.0460787500051083, 1.374031803003163]",737.866973,None,737.8671009,737.9668723,,,,,,,,,,,,s175_08032022,1,2022_Aug_03_1805,test_typingtask_norepeats,2020.2.10,60.1755045
theme,theme,,,,,0,112,112,112,,,,,,,,,,743.3670877,None,"['t', 'h', 'e', 'm']",0,"[0.7379516739893006, 0.8019660619902425, 0.9300004879914923, 1.017970847999095]",743.3670877,None,743.3668495,743.4667064,,,,,,,,,,,,s175_08032022,1,2022_Aug_03_1805,test_typingtask_norepeats,2020.2.10,60.1755045
kremp,kremp,,,,,0,113,113,113,,,,,,,,,,748.8670251,None,"['k', 'r', 'e', 'm', 'p']",1,"[0.9020225659915013, 1.0539553470007377, 1.2059598399937386, 1.294009091987391, 1.549957169991103]",748.8670251,None,748.8670814,748.9668743,,,,,,,,,,,,s175_08032022,1,2022_Aug_03_1805,test_typingtask_norepeats,2020.2.10,60.1755045
vodka,vodka,,,,,0,114,114,114,,,,,,,,,,754.3668325,None,"['v', 'o', 'd', 'k', 'a']",1,"[0.8901697469991632, 1.1621729469916318, 1.3862190389918396, 1.586328354998841, 1.7221687339915661]",754.3668325,None,754.3668049,754.4667699,,,,,,,,,,,,s175_08032022,1,2022_Aug_03_1805,test_typingtask_norepeats,2020.2.10,60.1755045
vanru,vanru,,,,,0,115,115,115,,,,,,,,,,759.866932,None,"['v', 'a', 'n', 'r', 'u']",1,"[0.8861473360011587, 1.0140716310124844, 1.2140750220132759, 1.430129812011728, 1.6781643560098018]",759.866932,None,759.8671711,759.9668394,,,,,,,,,,,,s175_08032022,1,2022_Aug_03_1805,test_typingtask_norepeats,2020.2.10,60.1755045
buddy,buddy,,,,,0,116,116,116,,,,,,,,,,765.367027,None,"['b', 'u', 'd', 'd', 'y']",1,"[0.8020341520023067, 1.209989505005069, 1.42598409501079, 1.546057739004027, 1.6419785510079237]",765.367027,None,765.3669287,765.4666354,,,,,,,,,,,,s175_08032022,1,2022_Aug_03_1805,test_typingtask_norepeats,2020.2.10,60.1755045
heond,heond,,,,,0,117,117,117,,,,,,,,,,770.8669775,None,"['h', 'e', 'o', 'n', 'd']",1,"[0.7980932999926154, 0.990024564001942, 1.2220227910001995, 1.4780871429975377, 1.6460333860013634]",770.8669775,None,770.8671854,770.96732,,,,,,,,,,,,s175_08032022,1,2022_Aug_03_1805,test_typingtask_norepeats,2020.2.10,60.1755045
zibja,zibja,,,,,0,118,118,118,,,,,,,,,,776.3670308,None,"['z', 'i', 'b', 'n', 'j', 'a']",0,"[0.8579722510039574, 1.0580028309923364, 1.3700196260033408, 1.3780652749992441, 1.7540000139997574, 1.8740020010009175]",776.3670308,None,776.3670226,776.4670092,,,,,,,,,,,,s175_08032022,1,2022_Aug_03_1805,test_typingtask_norepeats,2020.2.10,60.1755045
tithe,tithe,,,,,0,119,119,119,,,,,,,,,,781.867112,None,"['t', 'i', 't', 'h', 'e']",1,"[0.7499000999960117, 0.8538947619963437, 0.9418949159880867, 1.117942396987928, 1.2539091649960028]",781.867112,None,781.8670507,781.9669121,,,,,,,,,,,,s175_08032022,1,2022_Aug_03_1805,test_typingtask_norepeats,2020.2.10,60.1755045
vodka,vodka,,,,,,,,,0,0,0,0,,,,816.1336003,816.433489,,,,,,,,,,788.3335069,None,817.2316903,None,"['v', 'o', 'd', 'k']",0,"[0.8653874790034024, 1.233315813995432, 1.4014019559981534, 1.5533743839914678]",817.2316903,None,817.2332338,817.3336339,s175_08032022,1,2022_Aug_03_1805,test_typingtask_norepeats,2020.2.10,60.1755045
kremp,kremp,,,,,,,,,0,1,1,1,,,,,,,,,,,,,,,,,822.7504531,None,"['k', 'r', 'e', 'm', 'p']",1,"[0.7785517619922757, 0.930555055005243, 1.0905450129939709, 1.1785516599920811, 1.418620454001939]",822.7504531,None,822.7505043,822.8502272,s175_08032022,1,2022_Aug_03_1805,test_typingtask_norepeats,2020.2.10,60.1755045
pykka,pykka,,,,,,,,,0,2,2,2,,,,,,,,,,,,,,,,,828.2507004,None,"['p', 'u', 'k', 'k', 'a']",0,"[0.76631414599251, 1.1263145800039638, 1.3663140909920912, 1.502398026001174, 1.598347348990501]",828.2507004,None,828.2506958,828.3502733,s175_08032022,1,2022_Aug_03_1805,test_typingtask_norepeats,2020.2.10,60.1755045
cheer,cheer,,,,,,,,,0,3,3,3,,,,,,,,,,,,,,,,,833.7505328,None,"['c', 'h', 'e', 'e', 'r']",1,"[0.7784734080050839, 0.890467235003598, 1.0664735850004945, 1.2105033430125332, 1.4345198200026061]",833.7505328,None,833.7502116,833.8501219,s175_08032022,1,2022_Aug_03_1805,test_typingtask_norepeats,2020.2.10,60.1755045
haole,haole,,,,,,,,,0,4,4,4,,,,,,,,,,,,,,,,,839.2503219,None,"['h', 'a', 'o', 'l', 'e']",1,"[0.8947443659999408, 1.6708426179975504, 1.758709538000403, 1.9426903779967688, 2.030688314989675]",839.2503219,None,839.250476,839.350204,s175_08032022,1,2022_Aug_03_1805,test_typingtask_norepeats,2020.2.10,60.1755045
about,about,,,,,,,,,0,5,5,5,,,,,,,,,,,,,,,,,844.750317,None,"['a', 'b', 'o', 'u', 't']",1,"[0.7626801129954401, 0.8586803739890456, 1.1626931709906785, 1.410733723998419, 1.4827241159946425]",844.750317,None,844.750461,844.850156,s175_08032022,1,2022_Aug_03_1805,test_typingtask_norepeats,2020.2.10,60.1755045
edthe,edthe,,,,,,,,,0,6,6,6,,,,,,,,,,,,,,,,,850.2504619,None,"['e', 'd', 't', 'h', 'e']",1,"[0.7505446169961942, 0.9905668769933982, 1.2545365120022325, 1.3665463880024618, 1.454538699996192]",850.2504619,None,850.2505764,850.3503124,s175_08032022,1,2022_Aug_03_1805,test_typingtask_norepeats,2020.2.10,60.1755045
haole,haole,,,,,,,,,0,7,7,7,,,,,,,,,,,,,,,,,855.7504265,None,"['h', 'a', 'o', 'l', 'e']",1,"[0.8826196199952392, 1.2585729629936395, 1.3786199999885866, 1.5385788379935548, 1.626594628993189]",855.7504265,None,855.7502394,855.8502175,s175_08032022,1,2022_Aug_03_1805,test_typingtask_norepeats,2020.2.10,60.1755045
zibja,zibja,,,,,,,,,0,8,8,8,,,,,,,,,,,,,,,,,861.2508376,None,"['z', 'i', 'b', 'j', 'a']",1,"[0.88619595199998, 1.046203678008169, 1.3341966650041286, 1.5501554110087454, 1.6542041880020406]",861.2508376,None,861.2503531,861.3502431,s175_08032022,1,2022_Aug_03_1805,test_typingtask_norepeats,2020.2.10,60.1755045
heond,heond,,,,,,,,,0,9,9,9,,,,,,,,,,,,,,,,,866.7509068,None,"['h', 'e', 'o', 'n', 'd']",1,"[0.7941570709954249, 1.426106348997564, 1.5220954039978096, 1.786149794002995, 1.9220948709989898]",866.7509068,None,866.7507261,866.8505751,s175_08032022,1,2022_Aug_03_1805,test_typingtask_norepeats,2020.2.10,60.1755045
pykka,pykka,,,,,,,,,0,10,10,10,,,,,,,,,,,,,,,,,872.2502617,None,"['p', 'y', 'j', 'j', 'a']",0,"[0.9507473320118152, 1.4947974210081156, 1.8147631090105278, 1.950773268006742, 2.5907437080022646]",872.2502617,None,872.2504006,872.3502036,s175_08032022,1,2022_Aug_03_1805,test_typingtask_norepeats,2020.2.10,60.1755045
buddy,buddy,,,,,,,,,0,11,11,11,,,,,,,,,,,,,,,,,877.7504211,None,"['b', 'u', 'd', 'd', 'y']",1,"[0.7866305150091648, 1.2186551630002214, 1.4745790750021115, 1.5866309650009498, 1.6905790550081292]",877.7504211,None,877.7504223,877.8501753,s175_08032022,1,2022_Aug_03_1805,test_typingtask_norepeats,2020.2.10,60.1755045
champ,champ,,,,,,,,,0,12,12,12,,,,,,,,,,,,,,,,,883.2505528,None,"['c', 'h', 'g', 'a', 'm', 'p']",0,"[0.7345004849921679, 0.8864963669911958, 0.8945645829953719, 1.0624501690035686, 1.1584664649999468, 1.5504728849919047]",883.2505528,None,883.2505386,883.3502605,s175_08032022,1,2022_Aug_03_1805,test_typingtask_norepeats,2020.2.10,60.1755045
therm,therm,,,,,,,,,0,13,13,13,,,,,,,,,,,,,,,,,888.7505623,None,"['t', 'h', 'e', 'r', 'm']",1,"[0.7624414160090964, 0.8264489490102278, 1.002493496009265, 1.162441469001351, 1.2904688200069359]",888.7505623,None,888.7506692,888.8504154,s175_08032022,1,2022_Aug_03_1805,test_typingtask_norepeats,2020.2.10,60.1755045
heond,heond,,,,,,,,,0,14,14,14,,,,,,,,,,,,,,,,,894.250586,None,"['h', 'e', 'o', 'n', 'd']",1,"[0.9344595989969093, 1.270415827006218, 1.4544564130046638, 1.6704732880025404, 1.798458250996191]",894.250586,None,894.2502357,894.350183,s175_08032022,1,2022_Aug_03_1805,test_typingtask_norepeats,2020.2.10,60.1755045
theme,theme,,,,,,,,,0,15,15,15,,,,,,,,,,,,,,,,,899.7505906,None,"['t', 'h', 'e', 'm', 'e']",1,"[0.7304131239943672, 0.8104607139975997, 0.9544171460001962, 1.0345016630017199, 1.7544411830022]",899.7505906,None,899.7504449,899.8506724,s175_08032022,1,2022_Aug_03_1805,test_typingtask_norepeats,2020.2.10,60.1755045
vodka,vodka,,,,,,,,,0,16,16,16,,,,,,,,,,,,,,,,,905.2516997,None,"['v', 'o', 'd', 'k', 'a']",1,"[0.8453890399978263, 1.0853539249947062, 1.389301675997558, 1.493368412993732, 1.6373373870010255]",905.2516997,None,905.2515613,None,s175_08032022,1,2022_Aug_03_1805,test_typingtask_norepeats,2020.2.10,60.1755045
tithe,tithe,,,,,,,,,0,17,17,17,,,,,,,,,,,,,,,,,910.7672118,None,"['t', 'i', 't', 'h', 'e']",1,"[0.7537910639948677, 0.9138142580050044, 1.009804383997107, 1.1537945230084006, 1.2898232830048073]",910.7672118,None,910.7670389,910.8670437,s175_08032022,1,2022_Aug_03_1805,test_typingtask_norepeats,2020.2.10,60.1755045
vodka,vodka,,,,,,,,,0,18,18,18,,,,,,,,,,,,,,,,,916.2673363,None,"['v', 'o', 'd', 'k', 'a']",1,"[0.8297188410069793, 0.9256611870077904, 1.7256581370020285, 1.8056576270028017, 1.9736516650009435]",916.2673363,None,916.2671883,916.3671552,s175_08032022,1,2022_Aug_03_1805,test_typingtask_norepeats,2020.2.10,60.1755045
would,would,,,,,,,,,0,19,19,19,,,,,,,,,,,,,,,,,921.7671235,None,"['w', 'p', 'o', 'u', 'l', 'd']",0,"[0.8338862719974713, 0.9299256649974268, 0.9458813749952242, 1.4179283800040139, 1.6258874030027073, 1.7779454330011504]",921.7671235,None,921.7672416,921.8669083,s175_08032022,1,2022_Aug_03_1805,test_typingtask_norepeats,2020.2.10,60.1755045
vanru,vanru,,,,,,,,,0,20,20,20,,,,,,,,,,,,,,,,,927.2672993,None,"['v', 'a', 'n', 'r', 'u']",1,"[0.9017356600088533, 1.0536901470040902, 1.2697243250004249, 1.5336900999973295, 1.701729054999305]",927.2672993,None,927.2670253,927.3669178,s175_08032022,1,2022_Aug_03_1805,test_typingtask_norepeats,2020.2.10,60.1755045
puppy,puppy,,,,,,,,,0,21,21,21,,,,,,,,,,,,,,,,,932.7670069,None,"['p', 'u', 'p', 'p', 'y']",1,"[0.8260035270068329, 1.2020798230078071, 1.553991581997252, 1.6660465480090352, 1.8500097580108559]",932.7670069,None,932.7671865,932.8676656,s175_08032022,1,2022_Aug_03_1805,test_typingtask_norepeats,2020.2.10,60.1755045
cooed,cooed,,,,,,,,,0,22,22,22,,,,,,,,,,,,,,,,,938.2671251,None,"['c', 'o', 'o', 'e', 'd']",1,"[0.7899047910032095, 0.9578766350023216, 1.0859295830014162, 1.173886599004618, 1.341886031004833]",938.2671251,None,938.2671821,938.367452,s175_08032022,1,2022_Aug_03_1805,test_typingtask_norepeats,2020.2.10,60.1755045
there,there,,,,,,,,,0,23,23,23,,,,,,,,,,,,,,,,,943.7672163,None,"['t', 'h', 'e', 'r', 'e']",1,"[0.7537906099896645, 0.8178328479989432, 0.9458255109930178, 1.1138497939973604, 1.2977979360002792]",943.7672163,None,943.7670458,943.8674144,s175_08032022,1,2022_Aug_03_1805,test_typingtask_norepeats,2020.2.10,60.1755045
faqir,faqir,,,,,,,,,0,24,24,24,,,,,,,,,,,,,,,,,949.267997,None,"['f', 'a', 'q', 'i', 'r']",1,"[0.8850791879958706, 1.0210049349989276, 1.269104111008346, 1.5650826010096353, 1.6691231779986992]",949.267997,None,949.2673751,949.3673802,s175_08032022,1,2022_Aug_03_1805,test_typingtask_norepeats,2020.2.10,60.1755045
about,about,,,,,,,,,0,25,25,25,,,,,,,,,,,,,,,,,954.7670878,None,"['a', 'b', 'o', 'u', 't']",1,"[0.7859851300017908, 0.8739149659959367, 1.2019431509979768, 1.4179886119964067, 1.5059154960035812]",954.7670878,None,954.767065,954.8673479,s175_08032022,1,2022_Aug_03_1805,test_typingtask_norepeats,2020.2.10,60.1755045
therm,therm,,,,,,,,,0,26,26,26,,,,,,,,,,,,,,,,,960.2671855,None,"['t', 'h', 'e', 'r', 'm']",1,"[0.6938678940059617, 0.7578498080110876, 0.9018784270010656, 1.037822906000656, 1.1018693720106967]",960.2671855,None,960.2673536,960.3674014,s175_08032022,1,2022_Aug_03_1805,test_typingtask_norepeats,2020.2.10,60.1755045
druze,druze,,,,,,,,,0,27,27,27,,,,,,,,,,,,,,,,,965.7684519,None,"['d', 'r', 'u', 'z', 'e']",1,"[0.9126491739880294, 1.1045627470011823, 1.4725743489980232, 1.6965531059977366, 2.000591258998611]",965.7684519,None,965.7679546,965.8673913,s175_08032022,1,2022_Aug_03_1805,test_typingtask_norepeats,2020.2.10,60.1755045
would,would,,,,,,,,,0,28,28,28,,,,,,,,,,,,,,,,,971.2844697,None,"['w', 'o', 'u', 'l', 'd']",1,"[0.7965725819958607, 0.9165410560090095, 1.124559871997917, 1.3085476429987466, 1.4365474410005845]",971.2844697,None,971.2837997,971.3839765,s175_08032022,1,2022_Aug_03_1805,test_typingtask_norepeats,2020.2.10,60.1755045
cooed,cooed,,,,,,,,,0,29,29,29,,,,,,,,,,,,,,,,,976.7848853,None,"['c', 'o', 'o', 'e', 'e', 'd']",0,"[0.6801505420007743, 0.8401416589913424, 0.9761170449928613, 1.0641732799995225, 1.2241394400043646, 1.2241394400043646]",976.7848853,None,976.7848334,976.8843555,s175_08032022,1,2022_Aug_03_1805,test_typingtask_norepeats,2020.2.10,60.1755045
druze,druze,,,,,,,,,0,30,30,30,,,,,,,,,,,,,,,,,982.2846837,None,"['d', 'r', 'u', 'z', 'e']",1,"[0.9403458750020945, 1.15635295699758, 1.4923472139926162, 1.708325044994126, 1.9163254039885942]",982.2846837,None,982.2839557,982.3845803,s175_08032022,1,2022_Aug_03_1805,test_typingtask_norepeats,2020.2.10,60.1755045
lucky,lucky,,,,,,,,,0,31,31,31,,,,,,,,,,,,,,,,,987.784972,None,"['l', 'u', 'c', 'k', 'y']",1,"[0.768105190989445, 1.0641113159945235, 1.336081714995089, 1.4160570209933212, 1.6480923779890873]",987.784972,None,987.7839088,987.8842842,s175_08032022,1,2022_Aug_03_1805,test_typingtask_norepeats,2020.2.10,60.1755045
kremp,kremp,,,,,,,,,0,32,32,32,,,,,,,,,,,,,,,,,993.3006561,None,"['k', 'r', 'e', 'm', 'p']",1,"[1.0923509150015889, 1.3804362930095522, 1.5483895460056374, 1.612389523012098, 1.9643424810055876]",993.3006561,None,993.3005557,993.4004419,s175_08032022,1,2022_Aug_03_1805,test_typingtask_norepeats,2020.2.10,60.1755045
there,there,,,,,,,,,0,33,33,33,,,,,,,,,,,,,,,,,998.8006053,None,"['t', 'h', 'e', 'r', 'e']",1,"[0.7364320249907905, 0.8084511219931301, 0.9444610159989679, 1.0723961159965256, 1.2164703699963866]",998.8006053,None,998.8006676,998.9005694,s175_08032022,1,2022_Aug_03_1805,test_typingtask_norepeats,2020.2.10,60.1755045
about,about,,,,,,,,,0,34,34,34,,,,,,,,,,,,,,,,,1004.300653,None,"['a', 'b', 'o', 'u', 't']",1,"[0.8204212080017896, 0.940364848007448, 1.2524005000013858, 1.4444586320023518, 1.5324053229996935]",1004.300653,None,1004.300681,1004.400304,s175_08032022,1,2022_Aug_03_1805,test_typingtask_norepeats,2020.2.10,60.1755045
buddy,buddy,,,,,,,,,0,35,35,35,,,,,,,,,,,,,,,,,1009.801856,None,"['b', 'u', 'd', 'd', 'y']",1,"[0.9432031540054595, 1.2871436650020769, 1.5111470260017086, 1.6151557370030787, 1.7271999410004355]",1009.801856,None,1009.801428,1009.901032,s175_08032022,1,2022_Aug_03_1805,test_typingtask_norepeats,2020.2.10,60.1755045
think,think,,,,,,,,,0,36,36,36,,,,,,,,,,,,,,,,,1015.317705,None,"['t', 'h', 'i', 'n', 'k']",1,"[0.7073028329905355, 0.7793716509913793, 1.0113095790002262, 1.1953025369875832, 1.3313677789992653]",1015.317705,None,1015.318069,1015.417024,s175_08032022,1,2022_Aug_03_1805,test_typingtask_norepeats,2020.2.10,60.1755045
lucky,lucky,,,,,,,,,0,37,37,37,,,,,,,,,,,,,,,,,1020.817255,None,"['l', 'u', 'c', 'k', 'y']",1,"[0.7118478399934247, 0.9837360069941496, 1.1998092249996262, 1.271773396001663, 1.5437388739956077]",1020.817255,None,1020.817341,1020.917438,s175_08032022,1,2022_Aug_03_1805,test_typingtask_norepeats,2020.2.10,60.1755045
heond,heond,,,,,,,,,0,38,38,38,,,,,,,,,,,,,,,,,1026.317388,None,"['h', 'e', 'o', 'n', 'd']",1,"[0.8196613159961998, 1.1236299729935126, 1.243627405987354, 1.507616787988809, 1.6436721649952233]",1026.317388,None,1026.317391,1026.417186,s175_08032022,1,2022_Aug_03_1805,test_typingtask_norepeats,2020.2.10,60.1755045
tithe,tithe,,,,,,,,,0,39,39,39,,,,,,,,,,,,,,,,,1031.817358,None,"['t', 'i', 't', 'h', 'e']",1,"[0.7596583939885022, 0.8476459499943303, 0.9516499919991475, 1.0796872399951098, 1.2236443439905997]",1031.817358,None,1031.817236,1031.917299,s175_08032022,1,2022_Aug_03_1805,test_typingtask_norepeats,2020.2.10,60.1755045
faqir,faqir,,,,,,,,,0,40,40,40,,,,,,,,,,,,,,,,,1037.319029,None,"['f', 'a', 'q', 'i', 'r']",1,"[0.9620497019932372, 1.1059830809972482, 1.2899796340061584, 1.5460225800052285, 1.6579747380019398]",1037.319029,None,1037.31788,1037.417156,s175_08032022,1,2022_Aug_03_1805,test_typingtask_norepeats,2020.2.10,60.1755045
theme,theme,,,,,,,,,0,41,41,41,,,,,,,,,,,,,,,,,1042.818161,None,"['t', 'h', 'e', 'm', 'e']",1,"[0.7029435330041451, 0.7829693319945363, 0.9189368520019343, 1.014980876003392, 1.2228640940011246]",1042.818161,None,1042.817796,1042.917483,s175_08032022,1,2022_Aug_03_1805,test_typingtask_norepeats,2020.2.10,60.1755045
tithe,tithe,,,,,,,,,0,42,42,42,,,,,,,,,,,,,,,,,1048.317807,None,"['t', 'i', 't', 'h', 'e']",1,"[0.7792463170044357, 0.8672397670015926, 0.9551992620108649, 1.0751967899996089, 1.2192880410002545]",1048.317807,None,1048.317679,1048.417571,s175_08032022,1,2022_Aug_03_1805,test_typingtask_norepeats,2020.2.10,60.1755045
there,there,,,,,,,,,0,43,43,43,,,,,,,,,,,,,,,,,1053.817998,None,"['t', 'h', 'e', 'r', 'e']",1,"[0.7191210739983944, 0.8070244770060526, 0.9350712460000068, 1.11133078399871, 1.2310707389988238]",1053.817998,None,1053.817943,1053.917788,s175_08032022,1,2022_Aug_03_1805,test_typingtask_norepeats,2020.2.10,60.1755045
cheer,cheer,,,,,,,,,0,44,44,44,,,,,,,,,,,,,,,,,1059.317287,None,"['c', 'h', 'e', 'e', 'r']",1,"[0.74776595000003, 0.9237130550027359, 1.0757233390031615, 1.1877100950077875, 1.3477498420106713]",1059.317287,None,1059.317342,1059.417237,s175_08032022,1,2022_Aug_03_1805,test_typingtask_norepeats,2020.2.10,60.1755045
belly,belly,,,,,,,,,0,45,45,45,,,,,,,,,,,,,,,,,1064.81844,None,"['b', 'e', 'l', 'l', 'y']",1,"[0.7506138010066934, 0.9106346689950442, 1.1665831249993062, 1.3026225659996271, 1.446602277996135]",1064.81844,None,1064.817492,1064.917201,s175_08032022,1,2022_Aug_03_1805,test_typingtask_norepeats,2020.2.10,60.1755045
theme,theme,,,,,,,,,0,46,46,46,,,,,,,,,,,,,,,,,1070.33388,None,"['t', 'h', 'e', 'm', 'e']",1,"[0.7151745720038889, 0.7951870020042406, 0.915177961011068, 1.0751219100056915, 1.171122056999593]",1070.33388,None,1070.33405,1070.433847,s175_08032022,1,2022_Aug_03_1805,test_typingtask_norepeats,2020.2.10,60.1755045
there,there,,,,,,,,,0,47,47,47,,,,,,,,,,,,,,,,,1075.834093,None,"['t', 'h', 'e', 'r', 'r', 'e']",0,"[0.7189682620082749, 0.7989493839995703, 0.9589163729979191, 1.0949723469966557, 1.2309382550010923, 1.2389107830094872]",1075.834093,None,1075.83411,1075.9343,s175_08032022,1,2022_Aug_03_1805,test_typingtask_norepeats,2020.2.10,60.1755045
edthe,edthe,,,,,,,,,0,48,48,48,,,,,,,,,,,,,,,,,1081.333989,None,"['e', 'd', 't', 'h', 'e']",1,"[0.8270186980080325, 1.0030662150093121, 1.2270259520009859, 1.331063992009149, 1.4430236519983737]",1081.333989,None,1081.333951,1081.433784,s175_08032022,1,2022_Aug_03_1805,test_typingtask_norepeats,2020.2.10,60.1755045
vodka,vodka,,,,,,,,,0,49,49,49,,,,,,,,,,,,,,,,,1086.834252,None,"['v', 'o', 'd', 'k', 'a']",1,"[0.8387511499895481, 1.0307517499895766, 1.3348057229886763, 1.4787560289987596, 1.6387486879975768]",1086.834252,None,1086.834051,1086.933812,s175_08032022,1,2022_Aug_03_1805,test_typingtask_norepeats,2020.2.10,60.1755045
therm,therm,,,,,,,,,0,50,50,50,,,,,,,,,,,,,,,,,1092.334138,None,"['t', 'h', 'e', 'r', 'm']",1,"[0.7469263400125783, 0.8189159180037677, 0.9469101840077201, 1.0908617860113736, 1.2189329680113588]",1092.334138,None,1092.334036,1092.433945,s175_08032022,1,2022_Aug_03_1805,test_typingtask_norepeats,2020.2.10,60.1755045
kremp,kremp,,,,,,,,,0,51,51,51,,,,,,,,,,,,,,,,,1097.834671,None,"['k', 'r', 'e', 'm', 'p']",1,"[0.8383345170004759, 1.030328221997479, 1.198374565996346, 1.3024043710029218, 1.5663328990049195]",1097.834671,None,1097.834578,1097.934254,s175_08032022,1,2022_Aug_03_1805,test_typingtask_norepeats,2020.2.10,60.1755045
puppy,puppy,,,,,,,,,0,52,52,52,,,,,,,,,,,,,,,,,1103.334276,None,"['p', 'u', 'p', 'p', 'y']",1,"[0.7627916599885793, 1.050821469994844, 1.3707267559948377, 1.5067264809913468, 1.7067264059878653]",1103.334276,None,1103.333899,1103.433883,s175_08032022,1,2022_Aug_03_1805,test_typingtask_norepeats,2020.2.10,60.1755045
cooed,cooed,,,,,,,,,0,53,53,53,,,,,,,,,,,,,,,,,1108.834109,None,"['c', 'o', 'o', 'e', 'd']",1,"[0.7588978720013984, 0.9268987380055478, 1.0708963119977852, 1.1189681910036597, 1.2869336270086933]",1108.834109,None,1108.834157,1108.934002,s175_08032022,1,2022_Aug_03_1805,test_typingtask_norepeats,2020.2.10,60.1755045
tithe,tithe,,,,,,,,,0,54,54,54,,,,,,,,,,,,,,,,,1114.334349,None,"['t', 'i', 't', 'h', 'e']",1,"[0.7626954750012374, 0.9066530919953948, 1.0426701419928577, 1.1306589320010971, 1.2506619129999308]",1114.334349,None,1114.334138,1114.433865,s175_08032022,1,2022_Aug_03_1805,test_typingtask_norepeats,2020.2.10,60.1755045
edthe,edthe,,,,,,,,,0,55,55,55,,,,,,,,,,,,,,,,,1119.834231,None,"['e', 'd', 't', 'h', 'e']",1,"[0.7348235170065891, 0.9188453130045673, 1.174776647996623, 1.2628211870032828, 1.3747862400050508]",1119.834231,None,1119.834166,1119.934157,s175_08032022,1,2022_Aug_03_1805,test_typingtask_norepeats,2020.2.10,60.1755045
champ,champ,,,,,,,,,0,56,56,56,,,,,,,,,,,,,,,,,1125.334208,None,"['c', 'h', 'a', 'm', 'p']",1,"[0.7068020430015167, 0.8108571030024905, 0.9628648619982414, 1.0188700830040034, 1.426843719003955]",1125.334208,None,1125.334088,1125.433987,s175_08032022,1,2022_Aug_03_1805,test_typingtask_norepeats,2020.2.10,60.1755045
about,about,,,,,,,,,0,57,57,57,,,,,,,,,,,,,,,,,1130.834239,None,"['a', 'b', 'o', 'u', 't']",1,"[0.7747522290010238, 0.8787604719982482, 1.182831090001855, 1.3988319999916712, 1.486752766999416]",1130.834239,None,1130.834068,1130.934623,s175_08032022,1,2022_Aug_03_1805,test_typingtask_norepeats,2020.2.10,60.1755045
edthe,edthe,,,,,,,,,0,58,58,58,,,,,,,,,,,,,,,,,1136.334082,None,"['e', 'd', 't', 'h', 'w', 'e']",0,"[0.7069181359984213, 0.8829637419985374, 1.0829657690046588, 1.1469688289944315, 1.2509376240050187, 1.2509376240050187]",1136.334082,None,1136.334031,1136.434447,s175_08032022,1,2022_Aug_03_1805,test_typingtask_norepeats,2020.2.10,60.1755045
faqir,faqir,,,,,,,,,0,59,59,59,,,,,,,,,,,,,,,,,1141.834171,None,"['f', 'a', 'q', 'i', 'r']",1,"[0.9029185819963459, 1.0308117519889493, 1.2068095579888904, 1.5748424669873202, 1.694880775990896]",1141.834171,None,1141.834017,1141.93391,s175_08032022,1,2022_Aug_03_1805,test_typingtask_norepeats,2020.2.10,60.1755045
champ,champ,,,,,,,,,0,60,60,60,,,,,,,,,,,,,,,,,1147.33414,None,"['c', 'h', 'a', 'm', 'p']",1,"[0.7788643579988275, 0.9388632710033562, 1.08291580399964, 1.1629115440009627, 1.5548915240069618]",1147.33414,None,1147.334038,1147.43394,s175_08032022,1,2022_Aug_03_1805,test_typingtask_norepeats,2020.2.10,60.1755045
puppy,puppy,,,,,,,,,0,61,61,61,,,,,,,,,,,,,,,,,1152.834823,None,"['p', 'u', 'p', 'p', 'y']",1,"[0.8061780060088495, 1.7022581460041692, 2.10225235701364, 2.2381809480139054, 2.534248378011398]",1152.834823,None,1152.834251,1152.933911,s175_08032022,1,2022_Aug_03_1805,test_typingtask_norepeats,2020.2.10,60.1755045
zibja,zibja,,,,,,,,,0,62,62,62,,,,,,,,,,,,,,,,,1158.334924,None,"['z', 'i', 'b', 'j', 'a']",1,"[0.9461032129911473, 1.0420836819976103, 1.3300768549961504, 1.5942179229896283, 1.698142156994436]",1158.334924,None,1158.334097,1158.434247,s175_08032022,1,2022_Aug_03_1805,test_typingtask_norepeats,2020.2.10,60.1755045
think,think,,,,,,,,,0,63,63,63,,,,,,,,,,,,,,,,,1163.834241,None,"['t', 'h', 'i', 'n', 'k']",1,"[0.7427662889967905, 0.790759547991911, 1.0707607029908104, 1.2387614489998668, 1.3587701829965226]",1163.834241,None,1163.834061,1163.933895,s175_08032022,1,2022_Aug_03_1805,test_typingtask_norepeats,2020.2.10,60.1755045
pykka,pykka,,,,,,,,,0,64,64,64,,,,,,,,,,,,,,,,,1169.334224,None,"['p', 'u']",0,"[0.882843237995985, 1.4907789499993669]",1169.334224,None,1169.334257,1169.43395,s175_08032022,1,2022_Aug_03_1805,test_typingtask_norepeats,2020.2.10,60.1755045
theme,theme,,,,,,,,,0,65,65,65,,,,,,,,,,,,,,,,,1174.834237,None,"['t', 'h', 'e', 'm', 'e']",1,"[0.7587700559961377, 0.8307553139893571, 0.9507705799915129, 1.0387631449993933, 1.1667627779970644]",1174.834237,None,1174.834035,1174.934025,s175_08032022,1,2022_Aug_03_1805,test_typingtask_norepeats,2020.2.10,60.1755045
buddy,buddy,,,,,,,,,0,66,66,66,,,,,,,,,,,,,,,,,1180.33418,None,"['b', 'u', 'd', 'd', 'y']",1,"[1.0428444409917574, 1.3388221839995822, 1.5788257270032773, 1.69889307799167, 1.8268797749915393]",1180.33418,None,1180.334146,1180.434079,s175_08032022,1,2022_Aug_03_1805,test_typingtask_norepeats,2020.2.10,60.1755045
vanru,vanru,,,,,,,,,0,67,67,67,,,,,,,,,,,,,,,,,1185.834391,None,"['v', 'a', 'n', 'r', 'u']",1,"[1.1426149909966625, 1.262665197995375, 1.6146558780019404, 1.8706353040033719, 2.030661284996313]",1185.834391,None,1185.834166,1185.93483,s175_08032022,1,2022_Aug_03_1805,test_typingtask_norepeats,2020.2.10,60.1755045
zibja,zibja,,,,,,,,,0,68,68,68,,,,,,,,,,,,,,,,,1191.334148,None,"['z', 'i', 'b', 'j', 'a']",1,"[0.8748513430036837, 1.0989018359978218, 1.442867670004489, 1.770855141003267, 1.8908481340040453]",1191.334148,None,1191.334269,1191.434311,s175_08032022,1,2022_Aug_03_1805,test_typingtask_norepeats,2020.2.10,60.1755045
would,would,,,,,,,,,0,69,69,69,,,,,,,,,,,,,,,,,1196.834236,None,"['w', 'o', 'u', 'l', 'd']",1,"[0.8307639209961053, 1.0227557339967461, 1.262803935998818, 1.4948267470026622, 1.6147913500026334]",1196.834236,None,1196.834336,1196.934136,s175_08032022,1,2022_Aug_03_1805,test_typingtask_norepeats,2020.2.10,60.1755045
haole,haole,,,,,,,,,0,70,70,70,,,,,,,,,,,,,,,,,1202.33437,None,"['h', 'a', 'o', 'l', 'e']",1,"[0.7386343160032993, 1.1306690250057727, 1.2666347510094056, 1.4107069700112334, 1.4906296930130338]",1202.33437,None,1202.33453,1202.434137,s175_08032022,1,2022_Aug_03_1805,test_typingtask_norepeats,2020.2.10,60.1755045
there,there,,,,,,,,,0,71,71,71,,,,,,,,,,,,,,,,,1207.834582,None,"['t', 'h', 'e', 'r', 'e']",1,"[0.7424374700058252, 0.8064179500070168, 0.9664184150024084, 1.1184924990084255, 1.2464673979993677]",1207.834582,None,1207.834207,1207.934098,s175_08032022,1,2022_Aug_03_1805,test_typingtask_norepeats,2020.2.10,60.1755045
haole,haole,,,,,,,,,0,72,72,72,,,,,,,,,,,,,,,,,1213.333972,None,"['h', 'a', 'o', 'l', 'e']",1,"[0.8030771090125199, 0.9710274070093874, 1.1550309610029217, 1.323030106999795, 1.3790395590040134]",1213.333972,None,1213.334355,1213.433998,s175_08032022,1,2022_Aug_03_1805,test_typingtask_norepeats,2020.2.10,60.1755045
think,think,,,,,,,,,0,73,73,73,,,,,,,,,,,,,,,,,1218.83438,None,"['t', 'h', 'i', 'n', 'k']",1,"[0.7586419510043925, 0.8306000970042078, 1.0546018210006878, 1.2225976010086015, 1.3506140820099972]",1218.83438,None,1218.834137,1218.934115,s175_08032022,1,2022_Aug_03_1805,test_typingtask_norepeats,2020.2.10,60.1755045
pykka,pykka,,,,,,,,,0,74,74,74,,,,,,,,,,,,,,,,,1224.334213,None,"['p', 'y', 'k', 'k', 'a']",1,"[0.9707921289955266, 1.5868463729857467, 1.9227921639976557, 2.058787408997887, 2.162875896989135]",1224.334213,None,1224.334233,1224.434002,s175_08032022,1,2022_Aug_03_1805,test_typingtask_norepeats,2020.2.10,60.1755045
therm,therm,,,,,,,,,0,75,75,75,,,,,,,,,,,,,,,,,1229.834341,None,"['t', 'h', 'e', 'm', 'r']",0,"[0.8147096840111772, 0.8867090710118646, 1.038661957005388, 1.2066608940076549, 1.214718636998441]",1229.834341,None,1229.834253,1229.933905,s175_08032022,1,2022_Aug_03_1805,test_typingtask_norepeats,2020.2.10,60.1755045
vanru,vanru,,,,,,,,,0,76,76,76,,,,,,,,,,,,,,,,,1235.334483,None,"['v', 'a', 'n', 'r', 'u']",1,"[1.0665259079978568, 1.186578452005051, 1.354523510002764, 1.6585210549965268, 1.7946274940040894]",1235.334483,None,1235.334192,1235.434194,s175_08032022,1,2022_Aug_03_1805,test_typingtask_norepeats,2020.2.10,60.1755045
champ,champ,,,,,,,,,0,77,77,77,,,,,,,,,,,,,,,,,1240.834443,None,"['c', 'h', 'a', 'm', 'p']",1,"[0.710608259003493, 0.8146202710049693, 0.9745592510007555, 1.0305630220100284, 1.3745624489965849]",1240.834443,None,1240.834185,1240.934571,s175_08032022,1,2022_Aug_03_1805,test_typingtask_norepeats,2020.2.10,60.1755045
pykka,pykka,,,,,,,,,0,78,78,78,,,,,,,,,,,,,,,,,1246.334445,None,"['p', 'y', 'j', 'k', 'a']",0,"[0.8186077290010871, 1.3866145219944883, 1.74660123900685, 1.9225603219965706, 2.1626106490002712]",1246.334445,None,1246.334183,1246.434038,s175_08032022,1,2022_Aug_03_1805,test_typingtask_norepeats,2020.2.10,60.1755045
would,would,,,,,,,,,0,79,79,79,,,,,,,,,,,,,,,,,1251.834434,None,"['w', 'o', 'u', 'l', 'd']",1,"[0.8225596889969893, 1.0545611359993927, 1.2946201169979759, 1.518609238002682, 1.6306050639977911]",1251.834434,None,1251.834188,1251.934248,s175_08032022,1,2022_Aug_03_1805,test_typingtask_norepeats,2020.2.10,60.1755045
belly,belly,,,,,,,,,0,80,80,80,,,,,,,,,,,,,,,,,1257.33444,None,"['b', 'e', 'l', 'l', 'y']",1,"[0.8026593009999488, 0.9705599389999406, 1.3065602610004134, 1.44257079999079, 1.5545631299901288]",1257.33444,None,1257.334398,1257.434074,s175_08032022,1,2022_Aug_03_1805,test_typingtask_norepeats,2020.2.10,60.1755045
heond,heond,,,,,,,,,0,81,81,81,,,,,,,,,,,,,,,,,1262.834653,None,"['h', 'e', 'o', 'n', 'd']",1,"[0.750351987007889, 0.9263601819984615, 1.1824225620075595, 1.3903486339986557, 1.5263771750032902]",1262.834653,None,1262.834774,1262.934268,s175_08032022,1,2022_Aug_03_1805,test_typingtask_norepeats,2020.2.10,60.1755045
druze,druze,,,,,,,,,0,82,82,82,,,,,,,,,,,,,,,,,1268.334317,None,"['d', 'r', 'u', 'z', 'e']",1,"[0.8506940289953491, 1.0189002480037743, 1.298730638998677, 1.6347325020033168, 1.8426907579996623]",1268.334317,None,1268.334214,1268.434055,s175_08032022,1,2022_Aug_03_1805,test_typingtask_norepeats,2020.2.10,60.1755045
puppy,puppy,,,,,,,,,0,83,83,83,,,,,,,,,,,,,,,,,1273.834397,None,"['p', 'u', 'p', 'p', 'y']",1,"[0.8146042370062787, 1.110665259999223, 1.4466894820070593, 1.5666127709991997, 1.7426110689993948]",1273.834397,None,1273.834267,1273.934258,s175_08032022,1,2022_Aug_03_1805,test_typingtask_norepeats,2020.2.10,60.1755045
edthe,edthe,,,,,,,,,0,84,84,84,,,,,,,,,,,,,,,,,1279.334498,None,"['e', 'd', 't', 'h', 'w', 'e']",0,"[0.7305079039942939, 0.8905074299982516, 1.074509523998131, 1.1545075089961756, 1.2745102339977166, 1.2745102339977166]",1279.334498,None,1279.33443,1279.434347,s175_08032022,1,2022_Aug_03_1805,test_typingtask_norepeats,2020.2.10,60.1755045
kremp,kremp,,,,,,,,,0,85,85,85,,,,,,,,,,,,,,,,,1284.834814,None,"['k', 'r', 'e', 'm', 'p']",1,"[0.8781807920022402, 1.0462258530023973, 1.2142141060030553, 1.2942732889932813, 1.5582214589958312]",1284.834814,None,1284.834392,1284.934142,s175_08032022,1,2022_Aug_03_1805,test_typingtask_norepeats,2020.2.10,60.1755045
zibja,zibja,,,,,,,,,0,86,86,86,,,,,,,,,,,,,,,,,1290.334442,None,"['z', 'i', 'b', 'j', 'a']",1,"[0.8985826519929105, 1.0826030040043406, 1.554543026999454, 1.7465926900040358, 1.8986138479958754]",1290.334442,None,1290.334182,1290.434089,s175_08032022,1,2022_Aug_03_1805,test_typingtask_norepeats,2020.2.10,60.1755045
would,would,,,,,,,,,0,87,87,87,,,,,,,,,,,,,,,,,1295.83413,None,"['w', 'o', 'u', 'l', 'd']",1,"[0.830921169006615, 0.9668732490099501, 1.19891569801257, 1.3908816640032455, 1.510947116999887]",1295.83413,None,1295.834361,1295.9347,s175_08032022,1,2022_Aug_03_1805,test_typingtask_norepeats,2020.2.10,60.1755045
cheer,cheer,,,,,,,,,0,88,88,88,,,,,,,,,,,,,,,,,1301.334423,None,"['c', 'h', 'e', 'e', 'r']",1,"[0.7065824029996293, 0.8186304029950406, 0.9946465789980721, 1.1225827640009811, 1.274579981007264]",1301.334423,None,1301.334491,1301.43421,s175_08032022,1,2022_Aug_03_1805,test_typingtask_norepeats,2020.2.10,60.1755045
tithe,tithe,,,,,,,,,0,89,89,89,,,,,,,,,,,,,,,,,1306.834466,None,"['t', 'i', 't', 'h', 'e']",1,"[0.7265524469985394, 0.8385392359923571, 0.9105515919945901, 1.062586891988758, 1.1425400389998686]",1306.834466,None,1306.834274,1306.934067,s175_08032022,1,2022_Aug_03_1805,test_typingtask_norepeats,2020.2.10,60.1755045
belly,belly,,,,,,,,,0,90,90,90,,,,,,,,,,,,,,,,,1312.334555,None,"['b', 'e', 'l', 'l', 'y']",1,"[0.9064626689942088, 1.0345266299991636, 1.3544480919954367, 1.4744492399913725, 1.6024974570027553]",1312.334555,None,1312.334438,1312.434289,s175_08032022,1,2022_Aug_03_1805,test_typingtask_norepeats,2020.2.10,60.1755045
therm,therm,,,,,,,,,0,91,91,91,,,,,,,,,,,,,,,,,1317.834386,None,"['t', 'h', 'e', 'r', 'm']",1,"[0.7106342039915035, 0.8066465479932958, 0.9346667849895312, 1.094685453994316, 1.1667089089896763]",1317.834386,None,1317.834994,1317.934162,s175_08032022,1,2022_Aug_03_1805,test_typingtask_norepeats,2020.2.10,60.1755045
think,think,,,,,,,,,0,92,92,92,,,,,,,,,,,,,,,,,1323.334353,None,"['t', 'h', 'i', 'h', 'n', 'k']",0,"[0.6426590690098237, 0.7066798910091165, 0.8987211019993993, 1.1386482539965073, 1.1386482539965073, 1.2987179680058034]",1323.334353,None,1323.334438,1323.434288,s175_08032022,1,2022_Aug_03_1805,test_typingtask_norepeats,2020.2.10,60.1755045
cheer,cheer,,,,,,,,,0,93,93,93,,,,,,,,,,,,,,,,,1328.834473,None,"['c', 'h', 'e', 'e', 'r']",1,"[0.6785350569989532, 0.8385598610038869, 0.9745598790032091, 1.1025803959928453, 1.2545329760032473]",1328.834473,None,1328.834565,1328.934121,s175_08032022,1,2022_Aug_03_1805,test_typingtask_norepeats,2020.2.10,60.1755045
druze,druze,,,,,,,,,0,94,94,94,,,,,,,,,,,,,,,,,1334.334326,None,"['d', 'r', 'u', 'z', 'e']",1,"[0.7948028870014241, 0.9787165750021813, 1.2027357289916836, 1.602740909991553, 1.8987209789920598]",1334.334326,None,1334.334537,1334.434302,s175_08032022,1,2022_Aug_03_1805,test_typingtask_norepeats,2020.2.10,60.1755045
about,about,,,,,,,,,0,95,95,95,,,,,,,,,,,,,,,,,1339.834426,None,"['a', 'b', 'o', 'u', 't']",1,"[0.7186315589933656, 0.8146184520010138, 1.1346003929938888, 1.3425852939981269, 1.4305832980026025]",1339.834426,None,1339.834601,1339.934347,s175_08032022,1,2022_Aug_03_1805,test_typingtask_norepeats,2020.2.10,60.1755045
vodka,vodka,,,,,,,,,0,96,96,96,,,,,,,,,,,,,,,,,1345.334773,None,"['v', 'o', 'd', 'k', 'a']",1,"[1.0102286470064428, 1.1222555980057223, 1.698305234007421, 1.7943082640122157, 1.9782933420065092]",1345.334773,None,1345.334356,1345.434296,s175_08032022,1,2022_Aug_03_1805,test_typingtask_norepeats,2020.2.10,60.1755045
belly,belly,,,,,,,,,0,97,97,97,,,,,,,,,,,,,,,,,1350.834586,None,"['b', 'e', 'l', 'l', 'y']",1,"[0.8704283480037702, 1.0224116540048271, 1.2544473000016296, 1.4144182590098353, 1.4945099370088428]",1350.834586,None,1350.834387,1350.935022,s175_08032022,1,2022_Aug_03_1805,test_typingtask_norepeats,2020.2.10,60.1755045
vanru,vanru,,,,,,,,,0,98,98,98,,,,,,,,,,,,,,,,,1356.336109,None,"['v', 'a', 'n', 'r', 'u']",1,"[0.9288967419997789, 1.0249107550043846, 1.248898083998938, 1.4728934519953327, 1.816943170997547]",1356.336109,None,1356.334636,1356.434188,s175_08032022,1,2022_Aug_03_1805,test_typingtask_norepeats,2020.2.10,60.1755045
cooed,cooed,,,,,,,,,0,99,99,99,,,,,,,,,,,,,,,,,1361.834902,None,"['c', 'o', 'o', 'e', 'd']",1,"[0.6941979310067836, 0.8381074560020352, 0.9741026210103882, 1.0621119150018785, 1.2140988590108464]",1361.834902,None,1361.834417,1361.934381,s175_08032022,1,2022_Aug_03_1805,test_typingtask_norepeats,2020.2.10,60.1755045
cheer,cheer,,,,,,,,,0,100,100,100,,,,,,,,,,,,,,,,,1367.334293,None,"['c', 'h', 'e', 'e', 'r']",1,"[0.6507341879914748, 0.7547105709963944, 0.8988249739923049, 1.0267204959964147, 1.1867724850017112]",1367.334293,None,1367.334365,1367.434189,s175_08032022,1,2022_Aug_03_1805,test_typingtask_norepeats,2020.2.10,60.1755045
faqir,faqir,,,,,,,,,0,101,101,101,,,,,,,,,,,,,,,,,1372.834731,None,"['f', 'a', 'q', 'i', 'r']",1,"[0.894375781994313, 1.0302677620056784, 1.2062743660062551, 1.5742685470031574, 1.6782739040063461]",1372.834731,None,1372.834545,1372.934126,s175_08032022,1,2022_Aug_03_1805,test_typingtask_norepeats,2020.2.10,60.1755045
lucky,lucky,,,,,,,,,0,102,102,102,,,,,,,,,,,,,,,,,1378.334518,None,"['l', 'u', 'c', 'k', 'y']",1,"[0.778493810998043, 1.0584833600005368, 1.298539092997089, 1.370532444998389, 1.69853217099444]",1378.334518,None,1378.33443,1378.434384,s175_08032022,1,2022_Aug_03_1805,test_typingtask_norepeats,2020.2.10,60.1755045
belly,belly,,,,,,,,,0,103,103,103,,,,,,,,,,,,,,,,,1383.83469,None,"['b', 'e', 'l', 'l', 'y']",1,"[0.7103127620066516, 0.8623153220105451, 1.118398108999827, 1.2543151460122317, 1.3583124639990274]",1383.83469,None,1383.834549,1383.934436,s175_08032022,1,2022_Aug_03_1805,test_typingtask_norepeats,2020.2.10,60.1755045
theme,theme,,,,,,,,,0,104,104,104,,,,,,,,,,,,,,,,,1389.336324,None,"['t', 'h', 'e', 'm', 'e']",1,"[0.7366594070044812, 0.8086588800069876, 0.952667844001553, 1.0486590939981397, 1.1606615259952378]",1389.336324,None,1389.335124,1389.434812,s175_08032022,1,2022_Aug_03_1805,test_typingtask_norepeats,2020.2.10,60.1755045
haole,haole,,,,,,,,,0,105,105,105,,,,,,,,,,,,,,,,,1394.851258,None,"['h', 'a', 'o', 'l', 'e']",1,"[0.7658131060015876, 1.253753406010219, 1.5417434350092662, 1.6937986250122776, 1.7657879990001675]",1394.851258,None,1394.851121,1394.951057,s175_08032022,1,2022_Aug_03_1805,test_typingtask_norepeats,2020.2.10,60.1755045
vanru,vanru,,,,,,,,,0,106,106,106,,,,,,,,,,,,,,,,,1400.351381,None,"['b', 'v', 'a', 'n', 'r', 'u']",0,"[0.8976224249927327, 1.7537012609973317, 1.9456250579969492, 2.2176328859932255, 2.449685044994112, 2.6176841120031895]",1400.351381,None,1400.351071,1400.451032,s175_08032022,1,2022_Aug_03_1805,test_typingtask_norepeats,2020.2.10,60.1755045
buddy,buddy,,,,,,,,,0,107,107,107,,,,,,,,,,,,,,,,,1405.851601,None,"['b', 'u', 'd', 'd', 'y']",1,"[0.6774563619983383, 1.125412415000028, 1.389430324008572, 1.5014752179995412, 1.5814833790063858]",1405.851601,None,1405.851273,1405.951741,s175_08032022,1,2022_Aug_03_1805,test_typingtask_norepeats,2020.2.10,60.1755045
think,think,,,,,,,,,0,108,108,108,,,,,,,,,,,,,,,,,1411.351113,None,"['t', 'h', 'i', 'n', 'k']",1,"[0.7218447839986766, 0.7779376109974692, 1.0258528779959306, 1.1779023749986663, 1.3218486649857368]",1411.351113,None,1411.351237,1411.451165,s175_08032022,1,2022_Aug_03_1805,test_typingtask_norepeats,2020.2.10,60.1755045
kremp,kremp,,,,,,,,,0,109,109,109,,,,,,,,,,,,,,,,,1416.85104,None,"['k', 'r', 'e', 'm', 'p']",1,"[0.8059884660033276, 1.0059596789942589, 1.1660326580022229, 1.2619883339939406, 1.4780859329912346]",1416.85104,None,1416.851006,1416.950948,s175_08032022,1,2022_Aug_03_1805,test_typingtask_norepeats,2020.2.10,60.1755045
faqir,faqir,,,,,,,,,0,110,110,110,,,,,,,,,,,,,,,,,1422.351705,None,"['f', 'a', 'q', 'i', 'r']",1,"[0.9613056000089273, 1.2732927309989464, 1.4653395200002706, 1.8013440040085698, 1.8732923600036884]",1422.351705,None,1422.351142,1422.450864,s175_08032022,1,2022_Aug_03_1805,test_typingtask_norepeats,2020.2.10,60.1755045
champ,champ,,,,,,,,,0,111,111,111,,,,,,,,,,,,,,,,,1427.851085,None,"['c', 'h', 'a', 'm', 'p']",1,"[0.6859867939929245, 0.7899168650037609, 0.9579142860020511, 1.06193519399676, 1.381957154997508]",1427.851085,None,1427.851302,1427.951085,s175_08032022,1,2022_Aug_03_1805,test_typingtask_norepeats,2020.2.10,60.1755045
druze,druze,,,,,,,,,0,112,112,112,,,,,,,,,,,,,,,,,1433.351306,None,"['d', 'r', 'u', 'z', 'e']",1,"[0.7936965109984158, 0.9777572629973292, 1.249757564990432, 1.5376962459995411, 1.753768422990106]",1433.351306,None,1433.351184,1433.451002,s175_08032022,1,2022_Aug_03_1805,test_typingtask_norepeats,2020.2.10,60.1755045
heond,heond,,,,,,,,,0,113,113,113,,,,,,,,,,,,,,,,,1438.851291,None,"['h', 'e', 'o', 'n', 'd']",1,"[0.7977145110053243, 1.0778076620044885, 1.1737726690043928, 1.3657816009945236, 1.5017732510023052]",1438.851291,None,1438.851146,1438.951038,s175_08032022,1,2022_Aug_03_1805,test_typingtask_norepeats,2020.2.10,60.1755045
lucky,lucky,,,,,,,,,0,114,114,114,,,,,,,,,,,,,,,,,1444.351375,None,"['l', 'u', 'c', 'k', 'y']",1,"[0.7216230360063491, 1.00963118999789, 1.2736208810092648, 1.345624621011666, 1.5616386150068138]",1444.351375,None,1444.351205,1444.451044,s175_08032022,1,2022_Aug_03_1805,test_typingtask_norepeats,2020.2.10,60.1755045
buddy,buddy,,,,,,,,,0,115,115,115,,,,,,,,,,,,,,,,,1449.851487,None,"['b', 'u', 'd', 'd', 'y']",1,"[1.0295592129987199, 1.4535273980000056, 1.685572839996894, 1.805514444000437, 1.90952743399248]",1449.851487,None,1449.851159,1449.951017,s175_08032022,1,2022_Aug_03_1805,test_typingtask_norepeats,2020.2.10,60.1755045
zibja,zibja,,,,,,,,,0,116,116,116,,,,,,,,,,,,,,,,,1455.351253,None,"['z', 'i', 'b', 'j', 'a']",1,"[0.9297980569972424, 1.273755447997246, 1.5377639689977514, 1.7377528869983507, 1.857754771001055]",1455.351253,None,1455.351242,1455.451096,s175_08032022,1,2022_Aug_03_1805,test_typingtask_norepeats,2020.2.10,60.1755045
puppy,puppy,,,,,,,,,0,117,117,117,,,,,,,,,,,,,,,,,1460.851317,None,"['p', 'u', 'p', 'p', 'y']",1,"[0.7417002650036011, 1.029734712006757, 1.30969182800618, 1.4297393380111316, 1.6056865569989895]",1460.851317,None,1460.851333,1460.951609,s175_08032022,1,2022_Aug_03_1805,test_typingtask_norepeats,2020.2.10,60.1755045
cooed,cooed,,,,,,,,,0,118,118,118,,,,,,,,,,,,,,,,,1466.351265,None,"['c', 'o', 'o', 'e', 'd']",1,"[0.7457386909954948, 0.865781340005924, 1.001821548998123, 1.0817794120084727, 1.241742914004135]",1466.351265,None,1466.351342,1466.451059,s175_08032022,1,2022_Aug_03_1805,test_typingtask_norepeats,2020.2.10,60.1755045
lucky,lucky,,,,,,,,,0,119,119,119,,,,,,,,,,,,,,,,,1471.85133,None,"['l', 'u', 'c', 'k', 'y']",1,"[0.7017745860066498, 0.9817217200034065, 1.229724630000419, 1.3096912000037264, 1.5017352279974148]",1471.85133,None,1471.851305,1471.951225,s175_08032022,1,2022_Aug_03_1805,test_typingtask_norepeats,2020.2.10,60.1755045