string,corrAns,practice_trials.thisRepN,practice_trials.thisTrialN,practice_trials.thisN,practice_trials.thisIndex,trials_1.thisRepN,trials_1.thisTrialN,trials_1.thisN,trials_1.thisIndex,trials_2.thisRepN,trials_2.thisTrialN,trials_2.thisN,trials_2.thisIndex,key_resp_0.keys,key_resp_0.corr,key_resp_0.rt,text_1.started,text_1.stopped,key_resp_1.keys,key_resp_1.corr,key_resp_1.rt,key_resp_1.started,key_resp_1.stopped,sound_1A_1.started,sound_1A_1.stopped,break_time.started,break_time.stopped,text_2.started,text_2.stopped,key_resp_2.keys,key_resp_2.corr,key_resp_2.rt,key_resp_2.started,key_resp_2.stopped,sound_1A_2.started,sound_1A_2.stopped,participant,session,date,expName,psychopyVersion,frameRate,
fresh,fresh,0,0,0,0,,,,,,,,,"['f', 'r', 'e', 's', 'h', 'f']",0,"[0.9823689730837941, 1.1504794051870704, 1.3424230902455747, 1.5425264243967831, 1.6544776102527976, 3.390363642014563]",,,,,,,,,,,,,,,,,,,,,s178_08302022,001,2022_Aug_30_1314,test_typingtask_norepeats,2020.2.10,60.01283365007216,
dream,dream,0,1,1,1,,,,,,,,,"['d', 'r', 'e', 'a', 'm']",1,"[1.0848948690108955, 1.3008866556920111, 1.3649045717902482, 1.5970316748134792, 1.6848956919275224]",,,,,,,,,,,,,,,,,,,,,s178_08302022,001,2022_Aug_30_1314,test_typingtask_norepeats,2020.2.10,60.01283365007216,
slime,slime,0,2,2,2,,,,,,,,,"['s', 'l', 'i', 'm', 'e']",1,"[0.7451149690896273, 0.8170073539949954, 0.9930131388828158, 1.1691466020420194, 1.2010243288241327]",,,,,,,,,,,,,,,,,,,,,s178_08302022,001,2022_Aug_30_1314,test_typingtask_norepeats,2020.2.10,60.01283365007216,
haole,haole,,,,,0,0,0,0,,,,,,,,138.34911838592961,None,"['h', 'a', 'o', 'l', 'e']",1,"[0.9209377709776163, 0.9850102080963552, 1.3209365513175726, 1.5049433130770922, 1.5370159540325403]",138.34911838592961,None,138.3440651633311,138.44431455014274,,,,,,,,,,,,s178_08302022,001,2022_Aug_30_1314,test_typingtask_norepeats,2020.2.10,60.01283365007216,
theme,theme,,,,,0,1,1,1,,,,,,,,143.84373874822631,None,"['t', 'h', 'e', 'm', 'e']",1,"[0.7463249629363418, 0.7943653529509902, 0.9623293671756983, 1.0343167930841446, 1.1304526161402464]",143.84373874822631,None,143.84376200805417,143.94395922729746,,,,,,,,,,,,s178_08302022,001,2022_Aug_30_1314,test_typingtask_norepeats,2020.2.10,60.01283365007216,
druze,druze,,,,,0,2,2,2,,,,,,,,149.34379470720887,None,"['d', 'r', 'u', 'z', 'e']",1,"[0.7102804123423994, 0.8703810209408402, 0.9743217742070556, 1.2383676953613758, 1.5023632431402802]",149.34379470720887,None,149.34383926312438,149.44380113715306,,,,,,,,,,,,s178_08302022,001,2022_Aug_30_1314,test_typingtask_norepeats,2020.2.10,60.01283365007216,
vanru,vanru,,,,,0,3,3,3,,,,,,,,154.84382461430505,None,"['v', 'a', 'n', 'r', 'u']",1,"[0.81827502977103, 0.8823357438668609, 1.0822943788953125, 1.2582465531304479, 1.3703475538641214]",154.84382461430505,None,154.8439132054802,154.94385903514922,,,,,,,,,,,,s178_08302022,001,2022_Aug_30_1314,test_typingtask_norepeats,2020.2.10,60.01283365007216,
lucky,lucky,,,,,0,4,4,4,,,,,,,,160.34394241124392,None,"['l', 'u', 'c', 'k', 'y']",1,"[0.8141813706606627, 1.3181224879808724, 1.4302191380411386, 1.550190765876323, 1.7501907236874104]",160.34394241124392,None,160.3439060771372,160.44380809692666,,,,,,,,,,,,s178_08302022,001,2022_Aug_30_1314,test_typingtask_norepeats,2020.2.10,60.01283365007216,
cheer,cheer,,,,,0,5,5,5,,,,,,,,165.8440068042837,None,"['c', 'h', 'e', 'e', 'r']",1,"[0.7140919561497867, 0.7781448201276362, 0.9621543623507023, 1.10616252431646, 1.2260528863407671]",165.8440068042837,None,165.8438399183098,165.94396796403453,,,,,,,,,,,,s178_08302022,001,2022_Aug_30_1314,test_typingtask_norepeats,2020.2.10,60.01283365007216,
tithe,tithe,,,,,0,6,6,6,,,,,,,,171.34407121222466,None,"['t', 'h', 'i', 't', 'h', 'e']",0,"[0.7739686197601259, 0.8700848980806768, 1.045988842844963, 1.174053966999054, 1.2702438798733056, 1.3500509890727699]",171.34407121222466,None,171.34379345136693,171.44404353294522,,,,,,,,,,,,s178_08302022,001,2022_Aug_30_1314,test_typingtask_norepeats,2020.2.10,60.01283365007216,
belly,belly,,,,,0,7,7,7,,,,,,,,176.8605752699077,None,"['b', 'e', 'l', 'l', 'y']",1,"[0.8254680573008955, 0.889547566883266, 1.1054718452505767, 1.2335164602845907, 1.2975980509072542]",176.8605752699077,None,176.86059336927718,176.96079212799668,,,,,,,,,,,,s178_08302022,001,2022_Aug_30_1314,test_typingtask_norepeats,2020.2.10,60.01283365007216,
therm,therm,,,,,0,8,8,8,,,,,,,,182.36070973426104,None,"['t', 'h', 'e', 'r', 'm']",1,"[0.7494156686589122, 0.7894606189802289, 0.9493542700074613, 1.0773532148450613, 1.1813515648245811]",182.36070973426104,None,182.36071509919128,182.46078020706773,,,,,,,,,,,,s178_08302022,001,2022_Aug_30_1314,test_typingtask_norepeats,2020.2.10,60.01283365007216,
cooed,cooed,,,,,0,9,9,9,,,,,,,,187.86072680493817,None,"['c', 'o', 'o', 'e', 'd']",1,"[0.75346521101892, 0.8813714142888784, 1.0173250949010253, 1.1693996540270746, 1.3374422462657094]",187.86072680493817,None,187.86070218547246,187.9607276902534,,,,,,,,,,,,s178_08302022,001,2022_Aug_30_1314,test_typingtask_norepeats,2020.2.10,60.01283365007216,
haole,haole,,,,,0,10,10,10,,,,,,,,193.36049161525443,None,"['h', 'a', 'o', 'l', 'e']",1,"[0.7976648500189185, 0.861618285998702, 1.0935575254261494, 1.285665494389832, 1.3175524901598692]",193.36049161525443,None,193.36071374644524,193.460580421146,,,,,,,,,,,,s178_08302022,001,2022_Aug_30_1314,test_typingtask_norepeats,2020.2.10,60.01283365007216,
faqir,faqir,,,,,0,11,11,11,,,,,,,,198.86057230923325,None,"['f', 'a', 'q', 'i', 'r']",1,"[0.9695665389299393, 1.1055551450699568, 1.6335883541032672, 1.8254936062730849, 1.9856026293709874]",198.86057230923325,None,198.86063936217687,198.9607100011781,,,,,,,,,,,,s178_08302022,001,2022_Aug_30_1314,test_typingtask_norepeats,2020.2.10,60.01283365007216,
vodka,vodka,,,,,0,12,12,12,,,,,,,,204.3604585789144,None,"['v', 'o', 'd', 'k', 'a']",1,"[0.8696629861369729, 0.9735814807936549, 1.173594077117741, 1.2696636491455138, 1.3656598501838744]",204.3604585789144,None,204.36032400703988,204.46055551385507,,,,,,,,,,,,s178_08302022,001,2022_Aug_30_1314,test_typingtask_norepeats,2020.2.10,60.01283365007216,
lucky,lucky,,,,,0,13,13,13,,,,,,,,209.86083922628313,None,"['l', 'u', 'c', 'k', 'y']",1,"[0.8493169234134257, 1.0732802441343665, 1.1613514414057136, 1.2733306312002242, 1.4412952973507345]",209.86083922628313,None,209.8605929492507,209.960714828223,,,,,,,,,,,,s178_08302022,001,2022_Aug_30_1314,test_typingtask_norepeats,2020.2.10,60.01283365007216,
champ,champ,,,,,0,14,14,14,,,,,,,,215.36060426710173,None,"['c', 'h', 'a', 'm', 'p']",1,"[0.7254387261345983, 0.7975069470703602, 0.893451586831361, 1.0135662541724741, 1.2375676548108459]",215.36060426710173,None,215.3605970642995,215.46063335519284,,,,,,,,,,,,s178_08302022,001,2022_Aug_30_1314,test_typingtask_norepeats,2020.2.10,60.01283365007216,
puppy,puppy,,,,,0,15,15,15,,,,,,,,220.8605816392228,None,"['p', 'u', 'p', 'p', 'y']",1,"[0.809474010951817, 1.0334797278046608, 1.2895504799671471, 1.4335467098280787, 1.5054712118580937]",220.8605816392228,None,220.86051289415917,220.96077685803175,,,,,,,,,,,,s178_08302022,001,2022_Aug_30_1314,test_typingtask_norepeats,2020.2.10,60.01283365007216,
edthe,edthe,,,,,0,16,16,16,,,,,,,,226.3609524979256,None,"['e', 'd', 't', 'h', 'e']",1,"[0.981190677266568, 1.181150084361434, 1.421106352005154, 1.4771462534554303, 1.6051853811368346]",226.3609524979256,None,226.3605609252583,226.460628580302,,,,,,,,,,,,s178_08302022,001,2022_Aug_30_1314,test_typingtask_norepeats,2020.2.10,60.01283365007216,
think,think,,,,,0,17,17,17,,,,,,,,231.86075936630368,None,"['t', 'h', 'i', 'n', 'k']",1,"[0.7533729621209204, 0.8092952100560069, 1.0012916191481054, 1.2093043462373316, 1.3932838179171085]",231.86075936630368,None,231.86062016808427,231.96062292996794,,,,,,,,,,,,s178_08302022,001,2022_Aug_30_1314,test_typingtask_norepeats,2020.2.10,60.01283365007216,
druze,druze,,,,,0,18,18,18,,,,,,,,237.36058618407696,None,"['d', 'r', 'u', 'z', 'e']",1,"[0.7574699600227177, 0.9335440169088542, 1.045592329930514, 1.2774944081902504, 1.541572199203074]",237.36058618407696,None,237.3605094342958,237.46052994020283,,,,,,,,,,,,s178_08302022,001,2022_Aug_30_1314,test_typingtask_norepeats,2020.2.10,60.01283365007216,
heond,heond,,,,,0,19,19,19,,,,,,,,242.86078142002225,None,"['h', 'e', 'o', 'n', 'd']",1,"[0.977289164904505, 1.0413868268951774, 1.2172578410245478, 1.4252755241468549, 1.497324817813933]",242.86078142002225,None,242.86073665511793,242.96079273102805,,,,,,,,,,,,s178_08302022,001,2022_Aug_30_1314,test_typingtask_norepeats,2020.2.10,60.01283365007216,
puppy,puppy,,,,,0,20,20,20,,,,,,,,248.3607078762725,None,"['p', 'u', 'p', 'p', 'y']",1,"[0.8054481223225594, 1.0054669450037181, 1.3654427281580865, 1.549450726248324, 1.6694441069848835]",248.3607078762725,None,248.36070741438306,248.46044824225828,,,,,,,,,,,,s178_08302022,001,2022_Aug_30_1314,test_typingtask_norepeats,2020.2.10,60.01283365007216,
zibja,zibja,,,,,0,21,21,21,,,,,,,,253.8613462690264,None,"['z', 'i', 'b', 'j', 'a']",1,"[1.0807461296208203, 1.1687979777343571, 1.3847266747616231, 1.5766950966790318, 1.648807122837752]",253.8613462690264,None,253.8607950872276,253.96058598905802,,,,,,,,,,,,s178_08302022,001,2022_Aug_30_1314,test_typingtask_norepeats,2020.2.10,60.01283365007216,
vanru,vanru,,,,,0,22,22,22,,,,,,,,259.36070933006704,None,"['v', 'a', 'n', 'r', 'u']",1,"[0.8293693694286048, 0.893361481372267, 1.0454412451945245, 1.181366837117821, 1.285358002409339]",259.36070933006704,None,259.36088631539604,259.46088808821514,,,,,,,,,,,,s178_08302022,001,2022_Aug_30_1314,test_typingtask_norepeats,2020.2.10,60.01283365007216,
buddy,buddy,,,,,0,23,23,23,,,,,,,,264.86063740123063,None,"['b', 'u', 'd', 'd', 'y']",1,"[0.7615336999297142, 0.9855257621966302, 1.1375441420823336, 1.273535646032542, 1.3615099340677261]",264.86063740123063,None,264.86077233408577,264.960714450106,,,,,,,,,,,,s178_08302022,001,2022_Aug_30_1314,test_typingtask_norepeats,2020.2.10,60.01283365007216,
there,there,,,,,0,24,24,24,,,,,,,,270.3608813532628,None,"['t', 'h', 'e', 'r', 'e']",1,"[0.7011620043776929, 0.7892924109473825, 0.8692884943448007, 0.9892395581118762, 1.0931808301247656]",270.3608813532628,None,270.3606288773473,270.4607023941353,,,,,,,,,,,,s178_08302022,001,2022_Aug_30_1314,test_typingtask_norepeats,2020.2.10,60.01283365007216,
belly,belly,,,,,0,25,25,25,,,,,,,,275.86064951028675,None,"['b', 'e', 'l', 'l', 'y']",1,"[0.7535179420374334, 0.8174002449959517, 1.0094009093008935, 1.1375189921818674, 1.1934010172262788]",275.86064951028675,None,275.86071318718604,275.960853563156,,,,,,,,,,,,s178_08302022,001,2022_Aug_30_1314,test_typingtask_norepeats,2020.2.10,60.01283365007216,
therm,therm,,,,,0,26,26,26,,,,,,,,281.3605842408724,None,"['t', 'h', 'e', 'r', 'm']",1,"[0.7095233714208007, 0.781513141002506, 0.8934700270183384, 0.9975196612067521, 1.1094688693992794]",281.3605842408724,None,281.3606848423835,281.46061933785677,,,,,,,,,,,,s178_08302022,001,2022_Aug_30_1314,test_typingtask_norepeats,2020.2.10,60.01283365007216,
zibja,zibja,,,,,0,27,27,27,,,,,,,,286.8608299428597,None,"['z', 'i', 'b', 'j', 'a']",1,"[1.1133224996738136, 1.1932552317157388, 1.4012231859378517, 1.5853403629735112, 1.66532824607566]",286.8608299428597,None,286.8607108020689,286.96092922706157,,,,,,,,,,,,s178_08302022,001,2022_Aug_30_1314,test_typingtask_norepeats,2020.2.10,60.01283365007216,
pykka,pykka,,,,,0,28,28,28,,,,,,,,292.3610164122656,None,"['p', 'y', 'k', 'k', 'a']",1,"[0.9090211498551071, 1.277031369972974, 1.5251262350939214, 1.6531184236519039, 1.709039004985243]",292.3610164122656,None,292.3606289211195,292.46076264511794,,,,,,,,,,,,s178_08302022,001,2022_Aug_30_1314,test_typingtask_norepeats,2020.2.10,60.01283365007216,
therm,therm,,,,,0,29,29,29,,,,,,,,297.86075211316347,None,"['t', 'h', 'e', 'r', 'm']",1,"[1.0012952918186784, 1.097384360153228, 1.2494011661037803, 1.3772987970151007, 1.4813215448521078]",297.86075211316347,None,297.86061733313835,297.9605150409043,,,,,,,,,,,,s178_08302022,001,2022_Aug_30_1314,test_typingtask_norepeats,2020.2.10,60.01283365007216,
vodka,vodka,,,,,0,30,30,30,,,,,,,,303.36091144010425,None,"['v', 'o', 'd', 'k', 'a']",1,"[0.7892468618229032, 1.0612593069672585, 1.1811483139172196, 1.3892701799049973, 1.4612354249693453]",303.36091144010425,None,303.36095391125417,303.4606472449377,,,,,,,,,,,,s178_08302022,001,2022_Aug_30_1314,test_typingtask_norepeats,2020.2.10,60.01283365007216,
cooed,cooed,,,,,0,31,31,31,,,,,,,,308.8608269202523,None,"['c', 'o', 'o', 'e', 'd']",1,"[0.7692869789898396, 0.9372925222851336, 1.0812641279771924, 1.217212733346969, 1.4092171681113541]",308.8608269202523,None,308.8606425291393,308.96071028523147,,,,,,,,,,,,s178_08302022,001,2022_Aug_30_1314,test_typingtask_norepeats,2020.2.10,60.01283365007216,
champ,champ,,,,,0,32,32,32,,,,,,,,314.36090663820505,None,"['c', 'h', 'a', 'm', 'p']",1,"[0.7091937246732414, 0.7972426870837808, 0.8771457290276885, 1.0052667730487883, 1.2052672957070172]",314.36090663820505,None,314.3608912514057,314.4607361750677,,,,,,,,,,,,s178_08302022,001,2022_Aug_30_1314,test_typingtask_norepeats,2020.2.10,60.01283365007216,
faqir,faqir,,,,,0,33,33,33,,,,,,,,319.86073815030977,None,"['f', 'a', 'q', 'i', 'r']",1,"[0.8415283369831741, 0.9933589859865606, 1.3694073711521924, 1.6573235392570496, 1.7614420079626143]",319.86073815030977,None,319.86079529118723,319.96074391296133,,,,,,,,,,,,s178_08302022,001,2022_Aug_30_1314,test_typingtask_norepeats,2020.2.10,60.01283365007216,
tithe,tithe,,,,,0,34,34,34,,,,,,,,325.36092171492055,None,"['t', 'h', 't', 'i', 'e', 'h']",0,"[0.7572784251533449, 0.8451677388511598, 1.0372275211848319, 1.1091044801287353, 1.277162134181708, 1.333226101938635]",325.36092171492055,None,325.36087014018557,325.4616818279028,,,,,,,,,,,,s178_08302022,001,2022_Aug_30_1314,test_typingtask_norepeats,2020.2.10,60.01283365007216,
kremp,kremp,,,,,0,35,35,35,,,,,,,,330.8774113440886,None,"['k', 'r', 'e', 'm', 'p']",1,"[0.8727477947250009, 0.9926421567797661, 1.12069171667099, 1.2487464239820838, 1.4727226318791509]",330.8774113440886,None,330.8775021010544,330.97779543325305,,,,,,,,,,,,s178_08302022,001,2022_Aug_30_1314,test_typingtask_norepeats,2020.2.10,60.01283365007216,
tithe,tithe,,,,,0,36,36,36,,,,,,,,336.3775803409517,None,"['t', 'h', 't', 'h', 'e']",0,"[0.8124930029734969, 0.9086406910791993, 1.3965809880755842, 1.668582210317254, 1.7566254292614758]",336.3775803409517,None,336.3775616731029,336.47745102923363,,,,,,,,,,,,s178_08302022,001,2022_Aug_30_1314,test_typingtask_norepeats,2020.2.10,60.01283365007216,
heond,heond,,,,,0,37,37,37,,,,,,,,341.8774936902337,None,"['h', 'e', 'o', 'n', 'd']",1,"[0.7765612583607435, 0.8566790111362934, 1.0005584862083197, 1.2166732670739293, 1.2726827883161604]",341.8774936902337,None,341.8772205212619,341.97726173186675,,,,,,,,,,,,s178_08302022,001,2022_Aug_30_1314,test_typingtask_norepeats,2020.2.10,60.01283365007216,
there,there,,,,,0,38,38,38,,,,,,,,347.3941923561506,None,"['t', 'h', 'e', 'r', 'e']",1,"[0.7078595068305731, 0.7718513458967209, 0.8999581369571388, 1.0039478507824242, 1.107978958170861]",347.3941923561506,None,347.39422758440486,347.49398657493293,,,,,,,,,,,,s178_08302022,001,2022_Aug_30_1314,test_typingtask_norepeats,2020.2.10,60.01283365007216,
would,would,,,,,0,39,39,39,,,,,,,,352.8942112540826,None,"['w', 'o', 'u', 'l', 'd']",1,"[0.8239199030213058, 0.8958426802419126, 1.0958628882654011, 1.2958630183711648, 1.343822575174272]",352.8942112540826,None,352.894141237298,352.99408457800746,,,,,,,,,,,,s178_08302022,001,2022_Aug_30_1314,test_typingtask_norepeats,2020.2.10,60.01283365007216,
about,about,,,,,0,40,40,40,,,,,,,,358.39377025701106,None,"['a', 'b', 'o', 'u', 't']",1,"[0.764362663961947, 1.0123717947863042, 1.0922783520072699, 1.2842640159651637, 1.3562760120257735]",358.39377025701106,None,358.39403927843085,358.4939878829755,,,,,,,,,,,,s178_08302022,001,2022_Aug_30_1314,test_typingtask_norepeats,2020.2.10,60.01283365007216,
haole,haole,,,,,0,41,41,41,,,,,,,,363.8941896962933,None,"['h', 'a', 'o', 'e', 'l', 'l']",0,"[0.912060156930238, 1.0319272088818252, 1.5359360380098224, 1.647908037994057, 2.6479098103009164, 3.4639324313029647]",363.8941896962933,None,363.89426274043507,363.994148042053,,,,,,,,,,,,s178_08302022,001,2022_Aug_30_1314,test_typingtask_norepeats,2020.2.10,60.01283365007216,
buddy,buddy,,,,,0,42,42,42,,,,,,,,369.39411957515404,None,"['b', 'u', 'd', 'd', 'y']",1,"[0.7639818247407675, 0.8599270209670067, 1.1479327948763967, 1.2839237400330603, 1.3479792098514736]",369.39411957515404,None,369.39419583142734,369.4941074550152,,,,,,,,,,,,s178_08302022,001,2022_Aug_30_1314,test_typingtask_norepeats,2020.2.10,60.01283365007216,
pykka,pykka,,,,,0,43,43,43,,,,,,,,374.8940822421573,None,"['o', 'y', 'k', 'k', 'a']",0,"[0.7599934451282024, 0.9839684879407287, 1.2320361458696425, 1.3600191669538617, 1.4640922658145428]",374.8940822421573,None,374.8942859070841,374.9941764231771,,,,,,,,,,,,s178_08302022,001,2022_Aug_30_1314,test_typingtask_norepeats,2020.2.10,60.01283365007216,
there,there,,,,,0,44,44,44,,,,,,,,380.3940385482274,None,"['t', 'h', 'e', 'r', 'e']",1,"[0.7401323108933866, 0.8201342849060893, 0.9320810697972775, 1.044008060824126, 1.164136374834925]",380.3940385482274,None,380.3941391911823,380.49455416202545,,,,,,,,,,,,s178_08302022,001,2022_Aug_30_1314,test_typingtask_norepeats,2020.2.10,60.01283365007216,
pykka,pykka,,,,,0,45,45,45,,,,,,,,385.89408805500716,None,"['p', 'y', 'k', 'k', 'a']",1,"[0.7200974971055984, 1.095994062256068, 1.4480116642080247, 1.5919860200956464, 1.6960197370499372]",385.89408805500716,None,385.8942130362149,385.9942157729529,,,,,,,,,,,,s178_08302022,001,2022_Aug_30_1314,test_typingtask_norepeats,2020.2.10,60.01283365007216,
think,think,,,,,0,46,46,46,,,,,,,,391.39450627425686,None,"['t', 'h', 'i', 'n', 'k']",1,"[0.7556680431589484, 0.8276335378177464, 1.0196243948303163, 1.2356617879122496, 1.4356179642491043]",391.39450627425686,None,391.3942662743386,391.4942696262151,,,,,,,,,,,,s178_08302022,001,2022_Aug_30_1314,test_typingtask_norepeats,2020.2.10,60.01283365007216,
kremp,kremp,,,,,0,47,47,47,,,,,,,,396.894143847283,None,"['k', 'r', 'e', 'm', 'p']",1,"[0.7439008262008429, 0.8319722940213978, 0.9438955830410123, 1.055901078041643, 1.2639703559689224]",396.894143847283,None,396.894111951394,396.99397240998223,,,,,,,,,,,,s178_08302022,001,2022_Aug_30_1314,test_typingtask_norepeats,2020.2.10,60.01283365007216,
think,think,,,,,0,48,48,48,,,,,,,,402.39412851724774,None,"['t', 'h', 'i', 'n', 'k']",1,"[0.7959721991792321, 0.875967432744801, 1.0679244589991868, 1.2839089161716402, 1.5079762791283429]",402.39412851724774,None,402.3940072032157,402.4941678191535,,,,,,,,,,,,s178_08302022,001,2022_Aug_30_1314,test_typingtask_norepeats,2020.2.10,60.01283365007216,
cheer,cheer,,,,,0,49,49,49,,,,,,,,407.89429798489437,None,"['c', 'h', 'e', 'e', 'r']",1,"[0.9998622532002628, 1.0718749770894647, 1.2237606248818338, 1.3677549371495843, 1.495845687109977]",407.89429798489437,None,407.894102806272,407.9939484372735,,,,,,,,,,,,s178_08302022,001,2022_Aug_30_1314,test_typingtask_norepeats,2020.2.10,60.01283365007216,
vanru,vanru,,,,,0,50,50,50,,,,,,,,413.3943033972755,None,"['v', 'a', 'n', 'r', 'u']",1,"[0.7958060880191624, 0.9397512022405863, 1.0597580298781395, 1.2038071360439062, 1.3158125430345535]",413.3943033972755,None,413.39422900141216,413.49387540016323,,,,,,,,,,,,s178_08302022,001,2022_Aug_30_1314,test_typingtask_norepeats,2020.2.10,60.01283365007216,
belly,belly,,,,,0,51,51,51,,,,,,,,418.8942195358686,None,"['b', 'e', 'l', 'l', 'y']",1,"[0.7199209877289832, 0.775858725886792, 1.0399426240473986, 1.1838177759200335, 1.2398319588974118]",418.8942195358686,None,418.89432995910755,418.99389749299735,,,,,,,,,,,,s178_08302022,001,2022_Aug_30_1314,test_typingtask_norepeats,2020.2.10,60.01283365007216,
therm,therm,,,,,0,52,52,52,,,,,,,,424.39428285416216,None,"['t', 'h', 'e', 'r', 'm']",1,"[0.6919265519827604, 0.7638159599155188, 0.891959763597697, 1.0039686858654022, 1.107774153817445]",424.39428285416216,None,424.3943930292036,424.49415123509243,,,,,,,,,,,,s178_08302022,001,2022_Aug_30_1314,test_typingtask_norepeats,2020.2.10,60.01283365007216,
buddy,buddy,,,,,0,53,53,53,,,,,,,,429.8942292430438,None,"['b', 'u', 'd', 'd', 'y']",1,"[0.8478757990524173, 0.9438065481372178, 1.1519317841157317, 1.2958490811288357, 1.3279903708025813]",429.8942292430438,None,429.8944022180978,429.99446593085304,,,,,,,,,,,,s178_08302022,001,2022_Aug_30_1314,test_typingtask_norepeats,2020.2.10,60.01283365007216,
belly,belly,,,,,0,54,54,54,,,,,,,,435.39427002798766,None,"['b', 'e', 'l', 'l', 'y']",1,"[0.7238908442668617, 0.7718211780302227, 1.0039021102711558, 1.1397823439911008, 1.187882031314075]",435.39427002798766,None,435.3944997680839,435.4945911569521,,,,,,,,,,,,s178_08302022,001,2022_Aug_30_1314,test_typingtask_norepeats,2020.2.10,60.01283365007216,
therm,therm,,,,,0,55,55,55,,,,,,,,440.894724835176,None,"['t', 'h', 'e', 'r', 'm']",1,"[0.6953552891500294, 0.7673162869177759, 0.8874809718690813, 0.9994499562308192, 1.0874295011162758]",440.894724835176,None,440.8945704824757,440.9940729648806,,,,,,,,,,,,s178_08302022,001,2022_Aug_30_1314,test_typingtask_norepeats,2020.2.10,60.01283365007216,
there,there,,,,,0,56,56,56,,,,,,,,446.39416384417564,None,"['t', 'h', 'e', 'r', 'e']",1,"[0.6999584450386465, 0.7720152870751917, 0.8918874938972294, 0.9800111399963498, 1.0678896768949926]",446.39416384417564,None,446.394341262104,446.4942304440774,,,,,,,,,,,,s178_08302022,001,2022_Aug_30_1314,test_typingtask_norepeats,2020.2.10,60.01283365007216,
edthe,edthe,,,,,0,57,57,57,,,,,,,,451.89426467893645,None,"['d', 't', 'h', 'e']",0,"[1.1038652448914945, 1.3359287912026048, 1.4159009661525488, 1.495778406970203]",451.89426467893645,None,451.8943235902581,451.9944345438853,,,,,,,,,,,,s178_08302022,001,2022_Aug_30_1314,test_typingtask_norepeats,2020.2.10,60.01283365007216,
zibja,zibja,,,,,0,58,58,58,,,,,,,,457.4112049401738,None,"['z', 'i', 'b', 'j', 'a']",1,"[1.050826630089432, 1.3069381099194288, 1.5469607608392835, 1.7709560580551624, 1.8268337398767471]",457.4112049401738,None,457.41083239116705,457.51089153112844,,,,,,,,,,,,s178_08302022,001,2022_Aug_30_1314,test_typingtask_norepeats,2020.2.10,60.01283365007216,
vodka,vodka,,,,,0,59,59,59,,,,,,,,462.911110478919,None,"['v', 'o', 'd', 'k', 'a']",1,"[0.8150467281229794, 0.9350516139529645, 1.0870614359155297, 1.2150426139123738, 1.311020421795547]",462.911110478919,None,462.9109316100832,463.0112277958542,,,,,,,,,,,,s178_08302022,001,2022_Aug_30_1314,test_typingtask_norepeats,2020.2.10,60.01283365007216,
champ,champ,,,,,0,60,60,60,,,,,,,,468.41096151899546,None,"['c', 'h', 'a', 'm', 'p']",1,"[0.7392352260649204, 0.8031587270088494, 0.931102252099663, 1.0351549247279763, 1.2510834988206625]",468.41096151899546,None,468.4110331344884,468.51120140217245,,,,,,,,,,,,s178_08302022,001,2022_Aug_30_1314,test_typingtask_norepeats,2020.2.10,60.01283365007216,
tithe,tithe,,,,,0,61,61,61,,,,,,,,473.9111481499858,None,"['t', 'h', 't', 'i', 'h', 'e']",0,"[0.7830292759463191, 0.8789206626825035, 1.0550246480852365, 1.1350167556665838, 1.3909653848968446, 1.4789825989864767]",473.9111481499858,None,473.91111007616854,474.01092841196805,,,,,,,,,,,,s178_08302022,001,2022_Aug_30_1314,test_typingtask_norepeats,2020.2.10,60.01283365007216,
puppy,puppy,,,,,0,62,62,62,,,,,,,,479.41116211609915,None,"['p', 'u', 'p', 'p', 'y']",1,"[0.9070174698717892, 1.139048621058464, 1.4029781487770379, 1.5550498217344284, 1.6190002979710698]",479.41116211609915,None,479.41109733521006,479.5109666530043,,,,,,,,,,,,s178_08302022,001,2022_Aug_30_1314,test_typingtask_norepeats,2020.2.10,60.01283365007216,
cheer,cheer,,,,,0,63,63,63,,,,,,,,484.91122824605554,None,"['c', 'h', 'e', 'e', 'r']",1,"[0.7588290269486606, 0.8229602458886802, 1.022982711903751, 1.1749498867429793, 1.2948769889771938]",484.91122824605554,None,484.91110934833995,485.01097535714507,,,,,,,,,,,,s178_08302022,001,2022_Aug_30_1314,test_typingtask_norepeats,2020.2.10,60.01283365007216,
think,think,,,,,0,64,64,64,,,,,,,,490.4110374301672,None,"['t', 'h', 'i', 'n', 'k']",1,"[0.7071321830153465, 0.7871360089629889, 0.9790815250016749, 1.1951088109053671, 1.3711287388578057]",490.4110374301672,None,490.41103751310146,490.51124699693173,,,,,,,,,,,,s178_08302022,001,2022_Aug_30_1314,test_typingtask_norepeats,2020.2.10,60.01283365007216,
puppy,puppy,,,,,0,65,65,65,,,,,,,,495.91064905328676,None,"['p', 'u', 'p', 'p', 'y']",1,"[0.7833959693089128, 1.0154870701953769, 1.2794410362839699, 1.4155014818534255, 1.487456982024014]",495.91064905328676,None,495.9106440050993,496.01110469410196,,,,,,,,,,,,s178_08302022,001,2022_Aug_30_1314,test_typingtask_norepeats,2020.2.10,60.01283365007216,
would,would,,,,,0,66,66,66,,,,,,,,501.41097919410095,None,"['w', 'q', 'o', 'u', 'l', 'd']",0,"[1.6031075189821422, 1.6111364411190152, 1.675200607161969, 1.8911361587233841, 2.1231819787062705, 2.1871905401349068]",501.41097919410095,None,501.4110756004695,501.51111238310114,,,,,,,,,,,,s178_08302022,001,2022_Aug_30_1314,test_typingtask_norepeats,2020.2.10,60.01283365007216,
edthe,edthe,,,,,0,67,67,67,,,,,,,,506.91116117918864,None,"['e', 'd', 't', 'h', 'e']",1,"[0.7989576840773225, 1.0229918537661433, 1.2549450299702585, 1.3268728121183813, 1.438945037778467]",506.91116117918864,None,506.9110344462562,507.01118142390624,,,,,,,,,,,,s178_08302022,001,2022_Aug_30_1314,test_typingtask_norepeats,2020.2.10,60.01283365007216,
cheer,cheer,,,,,0,68,68,68,,,,,,,,512.4110121801496,None,"['c', 'h', 'e', 'e', 'r']",1,"[0.7391501748934388, 0.8430452262982726, 1.0112594030797482, 1.1551965912804008, 1.259060675278306]",512.4110121801496,None,512.411063500261,512.5111165679991,,,,,,,,,,,,s178_08302022,001,2022_Aug_30_1314,test_typingtask_norepeats,2020.2.10,60.01283365007216,
would,would,,,,,0,69,69,69,,,,,,,,517.9113721000031,None,"['w', 'o', 'u', 'l', 'd']",1,"[0.6867959559895098, 0.7827321770600975, 0.9666752689518034, 1.1666730069555342, 1.2547985259443521]",517.9113721000031,None,517.9110353594181,518.0110667431727,,,,,,,,,,,,s178_08302022,001,2022_Aug_30_1314,test_typingtask_norepeats,2020.2.10,60.01283365007216,
belly,belly,,,,,0,70,70,70,,,,,,,,523.4111638050526,None,"['b', 'e', 'l', 'l', 'y']",1,"[0.8110168599523604, 0.8829981461167336, 1.507012679707259, 1.6588782328180969, 1.7228743648156524]",523.4111638050526,None,523.4108660091181,523.5111193442717,,,,,,,,,,,,s178_08302022,001,2022_Aug_30_1314,test_typingtask_norepeats,2020.2.10,60.01283365007216,
puppy,puppy,,,,,0,71,71,71,,,,,,,,528.9111833632924,None,"['p', 'u', 'p', 'p', 'y']",1,"[0.7189021478407085, 0.9508633390069008, 1.1989732650108635, 1.3349901586771011, 1.4069313309155405]",528.9111833632924,None,528.9109998932574,529.0111399670132,,,,,,,,,,,,s178_08302022,001,2022_Aug_30_1314,test_typingtask_norepeats,2020.2.10,60.01283365007216,
theme,theme,,,,,0,72,72,72,,,,,,,,534.4110986939631,None,"['t', 'h', 'e', 'm', 'e']",1,"[0.7390779322013259, 0.8110894430428743, 0.9470629282295704, 1.0589727060869336, 1.1230617482215166]",534.4110986939631,None,534.4111129693222,534.511379247997,,,,,,,,,,,,s178_08302022,001,2022_Aug_30_1314,test_typingtask_norepeats,2020.2.10,60.01283365007216,
about,about,,,,,0,73,73,73,,,,,,,,539.9111423762515,None,"['a', 'b', 'o', 'u', 't']",1,"[0.6549286348745227, 0.9029909973032773, 0.9589133053086698, 1.1508958991616964, 1.2069069002754986]",539.9111423762515,None,539.9111695942004,540.0108455759473,,,,,,,,,,,,s178_08302022,001,2022_Aug_30_1314,test_typingtask_norepeats,2020.2.10,60.01283365007216,
lucky,lucky,,,,,0,74,74,74,,,,,,,,545.4111924199387,None,"['l', 'u', 'c', 'k', 'y']",1,"[0.6989263528957963, 0.906980206258595, 1.018931387923658, 1.1149612991139293, 1.2989687831141055]",545.4111924199387,None,545.411157858139,545.5110177891329,,,,,,,,,,,,s178_08302022,001,2022_Aug_30_1314,test_typingtask_norepeats,2020.2.10,60.01283365007216,
heond,heond,,,,,0,75,75,75,,,,,,,,550.9111078302376,None,"['h', 'e', 'o', 'n', 'd']",1,"[0.806928921956569, 0.878959028981626, 1.0389563301578164, 1.2231091312132776, 1.3110041441395879]",550.9111078302376,None,550.9110939261038,551.0109807611443,,,,,,,,,,,,s178_08302022,001,2022_Aug_30_1314,test_typingtask_norepeats,2020.2.10,60.01283365007216,
champ,champ,,,,,0,76,76,76,,,,,,,,556.4113565478474,None,"['c', 'h', 'a', 'm', 'p']",1,"[0.795009374152869, 0.8748312159441411, 1.002771746367216, 1.1067599239759147, 1.3228134620003402]",556.4113565478474,None,556.4111181013752,556.5114371101372,,,,,,,,,,,,s178_08302022,001,2022_Aug_30_1314,test_typingtask_norepeats,2020.2.10,60.01283365007216,
about,about,,,,,0,77,77,77,,,,,,,,561.9112164201215,None,"['a', 'b', 'o', 'u', 't']",1,"[0.5908974544145167, 0.8549472694285214, 0.9189332253299654, 1.1110302582383156, 1.1749482122249901]",561.9112164201215,None,561.9111222443637,562.0111117609777,,,,,,,,,,,,s178_08302022,001,2022_Aug_30_1314,test_typingtask_norepeats,2020.2.10,60.01283365007216,
pykka,pykka,,,,,0,78,78,78,,,,,,,,567.4111419338733,None,"['p', 'y', 'k', 'k', 'a']",1,"[0.7629574220627546, 1.4110382026992738, 1.6589193767867982, 1.7950532617978752, 1.8668974246829748]",567.4111419338733,None,567.4112561163959,567.5110744680278,,,,,,,,,,,,s178_08302022,001,2022_Aug_30_1314,test_typingtask_norepeats,2020.2.10,60.01283365007216,
theme,theme,,,,,0,79,79,79,,,,,,,,572.9112230539322,None,"['t', 'h', 'e', 'm', 'e']",1,"[0.7109515187330544, 0.7989246579818428, 0.9110187031328678, 1.014858148060739, 1.0788810309022665]",572.9112230539322,None,572.9113993533422,573.0110098188743,,,,,,,,,,,,s178_08302022,001,2022_Aug_30_1314,test_typingtask_norepeats,2020.2.10,60.01283365007216,
druze,druze,,,,,0,80,80,80,,,,,,,,578.4109608731233,None,"['d', 'r', 'u', 'z', 'e']",1,"[0.7711562192998827, 0.9791044970043004, 1.0832016598433256, 1.3232142981141806, 1.5631764722056687]",578.4109608731233,None,578.4110229900573,578.511168347206,,,,,,,,,,,,s178_08302022,001,2022_Aug_30_1314,test_typingtask_norepeats,2020.2.10,60.01283365007216,
kremp,kremp,,,,,0,81,81,81,,,,,,,,583.9112356370315,None,"['k', 'r', 'e', 'm', 'p']",1,"[0.8308194321580231, 0.9189301799051464, 1.014864828903228, 1.1428239080123603, 1.366874000057578]",583.9112356370315,None,583.9112304333132,584.0112239359878,,,,,,,,,,,,s178_08302022,001,2022_Aug_30_1314,test_typingtask_norepeats,2020.2.10,60.01283365007216,
vodka,vodka,,,,,0,82,82,82,,,,,,,,589.4110804810189,None,"['v', 'o', 'd', 'k', 'a']",1,"[0.8190803863108158, 1.1310099232941866, 1.2270176811143756, 1.3870792919769883, 1.459030797239393]",589.4110804810189,None,589.4111233992037,589.5113581130281,,,,,,,,,,,,s178_08302022,001,2022_Aug_30_1314,test_typingtask_norepeats,2020.2.10,60.01283365007216,
about,about,,,,,0,83,83,83,,,,,,,,594.9111517202109,None,"['a', 'b', 'o', 'u', 't']",1,"[0.6469723731279373, 1.0390208410099149, 1.1429333458654583, 1.358952817041427, 1.4070078511722386]",594.9111517202109,None,594.9111625673715,595.0112497340888,,,,,,,,,,,,s178_08302022,001,2022_Aug_30_1314,test_typingtask_norepeats,2020.2.10,60.01283365007216,
theme,theme,,,,,0,84,84,84,,,,,,,,600.4113263841718,None,"['t', 'h', 'e', 'm', 'e']",1,"[0.6747249853797257, 0.7627010853029788, 0.8827679231762886, 0.9948655483312905, 1.0587209491059184]",600.4113263841718,None,600.4108850392979,600.5108801499009,,,,,,,,,,,,s178_08302022,001,2022_Aug_30_1314,test_typingtask_norepeats,2020.2.10,60.01283365007216,
haole,haole,,,,,0,85,85,85,,,,,,,,605.9117893562652,None,"['h', 'a', 'o', 'l', 'e']",1,"[0.9743154691532254, 1.3823266620747745, 1.5823656050488353, 1.8223656653426588, 1.910389750264585]",605.9117893562652,None,605.91109477547,606.0113559998572,,,,,,,,,,,,s178_08302022,001,2022_Aug_30_1314,test_typingtask_norepeats,2020.2.10,60.01283365007216,
would,would,,,,,0,86,86,86,,,,,,,,611.4112731679343,None,"['w', 'o', 'u', 'l', 'd']",1,"[0.7068618191406131, 0.7868688884191215, 0.9788696891628206, 1.1949090883135796, 1.2587699573487043]",611.4112731679343,None,611.4114175881725,611.5108588100411,,,,,,,,,,,,s178_08302022,001,2022_Aug_30_1314,test_typingtask_norepeats,2020.2.10,60.01283365007216,
lucky,lucky,,,,,0,87,87,87,,,,,,,,616.9113109619357,None,"['l', 'u', 'c', 'k', 'y']",1,"[0.7188525814563036, 0.9188530170358717, 1.0147664062678814, 1.11886080307886, 1.278799801133573]",616.9113109619357,None,616.9113269602415,617.0109489089809,,,,,,,,,,,,s178_08302022,001,2022_Aug_30_1314,test_typingtask_norepeats,2020.2.10,60.01283365007216,
heond,heond,,,,,0,88,88,88,,,,,,,,622.4113941611722,None,"['h', 'e', 'o', 'n', 'd']",1,"[0.7547788522206247, 0.826665136963129, 0.9947901819832623, 1.2027352559380233, 1.2827380918897688]",622.4113941611722,None,622.4111375734676,622.5114188082516,,,,,,,,,,,,s178_08302022,001,2022_Aug_30_1314,test_typingtask_norepeats,2020.2.10,60.01283365007216,
haole,haole,,,,,0,89,89,89,,,,,,,,627.9114239630289,None,"['h', 'a', 'o', 'l', 'e']",1,"[0.7187646478414536, 0.7987134079448879, 1.0146763599477708, 1.1986859100870788, 1.2626567701809108]",627.9114239630289,None,627.9113223543857,628.0112158809789,,,,,,,,,,,,s178_08302022,001,2022_Aug_30_1314,test_typingtask_norepeats,2020.2.10,60.01283365007216,
cooed,cooed,,,,,0,90,90,90,,,,,,,,633.4113168031909,None,"['c', 'o', 'o', 'e', 'd']",1,"[0.68283223034814, 0.8187519991770387, 0.970809540245682, 1.0507962312549353, 1.2427588170394301]",633.4113168031909,None,633.4112943532411,633.5113580240868,,,,,,,,,,,,s178_08302022,001,2022_Aug_30_1314,test_typingtask_norepeats,2020.2.10,60.01283365007216,
edthe,edthe,,,,,0,91,91,91,,,,,,,,638.9114082320593,None,"['e', 'd', 't', 'h', 'e']",1,"[0.8867164119146764, 1.094697703141719, 1.3266388229094446, 1.438642953056842, 1.6066429750062525]",638.9114082320593,None,638.9113155710977,639.0113875321113,,,,,,,,,,,,s178_08302022,001,2022_Aug_30_1314,test_typingtask_norepeats,2020.2.10,60.01283365007216,
kremp,kremp,,,,,0,92,92,92,,,,,,,,644.4111054162495,None,"['k', 'r', 'e', 'm', 'p']",1,"[0.8269388261251152, 0.9230192522518337, 0.9869905062951148, 1.0830348073504865, 1.283048561308533]",644.4111054162495,None,644.4111838140991,644.5110890129581,,,,,,,,,,,,s178_08302022,001,2022_Aug_30_1314,test_typingtask_norepeats,2020.2.10,60.01283365007216,
about,about,,,,,0,93,93,93,,,,,,,,649.911162358243,None,"['a', 'b', 'o', 'u', 't']",1,"[0.6789705781266093, 0.9428678900003433, 1.02294084103778, 1.2228876003064215, 1.2869638781994581]",649.911162358243,None,649.9113831953612,650.0113944699988,,,,,,,,,,,,s178_08302022,001,2022_Aug_30_1314,test_typingtask_norepeats,2020.2.10,60.01283365007216,
champ,champ,,,,,0,94,94,94,,,,,,,,655.4111484568566,None,"['c', 'h', 'a', 'm', 'p']",1,"[0.6269465261138976, 0.7629334512166679, 0.8668969939462841, 1.003017078153789, 1.2190126413479447]",655.4111484568566,None,655.411186910281,655.5116568901576,,,,,,,,,,,,s178_08302022,001,2022_Aug_30_1314,test_typingtask_norepeats,2020.2.10,60.01283365007216,
vodka,vodka,,,,,0,95,95,95,,,,,,,,660.9111902001314,None,"['v', 'o', 'd', 'k', 'a']",1,"[0.926912538241595, 1.0309205702506006, 1.190850947983563, 1.302989133168012, 1.4149315180256963]",660.9111902001314,None,660.911390336277,661.0112389358692,,,,,,,,,,,,s178_08302022,001,2022_Aug_30_1314,test_typingtask_norepeats,2020.2.10,60.01283365007216,
cooed,cooed,,,,,0,96,96,96,,,,,,,,666.411384284962,None,"['c', 'o', 'o', 'e', 'd']",1,"[0.6907921568490565, 0.8187048258259892, 0.970765832811594, 1.0586648611351848, 1.2506707110442221]",666.411384284962,None,666.4112863052171,666.5117596942,,,,,,,,,,,,s178_08302022,001,2022_Aug_30_1314,test_typingtask_norepeats,2020.2.10,60.01283365007216,
pykka,pykka,,,,,0,97,97,97,,,,,,,,671.9115938041359,None,"['p', 'y', 'k', 'k', 'a']",1,"[0.9185354700312018, 1.278538128361106, 1.5744804292917252, 1.7185442852787673, 1.7905110511928797]",671.9115938041359,None,671.9112196574454,672.0112788658589,,,,,,,,,,,,s178_08302022,001,2022_Aug_30_1314,test_typingtask_norepeats,2020.2.10,60.01283365007216,
tithe,tithe,,,,,0,98,98,98,,,,,,,,677.4111756929196,None,"['t', 'h', 't', 'h', 'e']",0,"[0.7709251511842012, 0.8508811560459435, 1.1310258484445512, 3.4030072153545916, 3.450875555165112]",677.4111756929196,None,677.4112198544201,677.5113580240868,,,,,,,,,,,,s178_08302022,001,2022_Aug_30_1314,test_typingtask_norepeats,2020.2.10,60.01283365007216,
faqir,faqir,,,,,0,99,99,99,,,,,,,,682.9112862809561,None,"['f', 'a', 'q', 'i', 'r']",1,"[0.838826437946409, 0.9908326822333038, 1.286873889155686, 1.3988346098922193, 1.5828338582068682]",682.9112862809561,None,682.9114396591206,683.0111232432537,,,,,,,,,,,,s178_08302022,001,2022_Aug_30_1314,test_typingtask_norepeats,2020.2.10,60.01283365007216,
edthe,edthe,,,,,0,100,100,100,,,,,,,,688.411989509128,None,"['e', 'd', 't', 'h', 'e']",1,"[0.7701460868120193, 3.074145636986941, 3.290091303177178, 3.354057173244655, 3.4580557262524962]",688.411989509128,None,688.4112628344913,688.5111353578977,,,,,,,,,,,,s178_08302022,001,2022_Aug_30_1314,test_typingtask_norepeats,2020.2.10,60.01283365007216,
druze,druze,,,,,0,101,101,101,,,,,,,,693.9113201349974,None,"['d', 'r', 'u', 'z', 'e']",1,"[0.7107892357744277, 0.8868542211130261, 0.9988351929932833, 1.2308393330313265, 1.4868456670083106]",693.9113201349974,None,693.911441297317,694.0111889191903,,,,,,,,,,,,s178_08302022,001,2022_Aug_30_1314,test_typingtask_norepeats,2020.2.10,60.01283365007216,
there,there,,,,,0,102,102,102,,,,,,,,699.4115145308897,None,"['t', 'h', 'e', 'r', 'e']",1,"[0.8026566207408905, 0.8747119940817356, 0.9946577027440071, 1.1226597079075873, 3.2265313691459596]",699.4115145308897,None,699.4113474940416,699.5113810822368,,,,,,,,,,,,s178_08302022,001,2022_Aug_30_1314,test_typingtask_norepeats,2020.2.10,60.01283365007216,
zibja,zibja,,,,,0,103,103,103,,,,,,,,704.9111054129899,None,"['z', 'i', 'b', 'j', 'a']",1,"[0.9030635692179203, 1.103038658387959, 1.3190046730451286, 1.535016254056245, 1.5830302191898227]",704.9111054129899,None,704.9110725322273,705.0111743533053,,,,,,,,,,,,s178_08302022,001,2022_Aug_30_1314,test_typingtask_norepeats,2020.2.10,60.01283365007216,
think,think,,,,,0,104,104,104,,,,,,,,710.4112751581706,None,"['t', 'h', 'i', 'n', 'k']",1,"[0.7308872072026134, 0.8108192910440266, 0.9948669630102813, 1.186897389125079, 1.3468533400446177]",710.4112751581706,None,710.4114099443425,710.5113109159283,,,,,,,,,,,,s178_08302022,001,2022_Aug_30_1314,test_typingtask_norepeats,2020.2.10,60.01283365007216,
druze,druze,,,,,0,105,105,105,,,,,,,,715.9112925729714,None,"['d', 'r', 'u', 'z', 'e']",1,"[0.7188764298334718, 0.8948218571022153, 0.9828673987649381, 1.1988269640132785, 1.4388874331489205]",715.9112925729714,None,715.9115805472713,716.0113566410728,,,,,,,,,,,,s178_08302022,001,2022_Aug_30_1314,test_typingtask_norepeats,2020.2.10,60.01283365007216,
vanru,vanru,,,,,0,106,106,106,,,,,,,,721.4112233682536,None,"['v', 'a', 'n', 'r', 'u']",1,"[0.8348262067884207, 0.8909493647515774, 1.058912209700793, 1.2109005437232554, 1.3069344768300653]",721.4112233682536,None,721.4114128174726,721.5113097941503,,,,,,,,,,,,s178_08302022,001,2022_Aug_30_1314,test_typingtask_norepeats,2020.2.10,60.01283365007216,
would,would,,,,,0,107,107,107,,,,,,,,726.9113247408532,None,"['w', 'o', 'u', 'l', 'd']",1,"[0.7587239467538893, 0.814778121188283, 1.0068471990525723, 1.2067446638830006, 1.2627391899004579]",726.9113247408532,None,726.9114058181178,727.0114257372916,,,,,,,,,,,,s178_08302022,001,2022_Aug_30_1314,test_typingtask_norepeats,2020.2.10,60.01283365007216,
lucky,lucky,,,,,0,108,108,108,,,,,,,,732.411187897902,None,"['l', 'u', 'c', 'k', 'y']",1,"[0.7469697049818933, 0.978991474956274, 1.0989654841832817, 1.2029812862165272, 1.4189825281500816]",732.411187897902,None,732.411441499414,732.5117163630202,,,,,,,,,,,,s178_08302022,001,2022_Aug_30_1314,test_typingtask_norepeats,2020.2.10,60.01283365007216,
vanru,vanru,,,,,0,109,109,109,,,,,,,,737.9113460010849,None,"['v', 'a', 'n', 'r', 'u']",1,"[0.8947966801933944, 1.0707663889043033, 1.2067735479213297, 1.3346996889449656, 1.4387757331132889]",737.9113460010849,None,737.9114995752927,738.0114402142353,,,,,,,,,,,,s178_08302022,001,2022_Aug_30_1314,test_typingtask_norepeats,2020.2.10,60.01283365007216,
cheer,cheer,,,,,0,110,110,110,,,,,,,,743.4114378471859,None,"['c', 'h', 'e', 'e', 'r']",1,"[0.9306239360012114, 1.0186914433725178, 1.2266030530445278, 1.3787485864013433, 1.4987218673340976]",743.4114378471859,None,743.4111551624258,743.51135234721,,,,,,,,,,,,s178_08302022,001,2022_Aug_30_1314,test_typingtask_norepeats,2020.2.10,60.01283365007216,
faqir,faqir,,,,,0,111,111,111,,,,,,,,748.9112957422622,None,"['f', 'q', 'a', 'i']",0,"[0.7348754061385989, 0.9267779421061277, 3.3028297522105277, 3.454838023055345]",748.9112957422622,None,748.9111728552264,749.011204236187,,,,,,,,,,,,s178_08302022,001,2022_Aug_30_1314,test_typingtask_norepeats,2020.2.10,60.01283365007216,
zibja,zibja,,,,,0,112,112,112,,,,,,,,754.4113471759483,None,"['z', 'i', 'b', 'j', 'a']",1,"[1.3388248081319034, 1.4507373538799584, 1.6668106261640787, 1.9708266728557646, 2.0426951590925455]",754.4113471759483,None,754.411434456287,754.5112087843008,,,,,,,,,,,,s178_08302022,001,2022_Aug_30_1314,test_typingtask_norepeats,2020.2.10,60.01283365007216,
buddy,buddy,,,,,0,113,113,113,,,,,,,,759.9115981301293,None,"['b', 'u', 'd', 'd', 'y']",1,"[0.8945391601882875, 0.9825616208836436, 1.24654143396765, 1.3985728421248496, 1.4545447281561792]",759.9115981301293,None,759.911517154472,760.0114918402396,,,,,,,,,,,,s178_08302022,001,2022_Aug_30_1314,test_typingtask_norepeats,2020.2.10,60.01283365007216,
kremp,kremp,,,,,0,114,114,114,,,,,,,,765.4114686693065,None,"['k', 'r', 'e', 'm', 'p']",1,"[0.9067030274309218, 1.0105789182707667, 1.0747050852514803, 1.1866490463726223, 1.4105807393789291]",765.4114686693065,None,765.4115979634691,765.5116027710028,,,,,,,,,,,,s178_08302022,001,2022_Aug_30_1314,test_typingtask_norepeats,2020.2.10,60.01283365007216,
cooed,cooed,,,,,0,115,115,115,,,,,,,,770.9114977810532,None,"['c', 'o', 'o', 'e', 'd']",1,"[0.7986633568070829, 0.9505551238544285, 1.0786761678755283, 1.1666275546886027, 1.3505528010427952]",770.9114977810532,None,770.9113932964858,771.0112976930104,,,,,,,,,,,,s178_08302022,001,2022_Aug_30_1314,test_typingtask_norepeats,2020.2.10,60.01283365007216,
theme,theme,,,,,0,116,116,116,,,,,,,,776.4111401289701,None,"['t', 'h', 'e', 'm', 'e']",1,"[0.7548994547687471, 0.8429052559658885, 0.9709652289748192, 1.0909110610373318, 1.1549122161231935]",776.4111401289701,None,776.4114669892472,776.5114724999294,,,,,,,,,,,,s178_08302022,001,2022_Aug_30_1314,test_typingtask_norepeats,2020.2.10,60.01283365007216,
faqir,faqir,,,,,0,117,117,117,,,,,,,,781.9115029671229,None,"['f', 'a', 'q', 'i', 'r']",1,"[0.6786134946160018, 0.8466614196076989, 1.5186590645462275, 1.678680487908423, 1.8145973137579858]",781.9115029671229,None,781.9115821854678,782.0115965739824,,,,,,,,,,,,s178_08302022,001,2022_Aug_30_1314,test_typingtask_norepeats,2020.2.10,60.01283365007216,
heond,heond,,,,,0,118,118,118,,,,,,,,787.4114930722862,None,"['h', 'e', 'o', 'n', 'd']",1,"[0.7786817168816924, 0.8505593868903816, 1.0186112876981497, 1.218645507004112, 1.2986265467479825]",787.4114930722862,None,787.4117225623224,787.5111722010188,,,,,,,,,,,,s178_08302022,001,2022_Aug_30_1314,test_typingtask_norepeats,2020.2.10,60.01283365007216,
buddy,buddy,,,,,0,119,119,119,,,,,,,,792.9112978843041,None,"['b', 'u', 'd', 'd', 'y']",1,"[0.7427427708171308, 0.8308471869677305, 1.0388150252401829, 1.1747453920543194, 1.2547984742559493]",792.9112978843041,None,792.911630550446,793.0113490540534,,,,,,,,,,,,s178_08302022,001,2022_Aug_30_1314,test_typingtask_norepeats,2020.2.10,60.01283365007216,
belly,belly,,,,,,,,,0,0,0,0,,,,,,,,,,,,,798.4113481799141,None,807.3041422599927,None,"['b', 'e', 'l', 'l', 'y']",1,"[0.7179585257545114, 0.7819291520863771, 0.9979017940349877, 1.1339131030254066, 1.1980416979640722]",807.3041422599927,None,807.2949885400478,807.3946893168613,s178_08302022,001,2022_Aug_30_1314,test_typingtask_norepeats,2020.2.10,60.01283365007216,
therm,therm,,,,,,,,,0,1,1,1,,,,,,,,,,,,,,,812.8113544280641,None,"['t', 'h', 'e', 'r', 'm']",1,"[0.6747004962526262, 0.7627293732948601, 0.8746927380561829, 1.0107217049226165, 1.1068403562530875]",812.8113544280641,None,812.8115055873525,812.9114793990739,s178_08302022,001,2022_Aug_30_1314,test_typingtask_norepeats,2020.2.10,60.01283365007216,
vodka,vodka,,,,,,,,,0,2,2,2,,,,,,,,,,,,,,,818.3114296100102,None,"['v', 'o', 'd', 'k', 'a']",1,"[1.0786895453929901, 1.174689693376422, 1.326632919255644, 1.4626206583343446, 1.5667298352345824]",818.3114296100102,None,818.311604976235,818.4115802901797,s178_08302022,001,2022_Aug_30_1314,test_typingtask_norepeats,2020.2.10,60.01283365007216,
therm,therm,,,,,,,,,0,3,3,3,,,,,,,,,,,,,,,823.8116356651299,None,"['t', 'h', 'e', 'r', 'm']",1,"[0.7224776791408658, 0.8104041069746017, 0.9304782398976386, 1.0344236339442432, 1.0905152410268784]",823.8116356651299,None,823.811515119439,823.911611800082,s178_08302022,001,2022_Aug_30_1314,test_typingtask_norepeats,2020.2.10,60.01283365007216,
would,would,,,,,,,,,0,4,4,4,,,,,,,,,,,,,,,829.3116084872745,None,"['w', 'o', 'u', 'l', 'd']",1,"[0.686508574988693, 0.7586171729490161, 0.9424426881596446, 1.126456394791603, 1.1905152420513332]",829.3116084872745,None,829.3115239954088,829.411501346156,s178_08302022,001,2022_Aug_30_1314,test_typingtask_norepeats,2020.2.10,60.01283365007216,
pykka,pykka,,,,,,,,,0,5,5,5,,,,,,,,,,,,,,,834.8116253521293,None,"['p', 'y', 'k', 'k', 'a']",1,"[0.7704561268910766, 1.026436836924404, 1.274551561102271, 1.4104188960045576, 1.4745347700081766]",834.8116253521293,None,834.8113920921926,834.9117382839322,s178_08302022,001,2022_Aug_30_1314,test_typingtask_norepeats,2020.2.10,60.01283365007216,
there,there,,,,,,,,,0,6,6,6,,,,,,,,,,,,,,,840.3115173261613,None,"['t', 'h', 'e', 'r', 'e', 'e']",0,"[0.6626095729880035, 0.7586323088034987, 0.8466347516514361, 0.9745453228242695, 1.038555892650038, 1.5265421876683831]",840.3115173261613,None,840.3117073933129,840.4113962212577,s178_08302022,001,2022_Aug_30_1314,test_typingtask_norepeats,2020.2.10,60.01283365007216,
vodka,vodka,,,,,,,,,0,7,7,7,,,,,,,,,,,,,,,845.8281226488762,None,"['v', 'o', 'd', 'k', 'a']",1,"[1.1299407100304961, 1.226061322260648, 1.4179211631417274, 1.5939163803122938, 1.6579860430210829]",845.8281226488762,None,845.8280872484204,845.9283608240075,s178_08302022,001,2022_Aug_30_1314,test_typingtask_norepeats,2020.2.10,60.01283365007216,
lucky,lucky,,,,,,,,,0,8,8,8,,,,,,,,,,,,,,,851.3281901339069,None,"['l', 'u', 'c', 'k', 'y']",1,"[0.7659210823476315, 0.9659616001881659, 1.0458825291134417, 1.1819352181628346, 1.325950819067657]",851.3281901339069,None,851.3281688942109,851.4283272209577,s178_08302022,001,2022_Aug_30_1314,test_typingtask_norepeats,2020.2.10,60.01283365007216,
zibja,zibja,,,,,,,,,0,9,9,9,,,,,,,,,,,,,,,856.8280705292709,None,"['z', 'i', 'b', 'j', 'a']",1,"[0.9860708513297141, 1.154091581236571, 1.386110640130937, 1.6020851703360677, 1.6421245923265815]",856.8280705292709,None,856.8284447193612,856.9282500920817,s178_08302022,001,2022_Aug_30_1314,test_typingtask_norepeats,2020.2.10,60.01283365007216,
buddy,buddy,,,,,,,,,0,10,10,10,,,,,,,,,,,,,,,862.3280653283,None,"['b', 'u', 'd', 'd', 'y']",1,"[0.7820948041044176, 0.8620503940619528, 1.0780740501359105, 1.2221391489729285, 1.3020538939163089]",862.3280653283,None,862.328301185323,862.4281154489145,s178_08302022,001,2022_Aug_30_1314,test_typingtask_norepeats,2020.2.10,60.01283365007216,
about,about,,,,,,,,,0,11,11,11,,,,,,,,,,,,,,,867.8281707619317,None,"['a', 'b', 'o', 'u', 't']",1,"[0.681991680059582, 0.9299462288618088, 1.0019891220144928, 1.1938760532066226, 1.2499905549921095]",867.8281707619317,None,867.8282548431773,867.9282604171894,s178_08302022,001,2022_Aug_30_1314,test_typingtask_norepeats,2020.2.10,60.01283365007216,
think,think,,,,,,,,,0,12,12,12,,,,,,,,,,,,,,,873.3281776900403,None,"['t', 'h', 'i', 'n', 'k']",1,"[0.6699877376668155, 0.7339593176729977, 0.9260044749826193, 1.1019677948206663, 1.277962360996753]",873.3281776900403,None,873.3283678414766,873.4282757882029,s178_08302022,001,2022_Aug_30_1314,test_typingtask_norepeats,2020.2.10,60.01283365007216,
tithe,tithe,,,,,,,,,0,13,13,13,,,,,,,,,,,,,,,878.8281789342873,None,"['t', 'i', 't', 'h', 'e']",1,"[1.273936402052641, 1.3859878350049257, 1.5619798391126096, 1.6739850379526615, 1.7938748341985047]",878.8281789342873,None,878.8280645134394,878.9280186458491,s178_08302022,001,2022_Aug_30_1314,test_typingtask_norepeats,2020.2.10,60.01283365007216,
zibja,zibja,,,,,,,,,0,14,14,14,,,,,,,,,,,,,,,884.32834280096,None,"['z', 'i', 'b', 'j', 'a']",1,"[0.8936946871690452, 1.109702437184751, 1.3258368358947337, 1.6138039780780673, 1.6538094752468169]",884.32834280096,None,884.3281456293073,884.4283108641393,s178_08302022,001,2022_Aug_30_1314,test_typingtask_norepeats,2020.2.10,60.01283365007216,
would,would,,,,,,,,,0,15,15,15,,,,,,,,,,,,,,,889.8284423192963,None,"['w', 'o', 'u', 'l', 'd']",1,"[0.617606766987592, 0.6976153217256069, 0.8737351368181407, 1.0657196827232838, 1.1217329120263457]",889.8284423192963,None,889.8281177394558,889.9282704270445,s178_08302022,001,2022_Aug_30_1314,test_typingtask_norepeats,2020.2.10,60.01283365007216,
puppy,puppy,,,,,,,,,0,16,16,16,,,,,,,,,,,,,,,895.3284491952509,None,"['p', 'u', 'p', 'p', 'y']",1,"[1.4856721283867955, 1.7336001321673393, 2.013631490059197, 2.1496864520013332, 2.213705745059997]",895.3284491952509,None,895.3283654773143,895.4286346421577,s178_08302022,001,2022_Aug_30_1314,test_typingtask_norepeats,2020.2.10,60.01283365007216,
vanru,vanru,,,,,,,,,0,17,17,17,,,,,,,,,,,,,,,900.8283445192501,None,"['v', 'a', 'n', 'r', 'u']",1,"[0.7777931462042034, 1.0177121642045677, 1.1218629679642618, 1.249822844285518, 1.337770749349147]",900.8283445192501,None,900.8283213861753,900.9280932419933,s178_08302022,001,2022_Aug_30_1314,test_typingtask_norepeats,2020.2.10,60.01283365007216,
lucky,lucky,,,,,,,,,0,18,18,18,,,,,,,,,,,,,,,906.328321158886,None,"['l', 'u', 'c', 'k', 'y']",1,"[1.1897198571823537, 1.4618223421275616, 1.54981640400365, 1.6698075542226434, 1.82972675235942]",906.328321158886,None,906.3283809973393,906.428308616858,s178_08302022,001,2022_Aug_30_1314,test_typingtask_norepeats,2020.2.10,60.01283365007216,
cooed,cooed,,,,,,,,,0,19,19,19,,,,,,,,,,,,,,,911.8282644939609,None,"['c', 'o', 'o', 'e', 'd']",1,"[0.8978386130183935, 1.089907594025135, 1.233785851392895, 1.3618548572994769, 1.5699061742052436]",911.8282644939609,None,911.8283102182206,911.9283595820889,s178_08302022,001,2022_Aug_30_1314,test_typingtask_norepeats,2020.2.10,60.01283365007216,
kremp,kremp,,,,,,,,,0,20,20,20,,,,,,,,,,,,,,,917.3285475960001,None,"['k', 'r', 'e', 'm', 'p']",1,"[0.789507906883955, 0.8696298361755908, 0.9575818022713065, 1.069617671892047, 1.2775802752003074]",917.3285475960001,None,917.3283338514623,917.4283404401504,s178_08302022,001,2022_Aug_30_1314,test_typingtask_norepeats,2020.2.10,60.01283365007216,
haole,haole,,,,,,,,,0,21,21,21,,,,,,,,,,,,,,,922.828359275125,None,"['h', 'a', 'o', 'l', 'e']",1,"[0.8738039270974696, 0.9697957681491971, 1.1297599710524082, 1.2977642421610653, 1.3778683324344456]",922.828359275125,None,922.8283356433269,922.9283601040952,s178_08302022,001,2022_Aug_30_1314,test_typingtask_norepeats,2020.2.10,60.01283365007216,
kremp,kremp,,,,,,,,,0,22,22,22,,,,,,,,,,,,,,,928.3281766572036,None,"['k', 'r', 'e', 'm', 'p']",1,"[0.9499819679185748, 1.0379430041648448, 1.14203575020656, 1.2300188918597996, 1.446003313176334]",928.3281766572036,None,928.3285062010866,928.4282388519496,s178_08302022,001,2022_Aug_30_1314,test_typingtask_norepeats,2020.2.10,60.01283365007216,
cheer,cheer,,,,,,,,,0,23,23,23,,,,,,,,,,,,,,,933.8282311828807,None,"['c', 'h', 'e', 'e', 'r']",1,"[0.8499019863083959, 0.929904174990952, 1.1298568369820714, 1.273946194909513, 1.4019304271787405]",933.8282311828807,None,933.8285875511822,933.9283247659914,s178_08302022,001,2022_Aug_30_1314,test_typingtask_norepeats,2020.2.10,60.01283365007216,
buddy,buddy,,,,,,,,,0,24,24,24,,,,,,,,,,,,,,,939.3282592878677,None,"['b', 'u', 'd', 'd', 'y']",1,"[0.8059047739952803, 1.0058278469368815, 1.1818931140005589, 1.333789214026183, 1.389907798729837]",939.3282592878677,None,939.3282586643938,939.4285866511054,s178_08302022,001,2022_Aug_30_1314,test_typingtask_norepeats,2020.2.10,60.01283365007216,
therm,therm,,,,,,,,,0,25,25,25,,,,,,,,,,,,,,,944.8283430519514,None,"['t', 'h', 'e', 'r', 'm']",1,"[0.6976915039122105, 0.8017696901224554, 0.9216981530189514, 1.0416996078565717, 1.1457233550027013]",944.8283430519514,None,944.8281885963399,944.9282100428827,s178_08302022,001,2022_Aug_30_1314,test_typingtask_norepeats,2020.2.10,60.01283365007216,
heond,heond,,,,,,,,,0,26,26,26,,,,,,,,,,,,,,,950.3283506669104,None,"['h', 'e', 'o', 'n', 'd']",1,"[0.8138156030327082, 0.8618207070976496, 1.045788160059601, 1.245772616006434, 1.3177028470672667]",950.3283506669104,None,950.3283551154193,950.4282568059862,s178_08302022,001,2022_Aug_30_1314,test_typingtask_norepeats,2020.2.10,60.01283365007216,
edthe,edthe,,,,,,,,,0,27,27,27,,,,,,,,,,,,,,,955.8283921242692,None,"['e', 'd', 't', 'h', 'e']",1,"[0.7216696958057582, 0.9457256319001317, 1.1537436419166625, 1.24172449298203, 1.3297337666153908]",955.8283921242692,None,955.8282413264271,955.9286351748742,s178_08302022,001,2022_Aug_30_1314,test_typingtask_norepeats,2020.2.10,60.01283365007216,
there,there,,,,,,,,,0,28,28,28,,,,,,,,,,,,,,,961.3284573769197,None,"['t', 'h', 'e', 'r', 'e']",1,"[0.6777400886639953, 0.7656960319727659, 0.869643144775182, 0.9816732318140566, 1.1017485270276666]",961.3284573769197,None,961.3282469213475,961.4278897000477,s178_08302022,001,2022_Aug_30_1314,test_typingtask_norepeats,2020.2.10,60.01283365007216,
zibja,zibja,,,,,,,,,0,29,29,29,,,,,,,,,,,,,,,966.8282753732055,None,"['z', 'i', 'b', 'j', 'a']",1,"[0.9538847520016134, 1.1618476719595492, 1.3858933178707957, 1.5779184107668698, 1.6257598400115967]",966.8282753732055,None,966.8283817400691,966.928085307125,s178_08302022,001,2022_Aug_30_1314,test_typingtask_norepeats,2020.2.10,60.01283365007216,
heond,heond,,,,,,,,,0,30,30,30,,,,,,,,,,,,,,,972.329121270217,None,"['h', 'e', 'o', 'n', 'd']",1,"[0.8209889787249267, 0.8850544989109039, 1.0369928479194641, 1.2209379659034312, 1.3010184769518673]",972.329121270217,None,972.3285909900908,972.4280642350204,s178_08302022,001,2022_Aug_30_1314,test_typingtask_norepeats,2020.2.10,60.01283365007216,
cooed,cooed,,,,,,,,,0,31,31,31,,,,,,,,,,,,,,,977.8283555461094,None,"['c', 'o', 'o', 'e', 'd']",1,"[0.7618078151717782, 0.9057803922332823, 1.049802578985691, 1.1377202728763223, 1.3218224858865142]",977.8283555461094,None,977.828538431367,977.9282176229171,s178_08302022,001,2022_Aug_30_1314,test_typingtask_norepeats,2020.2.10,60.01283365007216,
champ,champ,,,,,,,,,0,32,32,32,,,,,,,,,,,,,,,983.3282419671305,None,"['c', 'h', 'a', 'm', 'p']",1,"[0.7098049437627196, 0.7578147486783564, 0.8698635599575937, 0.9578118720091879, 1.1498880656436086]",983.3282419671305,None,983.3284019763116,983.4280719840899,s178_08302022,001,2022_Aug_30_1314,test_typingtask_norepeats,2020.2.10,60.01283365007216,
lucky,lucky,,,,,,,,,0,33,33,33,,,,,,,,,,,,,,,988.8283840790391,None,"['l', 'u', 'c', 'k', 'y']",1,"[0.8417189121246338, 1.0657606390304863, 1.1616895967163146, 1.2657289011403918, 1.4417198379524052]",988.8283840790391,None,988.8286618153099,988.9285146598704,s178_08302022,001,2022_Aug_30_1314,test_typingtask_norepeats,2020.2.10,60.01283365007216,
druze,druze,,,,,,,,,0,34,34,34,,,,,,,,,,,,,,,994.3284621802159,None,"['d', 'r', 'u', 'z', 'e']",1,"[0.8055797517299652, 0.9897004989907146, 1.109573784749955, 1.2777198269031942, 1.5095712249167264]",994.3284621802159,None,994.3285193681252,994.4283279562369,s178_08302022,001,2022_Aug_30_1314,test_typingtask_norepeats,2020.2.10,60.01283365007216,
champ,champ,,,,,,,,,0,35,35,35,,,,,,,,,,,,,,,999.8282572841272,None,"['c', 'h', 'a', 'm', 'p']",1,"[0.6337935570627451, 0.7219265350140631, 0.8189637549221516, 0.9138736096210778, 1.1138794529251754]",999.8282572841272,None,999.8286314271857,999.9284763061441,s178_08302022,001,2022_Aug_30_1314,test_typingtask_norepeats,2020.2.10,60.01283365007216,
haole,haole,,,,,,,,,0,36,36,36,,,,,,,,,,,,,,,1005.3282733610831,None,"['h', 'a', 'o', 'l', 'e']",1,"[1.1338041960261762, 1.1978330542333424, 1.3417982389219105, 1.5018556099385023, 1.565885242074728]",1005.3282733610831,None,1005.3284224211704,1005.4286057529971,s178_08302022,001,2022_Aug_30_1314,test_typingtask_norepeats,2020.2.10,60.01283365007216,
edthe,edthe,,,,,,,,,0,37,37,37,,,,,,,,,,,,,,,1010.828282696195,None,"['e', 'd', 't', 'h', 'e']",1,"[0.705768080893904, 0.91387187410146, 1.0977907101623714, 1.1858580629341304, 1.273769007064402]",1010.828282696195,None,1010.8283421043773,1010.9285217961296,s178_08302022,001,2022_Aug_30_1314,test_typingtask_norepeats,2020.2.10,60.01283365007216,
tithe,tithe,,,,,,,,,0,38,38,38,,,,,,,,,,,,,,,1016.3284051902592,None,"['t', 'i', 't', 'h', 'e']",1,"[0.9176508830860257, 1.1417359439656138, 1.2937095612287521, 1.3897742480039597, 1.4936598162166774]",1016.3284051902592,None,1016.3285031491425,1016.4288131832145,s178_08302022,001,2022_Aug_30_1314,test_typingtask_norepeats,2020.2.10,60.01283365007216,
faqir,faqir,,,,,,,,,0,39,39,39,,,,,,,,,,,,,,,1021.8285760278814,None,"['f', 'a', 'q', 'i', 'r']",1,"[0.7615824490785599, 0.9295544540509582, 1.5135378963313997, 1.6094658393412828, 1.873483510222286]",1021.8285760278814,None,1021.8285274720286,1021.9284047381952,s178_08302022,001,2022_Aug_30_1314,test_typingtask_norepeats,2020.2.10,60.01283365007216,
would,would,,,,,,,,,0,40,40,40,,,,,,,,,,,,,,,1027.3285315078683,None,"['w', 'o', 'u', 'l', 'd']",1,"[0.6935174698010087, 0.7815850777551532, 0.9816009947098792, 1.181628068909049, 1.2376389149576426]",1027.3285315078683,None,1027.328443031339,1027.4284673160873,s178_08302022,001,2022_Aug_30_1314,test_typingtask_norepeats,2020.2.10,60.01283365007216,
cooed,cooed,,,,,,,,,0,41,41,41,,,,,,,,,,,,,,,1032.828698805999,None,"['c', 'o', 'o', 'e', 'd']",1,"[0.7774539408273995, 0.8973402390256524, 1.0414636596105993, 1.1374640120193362, 1.3054148647934198]",1032.828698805999,None,1032.828428696422,1032.9285409469157,s178_08302022,001,2022_Aug_30_1314,test_typingtask_norepeats,2020.2.10,60.01283365007216,
vodka,vodka,,,,,,,,,0,42,42,42,,,,,,,,,,,,,,,1038.328543601092,None,"['v', 'o', 'd', 'j', 'k', 'a']",0,"[0.7736206999979913, 0.8615863951854408, 0.997561352327466, 1.1655806303024292, 1.1735982559621334, 1.2216422902420163]",1038.328543601092,None,1038.3283577561845,1038.4283488811925,s178_08302022,001,2022_Aug_30_1314,test_typingtask_norepeats,2020.2.10,60.01283365007216,
tithe,tithe,,,,,,,,,0,43,43,43,,,,,,,,,,,,,,,1043.8284425442107,None,"['t', 'i', 't', 'h', 'e']",1,"[1.0176107012666762, 1.0896737491711974, 1.2416026662103832, 1.3137169000692666, 1.4256186801940203]",1043.8284425442107,None,1043.8285455680918,1043.928692438174,s178_08302022,001,2022_Aug_30_1314,test_typingtask_norepeats,2020.2.10,60.01283365007216,
think,think,,,,,,,,,0,44,44,44,,,,,,,,,,,,,,,1049.328536333982,None,"['t', 'h', 'i', 'n', 'k']",1,"[0.7576274531893432, 0.8295108331367373, 1.021539052017033, 1.2295442619360983, 1.40558828599751]",1049.328536333982,None,1049.3286144873593,1049.428362398874,s178_08302022,001,2022_Aug_30_1314,test_typingtask_norepeats,2020.2.10,60.01283365007216,
vodka,vodka,,,,,,,,,0,45,45,45,,,,,,,,,,,,,,,1054.82824114291,None,"['v', 'o', 'd', 'k', 'a']",1,"[0.985901874024421, 1.049843861721456, 1.2337885238230228, 1.3778117587789893, 1.4418039708398283]",1054.82824114291,None,1054.8286486361642,1054.928547419142,s178_08302022,001,2022_Aug_30_1314,test_typingtask_norepeats,2020.2.10,60.01283365007216,
faqir,faqir,,,,,,,,,0,46,46,46,,,,,,,,,,,,,,,1060.328737791162,None,"['f', 'a', 'q', 'i', 'r']",1,"[0.7573198108002543, 1.069392768200487, 1.4054214050993323, 1.525320575106889, 1.7014197311364114]",1060.328737791162,None,1060.3285066634883,1060.4284721491858,s178_08302022,001,2022_Aug_30_1314,test_typingtask_norepeats,2020.2.10,60.01283365007216,
champ,champ,,,,,,,,,0,47,47,47,,,,,,,,,,,,,,,1065.8284891140647,None,"['c', 'h', 'a', 'm', 'p']",1,"[0.7935983273200691, 0.8896188209764659, 0.9776932541280985, 1.1136670582927763, 1.321668716147542]",1065.8284891140647,None,1065.8284483212512,1065.928900317289,s178_08302022,001,2022_Aug_30_1314,test_typingtask_norepeats,2020.2.10,60.01283365007216,
edthe,edthe,,,,,,,,,0,48,48,48,,,,,,,,,,,,,,,1071.3285263138823,None,"['e', 'd', 't', 'h', 'e']",1,"[0.7095339107327163, 0.9175382386893034, 1.1095244949683547, 1.2136257938109338, 1.2775348876602948]",1071.3285263138823,None,1071.328662729403,1071.428574948106,s178_08302022,001,2022_Aug_30_1314,test_typingtask_norepeats,2020.2.10,60.01283365007216,
about,about,,,,,,,,,0,49,49,49,,,,,,,,,,,,,,,1076.828334724065,None,"['a', 'b', 'o', 'u', 't']",1,"[0.6097180056385696, 0.8578436216339469, 0.9297086438164115, 1.1138332937844098, 1.169839150737971]",1076.828334724065,None,1076.8285048180726,1076.9287789091468,s178_08302022,001,2022_Aug_30_1314,test_typingtask_norepeats,2020.2.10,60.01283365007216,
think,think,,,,,,,,,0,50,50,50,,,,,,,,,,,,,,,1082.3284789612517,None,"['t', 'h', 'i', 'n', 'k']",1,"[0.6936191911809146, 0.7816183450631797, 0.9656618111766875, 1.133575201034546, 1.2936330190859735]",1082.3284789612517,None,1082.3285590280313,1082.4285568110645,s178_08302022,001,2022_Aug_30_1314,test_typingtask_norepeats,2020.2.10,60.01283365007216,
faqir,faqir,,,,,,,,,0,51,51,51,,,,,,,,,,,,,,,1087.8283841460943,None,"['f', 'a', 'q', 'i', 'r']",1,"[0.7537797503173351, 0.9137727352790534, 1.2576516442932189, 1.3537845420651138, 1.505733144003898]",1087.8283841460943,None,1087.8285449054558,1087.9284126651473,s178_08302022,001,2022_Aug_30_1314,test_typingtask_norepeats,2020.2.10,60.01283365007216,
vanru,vanru,,,,,,,,,0,52,52,52,,,,,,,,,,,,,,,1093.3285664031282,None,"['v', 'a', 'n', 'r', 'u']",1,"[0.7495669559575617, 0.9094955958425999, 1.0375594878569245, 1.1495631667785347, 1.2615293827839196]",1093.3285664031282,None,1093.3287558863406,1093.4289022251032,s178_08302022,001,2022_Aug_30_1314,test_typingtask_norepeats,2020.2.10,60.01283365007216,
would,would,,,,,,,,,0,53,53,53,,,,,,,,,,,,,,,1098.8286229739897,None,"['w', 'o', 'u', 'l', 'd']",1,"[0.8254259219393134, 0.9055142346769571, 1.1055344296619296, 1.2975007900968194, 1.3214859920553863]",1098.8286229739897,None,1098.8286321191583,1098.92871993687,s178_08302022,001,2022_Aug_30_1314,test_typingtask_norepeats,2020.2.10,60.01283365007216,
cooed,cooed,,,,,,,,,0,54,54,54,,,,,,,,,,,,,,,1104.3287240732461,None,"['c', 'o', 'o', 'e', 'd', 'e']",0,"[0.6933229411952198, 0.837331279180944, 0.9814323768950999, 1.0614516171626747, 1.2374096210114658, 1.2454229411669075]",1104.3287240732461,None,1104.3284105770756,1104.428637244273,s178_08302022,001,2022_Aug_30_1314,test_typingtask_norepeats,2020.2.10,60.01283365007216,
would,would,,,,,,,,,0,55,55,55,,,,,,,,,,,,,,,1109.8285256912932,None,"['w', 'o', 'u', 'l', 'd']",1,"[0.7376240231096745, 0.8255237932316959, 1.0175257022492588, 1.2095225099474192, 1.2735391152091324]",1109.8285256912932,None,1109.8285106490832,1109.928953466937,s178_08302022,001,2022_Aug_30_1314,test_typingtask_norepeats,2020.2.10,60.01283365007216,
belly,belly,,,,,,,,,0,56,56,56,,,,,,,,,,,,,,,1115.3284977888688,None,"['b', 'e', 'l', 'l', 'y']",1,"[0.7656077747233212, 0.8136801226064563, 1.0376714426092803, 1.1815817425958812, 1.2456599469296634]",1115.3284977888688,None,1115.3286622902845,1115.428454875946,s178_08302022,001,2022_Aug_30_1314,test_typingtask_norepeats,2020.2.10,60.01283365007216,
puppy,puppy,,,,,,,,,0,57,57,57,,,,,,,,,,,,,,,1120.8284873161465,None,"['p', 'u', 'p', 'p', 'y']",1,"[1.3056539669632912, 1.553677452262491, 1.785639061126858, 1.9056905042380095, 1.993567354977131]",1120.8284873161465,None,1120.8286372870673,1120.9283836819232,s178_08302022,001,2022_Aug_30_1314,test_typingtask_norepeats,2020.2.10,60.01283365007216,
faqir,faqir,,,,,,,,,0,58,58,58,,,,,,,,,,,,,,,1126.3286285218783,None,"['f', 'a', 'q', 'i', 'r']",1,"[0.7334775971248746, 0.9975075121037662, 1.4134669532068074, 1.5334845730103552, 1.6855348921380937]",1126.3286285218783,None,1126.3286718954798,1126.4285886660218,s178_08302022,001,2022_Aug_30_1314,test_typingtask_norepeats,2020.2.10,60.01283365007216,
heond,heond,,,,,,,,,0,59,59,59,,,,,,,,,,,,,,,1131.8287422382273,None,"['h', 'e', 'o', 'n', 'd']",1,"[0.7454076739959419, 0.809316448867321, 0.9533831202425063, 1.1293309298343956, 1.2093120701611042]",1131.8287422382273,None,1131.829102883162,1131.9286608211696,s178_08302022,001,2022_Aug_30_1314,test_typingtask_norepeats,2020.2.10,60.01283365007216,
druze,druze,,,,,,,,,0,60,60,60,,,,,,,,,,,,,,,1137.3288369309157,None,"['d', 'r', 'u', 'z', 'e']",1,"[0.7252227999269962, 0.9172106692567468, 0.9973163031972945, 1.1732818679884076, 1.421279476955533]",1137.3288369309157,None,1137.3287479631138,1137.428613631986,s178_08302022,001,2022_Aug_30_1314,test_typingtask_norepeats,2020.2.10,60.01283365007216,
haole,haole,,,,,,,,,0,61,61,61,,,,,,,,,,,,,,,1142.8287025131285,None,"['h', 'a', 'o', 'l', 'e']",1,"[0.7613832070492208, 0.8494204850867391, 1.0013519432395697, 1.1854260279797018, 1.2413552929647267]",1142.8287025131285,None,1142.828685152391,1142.9282560450956,s178_08302022,001,2022_Aug_30_1314,test_typingtask_norepeats,2020.2.10,60.01283365007216,
heond,heond,,,,,,,,,0,62,62,62,,,,,,,,,,,,,,,1148.3286495022476,None,"['h', 'e', 'o', 'n', 'd']",1,"[0.8614975800737739, 0.9335156506858766, 1.0695096789859235, 1.2614799328148365, 1.3254012009128928]",1148.3286495022476,None,1148.3285470572766,1148.4281937200576,s178_08302022,001,2022_Aug_30_1314,test_typingtask_norepeats,2020.2.10,60.01283365007216,
about,about,,,,,,,,,0,63,63,63,,,,,,,,,,,,,,,1153.8284947690554,None,"['a', 'b', 'o', 'u', 't']",1,"[0.6416272511705756, 0.8895832290872931, 0.9616421451792121, 1.1696627070195973, 1.2255478999577463]",1153.8284947690554,None,1153.8286427683663,1153.9281793800183,s178_08302022,001,2022_Aug_30_1314,test_typingtask_norepeats,2020.2.10,60.01283365007216,
kremp,kremp,,,,,,,,,0,64,64,64,,,,,,,,,,,,,,,1159.32854489889,None,"['k', 'r', 'e', 'm', 'p']",1,"[0.9015464512631297, 0.9975860742852092, 1.0616015843115747, 1.221507650334388, 1.4216320542618632]",1159.32854489889,None,1159.3286487004254,1159.42896831315,s178_08302022,001,2022_Aug_30_1314,test_typingtask_norepeats,2020.2.10,60.01283365007216,
tithe,tithe,,,,,,,,,0,65,65,65,,,,,,,,,,,,,,,1164.8285273271613,None,"['t', 'i', 't', 'h', 'e']",1,"[0.8976319348439574, 0.977600353769958, 1.1056430507451296, 1.2015956216491759, 1.2976042269729078]",1164.8285273271613,None,1164.8286854131613,1164.9285926311277,s178_08302022,001,2022_Aug_30_1314,test_typingtask_norepeats,2020.2.10,60.01283365007216,
haole,haole,,,,,,,,,0,66,66,66,,,,,,,,,,,,,,,1170.3285595192574,None,"['j', 'h', 'a', 'o', 'l', 'e']",0,"[0.7095034057274461, 0.7095034057274461, 1.7174914297647774, 1.8295180718414485, 1.989623553585261, 2.045644952915609]",1170.3285595192574,None,1170.3286417131778,1170.4287542873062,s178_08302022,001,2022_Aug_30_1314,test_typingtask_norepeats,2020.2.10,60.01283365007216,
cheer,cheer,,,,,,,,,0,67,67,67,,,,,,,,,,,,,,,1175.8286400260404,None,"['c', 'v', 'h', 'e', 'e', 'r']",0,"[0.7934624720364809, 0.801435493864119, 0.8734714649617672, 1.073518737219274, 1.225451669190079, 1.3375305980443954]",1175.8286400260404,None,1175.8286260124762,1175.928688524291,s178_08302022,001,2022_Aug_30_1314,test_typingtask_norepeats,2020.2.10,60.01283365007216,
about,about,,,,,,,,,0,68,68,68,,,,,,,,,,,,,,,1181.3286357158795,None,"['a', 'b', 'o', 'u', 't']",1,"[0.6135194189846516, 0.909399013966322, 0.9894117610529065, 1.18146187113598, 1.2454373268410563]",1181.3286357158795,None,1181.328648074111,1181.4284422611818,s178_08302022,001,2022_Aug_30_1314,test_typingtask_norepeats,2020.2.10,60.01283365007216,
therm,therm,,,,,,,,,0,69,69,69,,,,,,,,,,,,,,,1186.8287021098658,None,"['t', 'h', 'e', 'r', 'm']",1,"[0.6414765599183738, 0.7374432319775224, 0.8813785412348807, 0.9933453579433262, 1.1053747702389956]",1186.8287021098658,None,1186.8288536030334,1186.9284315961413,s178_08302022,001,2022_Aug_30_1314,test_typingtask_norepeats,2020.2.10,60.01283365007216,
cheer,cheer,,,,,,,,,0,70,70,70,,,,,,,,,,,,,,,1192.3286581248976,None,"['c', 'h', 'e', 'e', 'r']",1,"[0.7814024789258838, 0.8535114750266075, 1.0774226756766438, 1.2294228309765458, 1.3575504370965064]",1192.3286581248976,None,1192.3288254142274,1192.4286142969504,s178_08302022,001,2022_Aug_30_1314,test_typingtask_norepeats,2020.2.10,60.01283365007216,
heond,heond,,,,,,,,,0,71,71,71,,,,,,,,,,,,,,,1197.8285816418938,None,"['h', 'e', 'o', 'n', 'd']",1,"[0.7615550141781569, 0.9695108220912516, 1.1055669519118965, 1.3135816110298038, 1.3934758459217846]",1197.8285816418938,None,1197.8288615984377,1197.9285554690287,s178_08302022,001,2022_Aug_30_1314,test_typingtask_norepeats,2020.2.10,60.01283365007216,
vodka,vodka,,,,,,,,,0,72,72,72,,,,,,,,,,,,,,,1203.32883821195,None,"['v', 'o', 'd', 'k', 'a']",1,"[0.8853114838711917, 0.9973160605877638, 1.2132529648952186, 1.469275735784322, 1.557327906601131]",1203.32883821195,None,1203.3287660452072,1203.4287125701085,s178_08302022,001,2022_Aug_30_1314,test_typingtask_norepeats,2020.2.10,60.01283365007216,
theme,theme,,,,,,,,,0,73,73,73,,,,,,,,,,,,,,,1208.828909332864,None,"['t', 'g', 'h', 'e', 'm', 'e']",0,"[0.7452698149718344, 0.7691885181702673, 0.8332208311185241, 0.9532583169639111, 1.1052963198162615, 1.1772324400953948]",1208.828909332864,None,1208.828643258242,1208.9291219059378,s178_08302022,001,2022_Aug_30_1314,test_typingtask_norepeats,2020.2.10,60.01283365007216,
champ,champ,,,,,,,,,0,74,74,74,,,,,,,,,,,,,,,1214.3284812942147,None,"['c', 'h', 'a', 'm', 'p']",1,"[0.7336470573209226, 0.8216385850682855, 0.949634063988924, 1.061661384999752, 1.2696405532769859]",1214.3284812942147,None,1214.3287656652276,1214.4291289709508,s178_08302022,001,2022_Aug_30_1314,test_typingtask_norepeats,2020.2.10,60.01283365007216,
belly,belly,,,,,,,,,0,75,75,75,,,,,,,,,,,,,,,1219.828693407122,None,"['b', 'e', 'l', 'l', 'y']",1,"[0.7853477741591632, 0.857469080016017, 1.0814101160503924, 1.2093574292957783, 1.2813681112602353]",1219.828693407122,None,1219.8287388943602,1219.9288707482629,s178_08302022,001,2022_Aug_30_1314,test_typingtask_norepeats,2020.2.10,60.01283365007216,
there,there,,,,,,,,,0,76,76,76,,,,,,,,,,,,,,,1225.328715823125,None,"['t', 'h', 'e', 'r', 'e']",1,"[0.733443096280098, 0.837437747977674, 0.9494371563196182, 1.0933674373663962, 1.1973965493962169]",1225.328715823125,None,1225.3287380910945,1225.4287195242941,s178_08302022,001,2022_Aug_30_1314,test_typingtask_norepeats,2020.2.10,60.01283365007216,
vanru,vanru,,,,,,,,,0,77,77,77,,,,,,,,,,,,,,,1230.828622146044,None,"['v', 'a', 'n', 'r', 'u']",1,"[0.9615603336133063, 1.0255933976732194, 1.1855305559001863, 1.2975441766902804, 1.4014411456882954]",1230.828622146044,None,1230.8287435831037,1230.9286536430009,s178_08302022,001,2022_Aug_30_1314,test_typingtask_norepeats,2020.2.10,60.01283365007216,
zibja,zibja,,,,,,,,,0,78,78,78,,,,,,,,,,,,,,,1236.3285796050914,None,"['z', 'i', 'b', 'j', 'a']",1,"[1.3495182343758643, 1.4774907799437642, 1.701469138264656, 1.9094622302800417, 1.965540195349604]",1236.3285796050914,None,1236.3288599011023,1236.4287197440863,s178_08302022,001,2022_Aug_30_1314,test_typingtask_norepeats,2020.2.10,60.01283365007216,
think,think,,,,,,,,,0,79,79,79,,,,,,,,,,,,,,,1241.828745368868,None,"['t', 'h', 'i', 'n', 'k']",1,"[0.7054648576304317, 0.7853865646757185, 0.985382738057524, 1.1933375499211252, 1.39333602366969]",1241.828745368868,None,1241.8287618621719,1241.9289079383016,s178_08302022,001,2022_Aug_30_1314,test_typingtask_norepeats,2020.2.10,60.01283365007216,
druze,druze,,,,,,,,,0,80,80,80,,,,,,,,,,,,,,,1247.3288374431431,None,"['d', 'r', 'u', 'z', 'e']",1,"[0.8613504059612751, 1.0373347229324281, 1.1653121458366513, 1.3892274149693549, 1.6772068990394473]",1247.3288374431431,None,1247.3285831003916,1247.4290274782106,s178_08302022,001,2022_Aug_30_1314,test_typingtask_norepeats,2020.2.10,60.01283365007216,
pykka,pykka,,,,,,,,,0,81,81,81,,,,,,,,,,,,,,,1252.8289155201055,None,"['p', 'y', 'k', 'k', 'a']",1,"[0.7692506262101233, 1.1771513880230486, 1.4892412880435586, 1.6171336681582034, 1.7212544120848179]",1252.8289155201055,None,1252.8286620784086,1252.9288866179995,s178_08302022,001,2022_Aug_30_1314,test_typingtask_norepeats,2020.2.10,60.01283365007216,
edthe,edthe,,,,,,,,,0,82,82,82,,,,,,,,,,,,,,,1258.3288093181327,None,"['e', 'd', 't', 'h', 'e']",1,"[0.7573491609655321, 0.9813098958693445, 1.173354092054069, 1.2532899118959904, 1.341349151916802]",1258.3288093181327,None,1258.3289007791784,1258.428648820147,s178_08302022,001,2022_Aug_30_1314,test_typingtask_norepeats,2020.2.10,60.01283365007216,
kremp,kremp,,,,,,,,,0,83,83,83,,,,,,,,,,,,,,,1263.8285843161866,None,"['k', 'r', 'e', 'm', 'p']",1,"[0.7855500099249184, 0.8495620978064835, 0.9455470377579331, 1.0814848495647311, 1.2655487288720906]",1263.8285843161866,None,1263.828673032159,1263.9285074989311,s178_08302022,001,2022_Aug_30_1314,test_typingtask_norepeats,2020.2.10,60.01283365007216,
about,about,,,,,,,,,0,84,84,84,,,,,,,,,,,,,,,1269.3288362049498,None,"['a', 'b', 'o', 'u', 't']",1,"[0.7892154832370579, 1.0292390040121973, 1.1092239222489297, 1.2932225931435823, 1.3572749313898385]",1269.3288362049498,None,1269.3290236643982,1269.4286293191835,s178_08302022,001,2022_Aug_30_1314,test_typingtask_norepeats,2020.2.10,60.01283365007216,
therm,therm,,,,,,,,,0,85,85,85,,,,,,,,,,,,,,,1274.8288622270338,None,"['t', 'h', 'e', 'r', 'm']",1,"[0.6652626558206975, 0.7612833678722382, 0.8733196747489274, 0.9852803940884769, 1.0973092699423432]",1274.8288622270338,None,1274.8289353400935,1274.928868687246,s178_08302022,001,2022_Aug_30_1314,test_typingtask_norepeats,2020.2.10,60.01283365007216,
belly,belly,,,,,,,,,0,86,86,86,,,,,,,,,,,,,,,1280.3288337909617,None,"['b', 'e', 'l', 'l', 'y']",1,"[0.8373176590539515, 0.9012128179892898, 1.1253239721991122, 1.269313641358167, 1.333314458373934]",1280.3288337909617,None,1280.3289832310286,1280.4289299650118,s178_08302022,001,2022_Aug_30_1314,test_typingtask_norepeats,2020.2.10,60.01283365007216,
faqir,faqir,,,,,,,,,0,87,87,87,,,,,,,,,,,,,,,1285.8287790641189,None,"['f', 'a', 'q', 'i', 'r']",1,"[0.7453643148764968, 0.8893807148560882, 1.1533833290450275, 1.2812966806814075, 1.4413963668048382]",1285.8287790641189,None,1285.8288192111534,1285.9288064730354,s178_08302022,001,2022_Aug_30_1314,test_typingtask_norepeats,2020.2.10,60.01283365007216,
edthe,edthe,,,,,,,,,0,88,88,88,,,,,,,,,,,,,,,1291.3287005792372,None,"['e', 'c', 'd', 'd', 't', 'h', 'e']",0,"[0.6694646659307182, 0.8934220881201327, 0.9093433520756662, 2.1173472101800144, 2.317347928881645, 2.405475868843496, 2.485387569759041]",1291.3287005792372,None,1291.3287179004867,1291.429219677113,s178_08302022,001,2022_Aug_30_1314,test_typingtask_norepeats,2020.2.10,60.01283365007216,
belly,belly,,,,,,,,,0,89,89,89,,,,,,,,,,,,,,,1296.8287078258581,None,"['b', 'e', 'l', 'l', 'y']",1,"[0.841465522069484, 0.9213435500860214, 1.1694606370292604, 1.329339625313878, 1.3773375991731882]",1296.8287078258581,None,1296.8288361873012,1296.9287691880018,s178_08302022,001,2022_Aug_30_1314,test_typingtask_norepeats,2020.2.10,60.01283365007216,
buddy,buddy,,,,,,,,,0,90,90,90,,,,,,,,,,,,,,,1302.32868206501,None,"['b', 'u', 'd', 'd', 'y']",1,"[0.7894402369856834, 1.0214464259333909, 1.1734939347952604, 1.325539377052337, 1.4134853738360107]",1302.32868206501,None,1302.3288325714414,1302.4290387900546,s178_08302022,001,2022_Aug_30_1314,test_typingtask_norepeats,2020.2.10,60.01283365007216,
think,think,,,,,,,,,0,91,91,91,,,,,,,,,,,,,,,1307.8288544779643,None,"['t', 'h', 'i', 'n', 'k']",1,"[0.7533037075772882, 0.8253908576443791, 1.0413042795844376, 1.2492456226609647, 1.4412223566323519]",1307.8288544779643,None,1307.828873699112,1307.9288411079906,s178_08302022,001,2022_Aug_30_1314,test_typingtask_norepeats,2020.2.10,60.01283365007216,
pykka,pykka,,,,,,,,,0,92,92,92,,,,,,,,,,,,,,,1313.3286702372134,None,"['p', 'y', 'k', 'k', 'a']",1,"[0.7255526687949896, 0.9814250897616148, 1.2293738550506532, 1.365484748966992, 1.4374578217975795]",1313.3286702372134,None,1313.3290029853117,1313.4292683959939,s178_08302022,001,2022_Aug_30_1314,test_typingtask_norepeats,2020.2.10,60.01283365007216,
cheer,cheer,,,,,,,,,0,93,93,93,,,,,,,,,,,,,,,1318.828764359001,None,"['c', 'h', 'e', 'e', 'r']",1,"[0.9614387201145291, 1.073396760970354, 1.2493918500840664, 1.3932950659655035, 1.5213620401918888]",1318.828764359001,None,1318.828807894187,1318.9288126030006,s178_08302022,001,2022_Aug_30_1314,test_typingtask_norepeats,2020.2.10,60.01283365007216,
zibja,zibja,,,,,,,,,0,94,94,94,,,,,,,,,,,,,,,1324.3289920440875,None,"['z', 'i', 'b', 'j', 'a']",1,"[1.1890770602039993, 1.461151486262679, 1.6930710510350764, 1.9010586282238364, 1.9731212500482798]",1324.3289920440875,None,1324.3287184131798,1324.4289010879584,s178_08302022,001,2022_Aug_30_1314,test_typingtask_norepeats,2020.2.10,60.01283365007216,
druze,druze,,,,,,,,,0,95,95,95,,,,,,,,,,,,,,,1329.8288517710753,None,"['d', 'r', 'u', 'z', 'd', 'e']",0,"[0.7612939793616533, 0.9533152263611555, 1.057360203936696, 1.2812069151550531, 1.5372965391725302, 2.3853102941066027]",1329.8288517710753,None,1329.8286750470754,1329.9286286081187,s178_08302022,001,2022_Aug_30_1314,test_typingtask_norepeats,2020.2.10,60.01283365007216,
vanru,vanru,,,,,,,,,0,96,96,96,,,,,,,,,,,,,,,1335.328879706096,None,"['v', 'a', 'n', 'r', 'u']",1,"[0.7652811021544039, 0.8212332432158291, 0.9811833840794861, 1.1091908561065793, 1.2132275709882379]",1335.328879706096,None,1335.3289457252715,1335.4286681301892,s178_08302022,001,2022_Aug_30_1314,test_typingtask_norepeats,2020.2.10,60.01283365007216,
lucky,lucky,,,,,,,,,0,97,97,97,,,,,,,,,,,,,,,1340.8287601969205,None,"['l', 'u', 'c', 'k', 'y']",1,"[0.8093670597299933, 1.0012926668860018, 1.0974061298184097, 1.209332271013409, 1.3534045540727675]",1340.8287601969205,None,1340.82910669134,1340.9289393578656,s178_08302022,001,2022_Aug_30_1314,test_typingtask_norepeats,2020.2.10,60.01283365007216,
champ,champ,,,,,,,,,0,98,98,98,,,,,,,,,,,,,,,1346.3289336990565,None,"['c', 'h', 'a', 'm', 'p']",1,"[0.7571808993816376, 0.8372447299771011, 0.9571414501406252, 1.0612001679837704, 1.2771039311774075]",1346.3289336990565,None,1346.3289084830787,1346.4288406050764,s178_08302022,001,2022_Aug_30_1314,test_typingtask_norepeats,2020.2.10,60.01283365007216,
pykka,pykka,,,,,,,,,0,99,99,99,,,,,,,,,,,,,,,1351.8289154870436,None,"['p', 'y', 'k', 'k', 'a']",1,"[0.75323292799294, 0.9771275869570673, 1.2332086181268096, 1.3612020341679454, 1.4492366900667548]",1351.8289154870436,None,1351.8288934510667,1351.9289084570482,s178_08302022,001,2022_Aug_30_1314,test_typingtask_norepeats,2020.2.10,60.01283365007216,
haole,haole,,,,,,,,,0,100,100,100,,,,,,,,,,,,,,,1357.3288452113047,None,"['h', 'a', 'o', 'l', 'e']",1,"[0.7972804480232298, 0.8771979981102049, 1.0292404163628817, 1.1892073941417038, 1.2533032963983715]",1357.3288452113047,None,1357.3289685822558,1357.4289036402479,s178_08302022,001,2022_Aug_30_1314,test_typingtask_norepeats,2020.2.10,60.01283365007216,
buddy,buddy,,,,,,,,,0,101,101,101,,,,,,,,,,,,,,,1362.8288592342287,None,"['b', 'u', 'd', 'd', 'y']",1,"[0.8572228783741593, 1.5852350043132901, 1.8092227573506534, 1.9613234563730657, 2.025198151357472]",1362.8288592342287,None,1362.8290033494588,1362.9288717810996,s178_08302022,001,2022_Aug_30_1314,test_typingtask_norepeats,2020.2.10,60.01283365007216,
druze,druze,,,,,,,,,0,102,102,102,,,,,,,,,,,,,,,1368.3288884260692,None,"['d', 'r', 'u', 'z', 'e']",1,"[0.7732272706925869, 1.0132179376669228, 1.1171597326174378, 1.3892724816687405, 1.6852842029184103]",1368.3288884260692,None,1368.328904251149,1368.4311634642072,s178_08302022,001,2022_Aug_30_1314,test_typingtask_norepeats,2020.2.10,60.01283365007216,
buddy,buddy,,,,,,,,,0,103,103,103,,,,,,,,,,,,,,,1373.828738650307,None,"['b', 'u', 'd', 'd', 'y']",1,"[0.6733815078623593, 0.8813584106974304, 1.0494061717763543, 1.2094648936763406, 1.2813967010006309]",1373.828738650307,None,1373.8290167022963,1373.9288805183023,s178_08302022,001,2022_Aug_30_1314,test_typingtask_norepeats,2020.2.10,60.01283365007216,
theme,theme,,,,,,,,,0,104,104,104,,,,,,,,,,,,,,,1379.3287904439494,None,"['t', 'h', 'e', 'm', 'e']",1,"[0.7012514639645815, 0.8133305232040584, 0.9172576949931681, 1.0293308589607477, 1.1093237181194127]",1379.3287904439494,None,1379.3290940402542,1379.4290837422013,s178_08302022,001,2022_Aug_30_1314,test_typingtask_norepeats,2020.2.10,60.01283365007216,
vanru,vanru,,,,,,,,,0,105,105,105,,,,,,,,,,,,,,,1384.8289161412977,None,"['b', 'a', 'n', 'r', 'u']",0,"[0.721156335901469, 0.7852062359452248, 2.1291451449505985, 2.353247639723122, 2.433241620659828]",1384.8289161412977,None,1384.8290476580617,1384.9289332912304,s178_08302022,001,2022_Aug_30_1314,test_typingtask_norepeats,2020.2.10,60.01283365007216,
puppy,puppy,,,,,,,,,0,106,106,106,,,,,,,,,,,,,,,1390.3454830152914,None,"['p', 'u', 'p', 'p', 'y']",1,"[0.7965889312326908, 0.9967070082202554, 1.2686662198975682, 1.3966747829690576, 1.4765598801895976]",1390.3454830152914,None,1390.3456539842766,1390.4454625202343,s178_08302022,001,2022_Aug_30_1314,test_typingtask_norepeats,2020.2.10,60.01283365007216,
kremp,kremp,,,,,,,,,0,107,107,107,,,,,,,,,,,,,,,1395.8455942431465,None,"['k', 'r', 'e', 'm', 'p']",1,"[0.7685673949308693, 0.8325844323262572, 0.9285222571343184, 1.024498051032424, 1.2086314312182367]",1395.8455942431465,None,1395.8455778263044,1395.9454369870946,s178_08302022,001,2022_Aug_30_1314,test_typingtask_norepeats,2020.2.10,60.01283365007216,
theme,theme,,,,,,,,,0,108,108,108,,,,,,,,,,,,,,,1401.3457619720139,None,"['t', 'h', 'e', 'm', 'e']",1,"[0.7003079010173678, 0.780412157997489, 0.8842951799742877, 0.9723039600066841, 1.044439421966672]",1401.3457619720139,None,1401.345867975196,1401.445618736092,s178_08302022,001,2022_Aug_30_1314,test_typingtask_norepeats,2020.2.10,60.01283365007216,
there,there,,,,,,,,,0,109,109,109,,,,,,,,,,,,,,,1406.845696607139,None,"['t', 'h', 'e', 'r', 'e']",1,"[0.7204713588580489, 0.8003836190328002, 0.9123367690481246, 1.0085131912492216, 1.112409245222807]",1406.845696607139,None,1406.845852709422,1406.9456778238527,s178_08302022,001,2022_Aug_30_1314,test_typingtask_norepeats,2020.2.10,60.01283365007216,
puppy,puppy,,,,,,,,,0,110,110,110,,,,,,,,,,,,,,,1412.3456536009908,None,"['p', 'u', 'p', 'p', 'y']",1,"[0.6604315941222012, 0.8764086039736867, 1.1004372341558337, 1.244560033082962, 1.3085474441759288]",1412.3456536009908,None,1412.3457947280724,1412.4456886029802,s178_08302022,001,2022_Aug_30_1314,test_typingtask_norepeats,2020.2.10,60.01283365007216,
there,there,,,,,,,,,0,111,111,111,,,,,,,,,,,,,,,1417.845693229232,None,"['t', 'h', 'e', 'r', 'e']",1,"[0.7364728599786758, 0.8086095782928169, 0.9364264099858701, 1.0404660641215742, 1.1364695942029357]",1417.845693229232,None,1417.8458296601195,1417.9456534190103,s178_08302022,001,2022_Aug_30_1314,test_typingtask_norepeats,2020.2.10,60.01283365007216,
theme,theme,,,,,,,,,0,112,112,112,,,,,,,,,,,,,,,1423.3456396562979,None,"['t', 'h', 'e', 'm', 'e']",1,"[0.7325281100347638, 0.8044865829870105, 0.9085548557341099, 1.0124939777888358, 1.0844082059338689]",1423.3456396562979,None,1423.3454504521098,1423.4458362711594,s178_08302022,001,2022_Aug_30_1314,test_typingtask_norepeats,2020.2.10,60.01283365007216,
puppy,puppy,,,,,,,,,0,113,113,113,,,,,,,,,,,,,,,1428.8455575099215,None,"['p', 'u', 'p', 'p', 'y']",1,"[1.1045516389422119, 1.4246085709892213, 1.6645311382599175, 1.8005322171375155, 1.8965387330390513]",1428.8455575099215,None,1428.8455687673297,1428.9457383290865,s178_08302022,001,2022_Aug_30_1314,test_typingtask_norepeats,2020.2.10,60.01283365007216,
lucky,lucky,,,,,,,,,0,114,114,114,,,,,,,,,,,,,,,1434.3455679062754,None,"['l', 'u', 'c', 'k', 'y']",1,"[0.7165596010163426, 0.9244831381365657, 1.0205613411962986, 1.140485486947, 1.2924854131415486]",1434.3455679062754,None,1434.3457094352227,1434.4456210578792,s178_08302022,001,2022_Aug_30_1314,test_typingtask_norepeats,2020.2.10,60.01283365007216,
cheer,cheer,,,,,,,,,0,115,115,115,,,,,,,,,,,,,,,1439.845792036038,None,"['c', 'h', 'e', 'e', 'r']",1,"[0.7363680941052735, 0.8243827549740672, 1.0244186990894377, 1.176263782195747, 1.2962877792306244]",1439.845792036038,None,1439.84582339325,1439.9456928973086,s178_08302022,001,2022_Aug_30_1314,test_typingtask_norepeats,2020.2.10,60.01283365007216,
tithe,tithe,,,,,,,,,0,116,116,116,,,,,,,,,,,,,,,1445.345694986172,None,"['t', 'i', 't', 'h', 'e']",1,"[0.7724266019649804, 1.044475648086518, 1.2124049002304673, 1.2924331170506775, 1.4043381260707974]",1445.345694986172,None,1445.3455432113726,1445.445641066879,s178_08302022,001,2022_Aug_30_1314,test_typingtask_norepeats,2020.2.10,60.01283365007216,
pykka,pykka,,,,,,,,,0,117,117,117,,,,,,,,,,,,,,,1450.8539124513045,None,"['p', 'y', 'k', 'k', 'a']",1,"[0.672246671281755, 1.0003099152818322, 1.2802481073886156, 1.4322096151299775, 1.544250833336264]",1450.8539124513045,None,1450.8561930843164,None,s178_08302022,001,2022_Aug_30_1314,test_typingtask_norepeats,2020.2.10,60.01283365007216,
cooed,cooed,,,,,,,,,0,118,118,118,,,,,,,,,,,,,,,1456.345728206914,None,"['c', 'o', 'o', 'e', 'd']",1,"[0.6763337929733098, 0.8364367200993001, 0.9804209591820836, 1.0843268083408475, 1.2683664532378316]",1456.345728206914,None,1456.345803157473,1456.4456797889434,s178_08302022,001,2022_Aug_30_1314,test_typingtask_norepeats,2020.2.10,60.01283365007216,
theme,theme,,,,,,,,,0,119,119,119,,,,,,,,,,,,,,,1461.8458330701105,None,"['t', 'h', 'e', 'm', 'e']",1,"[0.6803242806345224, 0.7602108106948435, 0.8962763319723308, 0.9922379236668348, 1.0562931359745562]",1461.8458330701105,None,1461.845843432052,1461.9457133561373,s178_08302022,001,2022_Aug_30_1314,test_typingtask_norepeats,2020.2.10,60.01283365007216,
