string,corrAns,practice_trials.thisRepN,practice_trials.thisTrialN,practice_trials.thisN,practice_trials.thisIndex,trials_1.thisRepN,trials_1.thisTrialN,trials_1.thisN,trials_1.thisIndex,trials_2.thisRepN,trials_2.thisTrialN,trials_2.thisN,trials_2.thisIndex,key_resp_0.keys,key_resp_0.corr,key_resp_0.rt,text_1.started,text_1.stopped,key_resp_1.keys,key_resp_1.corr,key_resp_1.rt,key_resp_1.started,key_resp_1.stopped,sound_1A_1.started,sound_1A_1.stopped,break_time.started,break_time.stopped,text_2.started,text_2.stopped,key_resp_2.keys,key_resp_2.corr,key_resp_2.rt,key_resp_2.started,key_resp_2.stopped,sound_1A_2.started,sound_1A_2.stopped,participant,session,date,expName,psychopyVersion,frameRate,
fresh,fresh,0,0,0,0,,,,,,,,,"['f', 'r', 'e', 's', 'h']",1,"[1.927234543953091, 2.151238855905831, 2.247311305720359, 2.3432483221404254, 2.5753746889531612]",,,,,,,,,,,,,,,,,,,,,s179_08092022,001,2022_Sep_08_1055,test_typingtask_norepeats,2020.2.10,59.95773610517885,
dream,dream,0,1,1,1,,,,,,,,,"['d', 'e', 'r', 'a', 'm']",0,"[0.899094354826957, 1.09908984368667, 1.2191174319013953, 1.9391295509412885, 2.107019988819957]",,,,,,,,,,,,,,,,,,,,,s179_08092022,001,2022_Sep_08_1055,test_typingtask_norepeats,2020.2.10,59.95773610517885,
slime,slime,0,2,2,2,,,,,,,,,"['s', 'l', 'i', 'm', 'e']",1,"[0.6786453370004892, 0.9186618220992386, 1.5585597790777683, 1.7186673651449382, 1.886691038031131]",,,,,,,,,,,,,,,,,,,,,s179_08092022,001,2022_Sep_08_1055,test_typingtask_norepeats,2020.2.10,59.95773610517885,
pykka,pykka,,,,,0,0,0,0,,,,,,,,1386.2454766882583,None,"['p', 'y', 'y', 'k', 'k', 'a']",0,"[0.8598642311990261, 1.003759650979191, 2.347826394252479, 2.659872786141932, 2.771893871948123, 2.883851525839418]",1386.2454766882583,None,1386.2393326670397,1386.3391760429367,,,,,,,,,,,,s179_08092022,001,2022_Sep_08_1055,test_typingtask_norepeats,2020.2.10,59.95773610517885,
faqir,faqir,,,,,0,1,1,1,,,,,,,,1391.7561574312858,None,"['f', 'a', 'q', 'i', 'r']",1,"[0.7572004976682365, 0.8771390677429736, 1.221149574033916, 1.6930699069052935, 1.837200955953449]",1391.7561574312858,None,1391.7554507441353,1391.8555124211125,,,,,,,,,,,,s179_08092022,001,2022_Sep_08_1055,test_typingtask_norepeats,2020.2.10,59.95773610517885,
belly,belly,,,,,0,2,2,2,,,,,,,,1397.2554041203111,None,"['b', 'e', 'l', 'l', 'y']",1,"[0.6499263369478285, 0.7938538938760757, 0.9299046979285777, 1.057869688142091, 1.1938214539550245]",1397.2554041203111,None,1397.2554317442234,1397.3553337953053,,,,,,,,,,,,s179_08092022,001,2022_Sep_08_1055,test_typingtask_norepeats,2020.2.10,59.95773610517885,
therm,therm,,,,,0,3,3,3,,,,,,,,1402.7554843211547,None,"['t', 'h', 'e', 'r', 'm']",1,"[0.9018603693693876, 0.9977765399962664, 1.157859057188034, 1.221815244294703, 1.3018682501278818]",1402.7554843211547,None,1402.7553492839913,1402.8557740282267,,,,,,,,,,,,s179_08092022,001,2022_Sep_08_1055,test_typingtask_norepeats,2020.2.10,59.95773610517885,
theme,theme,,,,,0,4,4,4,,,,,,,,1408.255589067936,None,"['t', 'h', 'e', 'm', 'e']",1,"[0.6017916509881616, 0.6817003930918872, 0.8657271172851324, 0.9537181169725955, 1.0896422280929983]",1408.255589067936,None,1408.2552801440004,1408.3555186321028,,,,,,,,,,,,s179_08092022,001,2022_Sep_08_1055,test_typingtask_norepeats,2020.2.10,59.95773610517885,
haole,haole,,,,,0,5,5,5,,,,,,,,1413.7556312181987,None,"['h', 'a', 'o', 'l', 'e']",1,"[0.8697003512643278, 1.0456031281501055, 1.2057590209878981, 1.3896073731593788, 1.565717631019652]",1413.7556312181987,None,1413.7553416522685,1413.8554595010355,,,,,,,,,,,,s179_08092022,001,2022_Sep_08_1055,test_typingtask_norepeats,2020.2.10,59.95773610517885,
champ,champ,,,,,0,6,6,6,,,,,,,,1419.2555767102167,None,"['c', 'h', 'a', 'm', 'p']",1,"[0.985729874111712, 1.0897825583815575, 1.2096609761938453, 1.3298099781386554, 1.4736823802813888]",1419.2555767102167,None,1419.2555161322932,1419.3553256373852,,,,,,,,,,,,s179_08092022,001,2022_Sep_08_1055,test_typingtask_norepeats,2020.2.10,59.95773610517885,
haole,haole,,,,,0,7,7,7,,,,,,,,1424.7555183251388,None,"['h', 'a', 'o', 'l', 'e']",1,"[0.7097266181372106, 0.8937169881537557, 0.9977265163324773, 1.1977232652716339, 1.2778836241923273]",1424.7555183251388,None,1424.7555876429658,1424.8555833250284,,,,,,,,,,,,s179_08092022,001,2022_Sep_08_1055,test_typingtask_norepeats,2020.2.10,59.95773610517885,
cheer,cheer,,,,,0,8,8,8,,,,,,,,1430.2555610779673,None,"['c', 'h', 'e', 'e', 'r']",1,"[0.8096723351627588, 0.9378004372119904, 1.1296844240278006, 1.2657821541652083, 1.4096825602464378]",1430.2555610779673,None,1430.2554860538337,1430.355498675257,,,,,,,,,,,,s179_08092022,001,2022_Sep_08_1055,test_typingtask_norepeats,2020.2.10,59.95773610517885,
think,think,,,,,0,9,9,9,,,,,,,,1435.7552910209633,None,"['t', 'h', 'i', 'n', 'k']",1,"[0.6620413018390536, 0.7179289809428155, 0.8299633371643722, 0.9739429969340563, 1.102037241216749]",1435.7552910209633,None,1435.755556579167,1435.855520232115,,,,,,,,,,,,s179_08092022,001,2022_Sep_08_1055,test_typingtask_norepeats,2020.2.10,59.95773610517885,
buddy,buddy,,,,,0,10,10,10,,,,,,,,1441.2579065272585,None,"['b', 'u', 'd', 'd', 'y']",1,"[0.6794309667311609, 1.127328859642148, 1.4313143179751933, 1.5674368715845048, 1.6553225959651172]",1441.2579065272585,None,1441.2558020129334,1441.355886039324,,,,,,,,,,,,s179_08092022,001,2022_Sep_08_1055,test_typingtask_norepeats,2020.2.10,59.95773610517885,
zibja,zibja,,,,,0,11,11,11,,,,,,,,1446.7563263941556,None,"['z', 'i', 'b', 'j', 'a']",1,"[0.9249069318175316, 1.0850504469126463, 1.26903030090034, 1.5570290558971465, 1.7089139479212463]",1446.7563263941556,None,1446.7556098708417,1446.855478482321,,,,,,,,,,,,s179_08092022,001,2022_Sep_08_1055,test_typingtask_norepeats,2020.2.10,59.95773610517885,
druze,druze,,,,,0,12,12,12,,,,,,,,1452.2553756283596,None,"['d', 'r', 'u', 'z', 'e']",1,"[0.7458433960564435, 0.9219272769987583, 1.0499644172377884, 1.2659264262765646, 1.4258790980093181]",1452.2553756283596,None,1452.2556296819355,1452.3556178021245,,,,,,,,,,,,s179_08092022,001,2022_Sep_08_1055,test_typingtask_norepeats,2020.2.10,59.95773610517885,
puppy,puppy,,,,,0,13,13,13,,,,,,,,1457.7554106791504,None,"['p', 'u', 'p', 'p', 'y']",1,"[0.6459113634191453, 0.7659301003441215, 1.0619260310195386, 1.1978350402787328, 1.3338233199901879]",1457.7554106791504,None,1457.7556593250017,1457.8556453273632,,,,,,,,,,,,s179_08092022,001,2022_Sep_08_1055,test_typingtask_norepeats,2020.2.10,59.95773610517885,
theme,theme,,,,,0,14,14,14,,,,,,,,1463.2559757870622,None,"['t', 'h', 'e', 'm', 'e']",1,"[0.7053809519857168, 0.7693727910518646, 0.9293249221518636, 1.0252407579682767, 1.1693723751232028]",1463.2559757870622,None,1463.2558051691856,1463.3557200799696,,,,,,,,,,,,s179_08092022,001,2022_Sep_08_1055,test_typingtask_norepeats,2020.2.10,59.95773610517885,
vodka,vodka,,,,,0,15,15,15,,,,,,,,1468.7555744242854,None,"['c', 'o', 'd', 'k', 'a']",0,"[0.9416961860843003, 1.0696922191418707, 1.2456593234091997, 1.5256903884001076, 1.6697437684051692]",1468.7555744242854,None,1468.7556500741746,1468.8556334963068,,,,,,,,,,,,s179_08092022,001,2022_Sep_08_1055,test_typingtask_norepeats,2020.2.10,59.95773610517885,
edthe,edthe,,,,,0,16,16,16,,,,,,,,1474.2555705979466,None,"['e', 'd', 't', 'h', 'e']",1,"[0.8497679699212313, 1.0657773669809103, 1.257786228787154, 1.3617341378703713, 1.4737835600972176]",1474.2555705979466,None,1474.2554412642028,1474.355925577227,,,,,,,,,,,,s179_08092022,001,2022_Sep_08_1055,test_typingtask_norepeats,2020.2.10,59.95773610517885,
would,would,,,,,0,17,17,17,,,,,,,,1479.7554617431015,None,"['w', 'o', 'u', 'l', 'd']",1,"[0.6698799128644168, 0.7579088690690696, 0.8218958950601518, 1.005927017889917, 1.117777586914599]",1479.7554617431015,None,1479.7553194048348,1479.8556421692483,,,,,,,,,,,,s179_08092022,001,2022_Sep_08_1055,test_typingtask_norepeats,2020.2.10,59.95773610517885,
about,about,,,,,0,18,18,18,,,,,,,,1485.2556285550818,None,"['a', 'b', 'o', 'u', 't']",1,"[0.6417330610565841, 0.7616720190271735, 0.9296165890991688, 1.0096141309477389, 1.169684843160212]",1485.2556285550818,None,1485.2554206852335,1485.3556323931552,,,,,,,,,,,,s179_08092022,001,2022_Sep_08_1055,test_typingtask_norepeats,2020.2.10,59.95773610517885,
puppy,puppy,,,,,0,19,19,19,,,,,,,,1490.7557207969949,None,"['p', 'u', 'p', 'p', 'y']",1,"[0.7735943547450006, 0.8776966710574925, 1.7416240628808737, 1.8935115379281342, 1.9896403891034424]",1490.7557207969949,None,1490.7555976439733,1490.855461965315,,,,,,,,,,,,s179_08092022,001,2022_Sep_08_1055,test_typingtask_norepeats,2020.2.10,59.95773610517885,
theme,theme,,,,,0,20,20,20,,,,,,,,1496.255571695976,None,"['t', 'h', 'e', 'm', 'e']",1,"[0.5936749735847116, 0.6577829485759139, 0.7936577759683132, 0.9137821616604924, 1.0657709636725485]",1496.255571695976,None,1496.2555208689998,1496.35575179616,,,,,,,,,,,,s179_08092022,001,2022_Sep_08_1055,test_typingtask_norepeats,2020.2.10,59.95773610517885,
heond,heond,,,,,0,21,21,21,,,,,,,,1501.7557779303752,None,"['h', 'e', 'o', 'n', 'd']",1,"[0.74153176182881, 0.8776240241713822, 0.9814920201897621, 1.1495666159316897, 1.325511849950999]",1501.7557779303752,None,1501.7557338498998,1501.8555590952747,,,,,,,,,,,,s179_08092022,001,2022_Sep_08_1055,test_typingtask_norepeats,2020.2.10,59.95773610517885,
champ,champ,,,,,0,22,22,22,,,,,,,,1507.255821165163,None,"['c', 'h', 'a', 'm', 'p']",1,"[0.6495136409066617, 0.7294764509424567, 0.8734229099936783, 0.9775592777878046, 1.073553507681936]",1507.255821165163,None,1507.2555927889887,1507.355767678935,,,,,,,,,,,,s179_08092022,001,2022_Sep_08_1055,test_typingtask_norepeats,2020.2.10,59.95773610517885,
about,about,,,,,0,23,23,23,,,,,,,,1512.7557340473868,None,"['a', 'b', 'o', 'u', 't']",1,"[0.5815522097982466, 0.6935312729328871, 0.8535499759018421, 0.957576896995306, 1.0855836947448552]",1512.7557340473868,None,1512.7556688612792,1512.8556346390396,,,,,,,,,,,,s179_08092022,001,2022_Sep_08_1055,test_typingtask_norepeats,2020.2.10,59.95773610517885,
vanru,vanru,,,,,0,24,24,24,,,,,,,,1518.2556587690488,None,"['v', 'a', 'n', 'r', 'u']",1,"[0.80173146026209, 0.9216876798309386, 1.1616514730267227, 1.5295892269350588, 1.721579804085195]",1518.2556587690488,None,1518.2557562551926,1518.3558226372115,,,,,,,,,,,,s179_08092022,001,2022_Sep_08_1055,test_typingtask_norepeats,2020.2.10,59.95773610517885,
champ,champ,,,,,0,25,25,25,,,,,,,,1523.7555122533813,None,"['c', 'h', 'a', 'm', 'p']",1,"[0.6937556839548051, 0.7818278381600976, 0.9017137009650469, 1.0218275021761656, 1.1177245993167162]",1523.7555122533813,None,1523.755810473999,1523.8557119471952,,,,,,,,,,,,s179_08092022,001,2022_Sep_08_1055,test_typingtask_norepeats,2020.2.10,59.95773610517885,
pykka,pykka,,,,,0,26,26,26,,,,,,,,1529.2556597990915,None,"['p', 'y', 'k', 'k', 'a']",1,"[0.6976190819405019, 0.8416547658853233, 1.1696789907291532, 1.2816220209933817, 1.417557803913951]",1529.2556597990915,None,1529.2556415302213,1529.355681233108,,,,,,,,,,,,s179_08092022,001,2022_Sep_08_1055,test_typingtask_norepeats,2020.2.10,59.95773610517885,
there,there,,,,,0,27,27,27,,,,,,,,1534.7555384789594,None,"['t', 'h', 'e', 'r', 'e']",1,"[0.5576847698539495, 0.6617758590728045, 0.7977013261988759, 0.8697610511444509, 0.9817825239151716]",1534.7555384789594,None,1534.755417851219,1534.85565976426,,,,,,,,,,,,s179_08092022,001,2022_Sep_08_1055,test_typingtask_norepeats,2020.2.10,59.95773610517885,
would,would,,,,,0,28,28,28,,,,,,,,1540.272406266071,None,"['w', 'o', 'u', 'l', 'd']",1,"[0.6249425360001624, 0.7209861092269421, 0.8009138121269643, 0.9849464041180909, 1.1449305210262537]",1540.272406266071,None,1540.271888141008,1540.3719406630844,,,,,,,,,,,,s179_08092022,001,2022_Sep_08_1055,test_typingtask_norepeats,2020.2.10,59.95773610517885,
therm,therm,,,,,0,29,29,29,,,,,,,,1545.7724167909473,None,"['t', 'h', 'e', 'r', 'm']",1,"[0.5328922467306256, 0.6369380140677094, 0.7648631939664483, 0.8688906878232956, 1.0768240890465677]",1545.7724167909473,None,1545.772393742064,1545.872195941396,,,,,,,,,,,,s179_08092022,001,2022_Sep_08_1055,test_typingtask_norepeats,2020.2.10,59.95773610517885,
belly,belly,,,,,0,30,30,30,,,,,,,,1551.2725480361842,None,"['b', 'e', 'l', 'l', 'y']",1,"[0.6487900372594595, 0.8167206980288029, 0.9528127103112638, 1.0726905511692166, 1.2247984949499369]",1551.2725480361842,None,1551.2723318780306,1551.3722889502533,,,,,,,,,,,,s179_08092022,001,2022_Sep_08_1055,test_typingtask_norepeats,2020.2.10,59.95773610517885,
zibja,zibja,,,,,0,31,31,31,,,,,,,,1556.772607587278,None,"['z', 'i', 'b', 'j', 'a']",1,"[0.7727350597269833, 0.8846390536054969, 1.0607375036925077, 1.276627155020833, 1.4046909250319004]",1556.772607587278,None,1556.7724050110671,1556.872347818222,,,,,,,,,,,,s179_08092022,001,2022_Sep_08_1055,test_typingtask_norepeats,2020.2.10,59.95773610517885,
therm,therm,,,,,0,32,32,32,,,,,,,,1562.2725531412289,None,"['t', 'h', 'e', 'r', 'm']",1,"[0.616736832074821, 0.6887422981671989, 0.8247437989339232, 0.9046852043829858, 1.0407682843506336]",1562.2725531412289,None,1562.2722619832027,1562.372417384293,,,,,,,,,,,,s179_08092022,001,2022_Sep_08_1055,test_typingtask_norepeats,2020.2.10,59.95773610517885,
buddy,buddy,,,,,0,33,33,33,,,,,,,,1567.7724594562314,None,"['b', 'u', 'd', 'd', 'y']",1,"[0.6448858906514943, 0.8608401538804173, 1.0449037328362465, 1.1727831228636205, 1.268760731909424]",1567.7724594562314,None,1567.7724213888403,1567.872862434946,,,,,,,,,,,,s179_08092022,001,2022_Sep_08_1055,test_typingtask_norepeats,2020.2.10,59.95773610517885,
pykka,pykka,,,,,0,34,34,34,,,,,,,,1573.2724956930615,None,"['p', 'y', 'k', 'k', 'a']",1,"[0.6248257933184505, 0.7607697253115475, 1.1048596650362015, 1.2408494460396469, 1.3767290473915637]",1573.2724956930615,None,1573.2724714590702,1573.3724014260806,,,,,,,,,,,,s179_08092022,001,2022_Sep_08_1055,test_typingtask_norepeats,2020.2.10,59.95773610517885,
edthe,edthe,,,,,0,35,35,35,,,,,,,,1578.7722761039622,None,"['e', 't', 'h', 'e']",0,"[0.6289378218352795, 0.8690723860636353, 1.8610978526994586, 1.9970621829852462]",1578.7722761039622,None,1578.7724359062966,1578.8728638431057,,,,,,,,,,,,s179_08092022,001,2022_Sep_08_1055,test_typingtask_norepeats,2020.2.10,59.95773610517885,
vodka,vodka,,,,,0,36,36,36,,,,,,,,1584.2723402772099,None,"['z', 'o', 'd', 'k', 'a']",0,"[0.8969921651296318, 1.232993088196963, 1.5529785002581775, 1.7609593961387873, 1.8649359978735447]",1584.2723402772099,None,1584.2725947452243,1584.3727376279421,,,,,,,,,,,,s179_08092022,001,2022_Sep_08_1055,test_typingtask_norepeats,2020.2.10,59.95773610517885,
cooed,cooed,,,,,0,37,37,37,,,,,,,,1589.7722877091728,None,"['c', 'o', 'o', 'e', 'd']",1,"[1.0610357718542218, 2.004979494959116, 2.157020346727222, 2.412991460878402, 2.6290486468933523]",1589.7722877091728,None,1589.7723882542457,1589.872633707244,,,,,,,,,,,,s179_08092022,001,2022_Sep_08_1055,test_typingtask_norepeats,2020.2.10,59.95773610517885,
cheer,cheer,,,,,0,38,38,38,,,,,,,,1595.2723650843836,None,"['c', 'h', 'e', 'e', 'r']",1,"[0.840994733851403, 1.0008621672168374, 1.2088772961869836, 1.3609303338453174, 1.5128709231503308]",1595.2723650843836,None,1595.2723789610434,1595.3723409450613,,,,,,,,,,,,s179_08092022,001,2022_Sep_08_1055,test_typingtask_norepeats,2020.2.10,59.95773610517885,
tithe,tithe,,,,,0,39,39,39,,,,,,,,1600.772467168048,None,"['t', 'h', 'i', 't', 'h', 'e']",0,"[0.7168921208940446, 0.8127782889641821, 0.8927654908038676, 1.20489069679752, 1.3408336187712848, 1.8688559718430042]",1600.772467168048,None,1600.7723830122966,1600.8724978943355,,,,,,,,,,,,s179_08092022,001,2022_Sep_08_1055,test_typingtask_norepeats,2020.2.10,59.95773610517885,
there,there,,,,,0,40,40,40,,,,,,,,1606.2724489099346,None,"['t', 'h', 'e', 'r', 'e']",1,"[0.7048461181111634, 0.8007881040684879, 0.9449260290712118, 1.0088365408591926, 1.1368736121803522]",1606.2724489099346,None,1606.2722620032262,1606.3724597180262,,,,,,,,,,,,s179_08092022,001,2022_Sep_08_1055,test_typingtask_norepeats,2020.2.10,59.95773610517885,
cooed,cooed,,,,,0,41,41,41,,,,,,,,1611.7723560463637,None,"['c', 'o', 'o', 'e', 'd']",1,"[1.8049880429171026, 2.0290205241180956, 2.1648855502717197, 2.5249839182943106, 2.7730031609535217]",1611.7723560463637,None,1611.772252676962,1611.872449405957,,,,,,,,,,,,s179_08092022,001,2022_Sep_08_1055,test_typingtask_norepeats,2020.2.10,59.95773610517885,
puppy,puppy,,,,,0,42,42,42,,,,,,,,1617.2725766641088,None,"['p', 'u', 'p', 'p', 'y']",1,"[0.6646878989413381, 0.8006469742394984, 1.0487811090424657, 1.192640250083059, 1.328718083910644]",1617.2725766641088,None,1617.2723743081558,1617.37217552308,,,,,,,,,,,,s179_08092022,001,2022_Sep_08_1055,test_typingtask_norepeats,2020.2.10,59.95773610517885,
kremp,kremp,,,,,0,43,43,43,,,,,,,,1622.7724650232121,None,"['k', 'r', 'e', 'm', 'p']",1,"[0.7648007231764495, 0.9328674641437829, 1.0368846552446485, 1.1328709162771702, 1.2448887801729143]",1622.7724650232121,None,1622.7724673901218,1622.872336378321,,,,,,,,,,,,s179_08092022,001,2022_Sep_08_1055,test_typingtask_norepeats,2020.2.10,59.95773610517885,
cooed,cooed,,,,,0,44,44,44,,,,,,,,1628.272512125317,None,"['c', 'o', 'o', 'e', 'd']",1,"[1.1607180889695883, 1.472794382367283, 1.6168526010587811, 1.6968043241649866, 1.9288337472826242]",1628.272512125317,None,1628.2725219442043,1628.3723204690032,,,,,,,,,,,,s179_08092022,001,2022_Sep_08_1055,test_typingtask_norepeats,2020.2.10,59.95773610517885,
druze,druze,,,,,0,45,45,45,,,,,,,,1633.772670976352,None,"['d', 'r', 'u', 'z', 'e']",1,"[0.7005740259774029, 0.8846208690665662, 1.0286561539396644, 1.1966711883433163, 1.3326738933101296]",1633.772670976352,None,1633.7725574359763,1633.8726300783455,,,,,,,,,,,,s179_08092022,001,2022_Sep_08_1055,test_typingtask_norepeats,2020.2.10,59.95773610517885,
heond,heond,,,,,0,46,46,46,,,,,,,,1639.272607628256,None,"['h', 'e', 'o', 'n', 'd']",1,"[0.6807373561896384, 0.8246430712752044, 0.9288144940510392, 1.0726872109808028, 1.2806972851976752]",1639.272607628256,None,1639.272590117948,1639.3725041630678,,,,,,,,,,,,s179_08092022,001,2022_Sep_08_1055,test_typingtask_norepeats,2020.2.10,59.95773610517885,
faqir,faqir,,,,,0,47,47,47,,,,,,,,1644.772456225939,None,"['f', 'a', 'q', 'u', 'r']",0,"[0.8128454838879406, 0.948859725613147, 1.204904526937753, 1.428823966998607, 2.380917641799897]",1644.772456225939,None,1644.7724961889442,1644.8727271379903,,,,,,,,,,,,s179_08092022,001,2022_Sep_08_1055,test_typingtask_norepeats,2020.2.10,59.95773610517885,
there,there,,,,,0,48,48,48,,,,,,,,1650.272485963069,None,"['t', 'h', 'e', 'r', 'e']",1,"[0.7288541747257113, 0.8007514076307416, 0.9288468328304589, 0.9848322719335556, 1.1048633116297424]",1650.272485963069,None,1650.2727619572076,1650.372436961159,,,,,,,,,,,,s179_08092022,001,2022_Sep_08_1055,test_typingtask_norepeats,2020.2.10,59.95773610517885,
cooed,cooed,,,,,0,49,49,49,,,,,,,,1655.7724024341442,None,"['c', 'o', 'o', 'e', 'd']",1,"[0.8209183770231903, 1.052976748906076, 1.1968627469614148, 1.2688947869464755, 1.5089158480986953]",1655.7724024341442,None,1655.7725125462282,1655.8726632441394,,,,,,,,,,,,s179_08092022,001,2022_Sep_08_1055,test_typingtask_norepeats,2020.2.10,59.95773610517885,
buddy,buddy,,,,,0,50,50,50,,,,,,,,1661.272511804942,None,"['b', 'u', 'd', 'd', 'y']",1,"[0.6808044370263815, 0.9208268281072378, 1.1528500681743026, 1.3047925760038197, 1.4007373158819973]",1661.272511804942,None,1661.2725552082527,1661.3724635653198,,,,,,,,,,,,s179_08092022,001,2022_Sep_08_1055,test_typingtask_norepeats,2020.2.10,59.95773610517885,
puppy,puppy,,,,,0,51,51,51,,,,,,,,1666.7723431102931,None,"['p', 'u', 'p', 'p', 'y']",1,"[0.6530231032520533, 0.7890141303651035, 1.0449757534079254, 1.1889599040150642, 1.3169650384224951]",1666.7723431102931,None,1666.7725278459955,1666.8729230919853,,,,,,,,,,,,s179_08092022,001,2022_Sep_08_1055,test_typingtask_norepeats,2020.2.10,59.95773610517885,
champ,champ,,,,,0,52,52,52,,,,,,,,1672.272566317115,None,"['c', 'h', 'a', 'm', 'p']",1,"[0.7127583883702755, 0.7766821109689772, 0.8967308672145009, 1.032772438134998, 1.1047325390391052]",1672.272566317115,None,1672.272508935025,1672.3725700601935,,,,,,,,,,,,s179_08092022,001,2022_Sep_08_1055,test_typingtask_norepeats,2020.2.10,59.95773610517885,
vodka,vodka,,,,,0,53,53,53,,,,,,,,1677.7726451391354,None,"['z', 'o', 'd', 'k', 'a']",0,"[0.9005769998766482, 1.1567215765826404, 1.3567156088538468, 1.6125826467759907, 1.7246669488959014]",1677.7726451391354,None,1677.772271248931,1677.872621375136,,,,,,,,,,,,s179_08092022,001,2022_Sep_08_1055,test_typingtask_norepeats,2020.2.10,59.95773610517885,
lucky,lucky,,,,,0,54,54,54,,,,,,,,1683.2725462391973,None,"['l', 'u', 'c', 'k', 'y']",1,"[0.7207858180627227, 0.8647350198589265, 1.304809452034533, 1.3448244747705758, 1.9927022960036993]",1683.2725462391973,None,1683.2723156171385,1683.3729394460097,,,,,,,,,,,,s179_08092022,001,2022_Sep_08_1055,test_typingtask_norepeats,2020.2.10,59.95773610517885,
haole,haole,,,,,0,55,55,55,,,,,,,,1688.7725735981949,None,"['h', 'a', 'o', 'l', 'e']",1,"[0.7886550459079444, 0.9006629879586399, 1.0047209858894348, 1.212785325013101, 1.3327731750905514]",1688.7725735981949,None,1688.7726939711254,1688.8725004671142,,,,,,,,,,,,s179_08092022,001,2022_Sep_08_1055,test_typingtask_norepeats,2020.2.10,59.95773610517885,
pykka,pykka,,,,,0,56,56,56,,,,,,,,1694.272659572307,None,"['p', 'y', 'k', 'k', 'a']",1,"[0.7606197549030185, 0.8966879858635366, 1.224599501118064, 1.3686812720261514, 1.5046488740481436]",1694.272659572307,None,1694.2726103392895,1694.3729675989598,,,,,,,,,,,,s179_08092022,001,2022_Sep_08_1055,test_typingtask_norepeats,2020.2.10,59.95773610517885,
haole,haole,,,,,0,57,57,57,,,,,,,,1699.7727601933293,None,"['h', 'a', 'o', 'l', 'e']",1,"[0.6445381697267294, 0.7804611916653812, 0.8845356567762792, 1.100440084002912, 1.2365448269993067]",1699.7727601933293,None,1699.7724584368523,1699.8721472551115,,,,,,,,,,,,s179_08092022,001,2022_Sep_08_1055,test_typingtask_norepeats,2020.2.10,59.95773610517885,
edthe,edthe,,,,,0,58,58,58,,,,,,,,1705.2727037123404,None,"['e', 'd', 't', 'h', 'e']",1,"[0.7125692539848387, 0.960566246882081, 1.2406647210009396, 1.3685075677931309, 1.5125503619201481]",1705.2727037123404,None,1705.272474294016,1705.3725829361938,,,,,,,,,,,,s179_08092022,001,2022_Sep_08_1055,test_typingtask_norepeats,2020.2.10,59.95773610517885,
vanru,vanru,,,,,0,59,59,59,,,,,,,,1710.7726103770547,None,"['v', 'a', 'n', 'r', 'u']",1,"[1.4527958016842604, 1.5966919818893075, 1.7807261077687144, 1.9727774686180055, 2.1166890147142112]",1710.7726103770547,None,1710.772470182227,1710.872623946052,,,,,,,,,,,,s179_08092022,001,2022_Sep_08_1055,test_typingtask_norepeats,2020.2.10,59.95773610517885,
faqir,faqir,,,,,0,60,60,60,,,,,,,,1716.27260682825,None,"['f', 'a', 'q', 'i', 'r']",1,"[0.8407640922814608, 0.9047552100382745, 1.1606327104382217, 1.4006327921524644, 1.5846285172738135]",1716.27260682825,None,1716.2725692330393,1716.3726651989855,,,,,,,,,,,,s179_08092022,001,2022_Sep_08_1055,test_typingtask_norepeats,2020.2.10,59.95773610517885,
druze,druze,,,,,0,61,61,61,,,,,,,,1721.772531026043,None,"['d', 'r', 'u', 'z', 'e']",1,"[0.6447992972098291, 0.836744022089988, 0.9647505204193294, 1.1168114403262734, 1.2447872990742326]",1721.772531026043,None,1721.772734398907,1721.8729699859396,,,,,,,,,,,,s179_08092022,001,2022_Sep_08_1055,test_typingtask_norepeats,2020.2.10,59.95773610517885,
tithe,tithe,,,,,0,62,62,62,,,,,,,,1727.2724497062154,None,"['t', 'i', 't', 'h', 'e']",1,"[0.7368871029466391, 0.8408824247308075, 1.0007719187997282, 1.1608717776834965, 1.3289131768979132]",1727.2724497062154,None,1727.2726482669357,1727.3726735189557,,,,,,,,,,,,s179_08092022,001,2022_Sep_08_1055,test_typingtask_norepeats,2020.2.10,59.95773610517885,
kremp,kremp,,,,,0,63,63,63,,,,,,,,1732.7725474000908,None,"['k', 'r', 'e', 'm', 'p']",1,"[0.7728075091727078, 0.932748160790652, 1.036765730008483, 1.1247576791793108, 1.2606868501752615]",1732.7725474000908,None,1732.772534462111,1732.8727436549962,,,,,,,,,,,,s179_08092022,001,2022_Sep_08_1055,test_typingtask_norepeats,2020.2.10,59.95773610517885,
lucky,lucky,,,,,0,64,64,64,,,,,,,,1738.2725100759417,None,"['u', 'c', 'k', 'y']",0,"[0.7447802452370524, 1.3367767413146794, 1.5048280963674188, 1.704848748166114]",1738.2725100759417,None,1738.272572405124,1738.372665011324,,,,,,,,,,,,s179_08092022,001,2022_Sep_08_1055,test_typingtask_norepeats,2020.2.10,59.95773610517885,
vodka,vodka,,,,,0,65,65,65,,,,,,,,1743.772692331113,None,"['v', 'o', 'd', 'k', 'a']",1,"[1.3005735715851188, 1.4686185447499156, 1.6765501266345382, 2.3726526838727295, 2.4925547828897834]",1743.772692331113,None,1743.7727237930055,1743.8728196630254,,,,,,,,,,,,s179_08092022,001,2022_Sep_08_1055,test_typingtask_norepeats,2020.2.10,59.95773610517885,
lucky,lucky,,,,,0,66,66,66,,,,,,,,1749.2726511033252,None,"['l', 'u', 'c', 'k', 'y']",1,"[0.6326905856840312, 0.8567082537338138, 1.1207008650526404, 1.2486868971027434, 1.4486631411127746]",1749.2726511033252,None,1749.272341169836,1749.3726866720244,,,,,,,,,,,,s179_08092022,001,2022_Sep_08_1055,test_typingtask_norepeats,2020.2.10,59.95773610517885,
heond,heond,,,,,0,67,67,67,,,,,,,,1754.7725892881863,None,"['h', 'e', 'o', 'n', 'd']",1,"[0.644785373006016, 0.740767857991159, 0.8366948217153549, 0.9646916748024523, 1.1486963299103081]",1754.7725892881863,None,1754.7725308541674,1754.8726348700002,,,,,,,,,,,,s179_08092022,001,2022_Sep_08_1055,test_typingtask_norepeats,2020.2.10,59.95773610517885,
about,about,,,,,0,68,68,68,,,,,,,,1760.2727105300874,None,"['a', 'b', 'o', 'u', 't']",1,"[0.6005653832107782, 0.7686208193190396, 0.9206396723166108, 1.02466051094234, 1.1366453832015395]",1760.2727105300874,None,1760.2725689261686,1760.3726489101537,,,,,,,,,,,,s179_08092022,001,2022_Sep_08_1055,test_typingtask_norepeats,2020.2.10,59.95773610517885,
vanru,vanru,,,,,0,69,69,69,,,,,,,,1765.772714509163,None,"['v', 'a', 'n', 'r', 'u']",1,"[0.7806301270611584, 0.9086775663308799, 1.0925211771391332, 1.3645285642705858, 1.5405251691117883]",1765.772714509163,None,1765.7726648831274,1765.8724367870018,,,,,,,,,,,,s179_08092022,001,2022_Sep_08_1055,test_typingtask_norepeats,2020.2.10,59.95773610517885,
about,about,,,,,0,70,70,70,,,,,,,,1771.2726161140017,None,"['a', 'b', 'o', 'u', 't']",1,"[0.6006316170096397, 0.7367128389887512, 0.8966700951568782, 0.9846202759072185, 1.1126343170180917]",1771.2726161140017,None,1771.2727647521067,1771.372527343221,,,,,,,,,,,,s179_08092022,001,2022_Sep_08_1055,test_typingtask_norepeats,2020.2.10,59.95773610517885,
think,think,,,,,0,71,71,71,,,,,,,,1776.7728289109655,None,"['t', 'h', 'i', 'n', 'k']",1,"[0.7084826920181513, 0.7965222029015422, 0.8844237411394715, 1.0524874338880181, 1.1965434812009335]",1776.7728289109655,None,1776.7728472970891,1776.8727063331753,,,,,,,,,,,,s179_08092022,001,2022_Sep_08_1055,test_typingtask_norepeats,2020.2.10,59.95773610517885,
zibja,zibja,,,,,0,72,72,72,,,,,,,,1782.2727132020518,None,"['z', 'i', 'b', 'j', 'a']",1,"[0.8485995596274734, 0.9925106489099562, 1.2004981939680874, 1.400498820003122, 1.5045912396162748]",1782.2727132020518,None,1782.2727929092478,1782.3726901952177,,,,,,,,,,,,s179_08092022,001,2022_Sep_08_1055,test_typingtask_norepeats,2020.2.10,59.95773610517885,
edthe,edthe,,,,,0,73,73,73,,,,,,,,1787.7728487420827,None,"['e', 'd', 't', 'h', 'e']",1,"[0.7003522459417582, 0.9564920039847493, 1.2684334618970752, 1.3804863379336894, 1.5164775690063834]",1787.7728487420827,None,1787.7727158409077,1787.872688905336,,,,,,,,,,,,s179_08092022,001,2022_Sep_08_1055,test_typingtask_norepeats,2020.2.10,59.95773610517885,
there,there,,,,,0,74,74,74,,,,,,,,1793.27270769421,None,"['t', 'h', 'e', 'r', 'e']",1,"[0.8086732910014689, 0.9046496953815222, 1.0485939090140164, 1.112565752118826, 1.2405892750248313]",1793.27270769421,None,1793.2731925770174,1793.372854322195,,,,,,,,,,,,s179_08092022,001,2022_Sep_08_1055,test_typingtask_norepeats,2020.2.10,59.95773610517885,
faqir,faqir,,,,,0,75,75,75,,,,,,,,1798.7726697791368,None,"['f', 'a', 'q', 'i', 'r']",1,"[0.7646152749657631, 0.8926581023260951, 1.3727195393294096, 1.8046888639219105, 1.9326747138984501]",1798.7726697791368,None,1798.7727046142797,1798.8725513769314,,,,,,,,,,,,s179_08092022,001,2022_Sep_08_1055,test_typingtask_norepeats,2020.2.10,59.95773610517885,
kremp,kremp,,,,,0,76,76,76,,,,,,,,1804.2726286831312,None,"['k', 'r', 'e', 'm', 'p']",1,"[0.7605957970954478, 0.8806765042245388, 0.9766162489540875, 1.1446902360767126, 1.2327221441082656]",1804.2726286831312,None,1804.2727001988794,1804.372651424259,,,,,,,,,,,,s179_08092022,001,2022_Sep_08_1055,test_typingtask_norepeats,2020.2.10,59.95773610517885,
there,there,,,,,0,77,77,77,,,,,,,,1809.7727068243548,None,"['t', 'h', 'e', 'r', 'e']",1,"[0.6526644327677786, 0.772600129712373, 0.9246016987599432, 0.9966648989357054, 1.1166303199715912]",1809.7727068243548,None,1809.7726969969924,1809.8727648193017,,,,,,,,,,,,s179_08092022,001,2022_Sep_08_1055,test_typingtask_norepeats,2020.2.10,59.95773610517885,
theme,theme,,,,,0,78,78,78,,,,,,,,1815.2728884550743,None,"['t', 'h', 'e', 'm', 'e']",1,"[0.544483220204711, 0.6484183729626238, 0.8003451637923717, 0.9364601518027484, 1.056462112814188]",1815.2728884550743,None,1815.2726814811583,1815.372689125128,,,,,,,,,,,,s179_08092022,001,2022_Sep_08_1055,test_typingtask_norepeats,2020.2.10,59.95773610517885,
would,would,,,,,0,79,79,79,,,,,,,,1820.7727466551587,None,"['w', 'o', 'u', 'l', 'd']",1,"[0.7644933168776333, 0.876496430952102, 0.9806004259735346, 1.156615565996617, 1.2926384801976383]",1820.7727466551587,None,1820.7725600478705,1820.8729950529523,,,,,,,,,,,,s179_08092022,001,2022_Sep_08_1055,test_typingtask_norepeats,2020.2.10,59.95773610517885,
think,think,,,,,0,80,80,80,,,,,,,,1826.2729836623184,None,"['t', 'h', 'i', 'n', 'k']",1,"[0.6163084008730948, 0.688370409887284, 0.8002431746572256, 0.9602432758547366, 1.1043849517591298]",1826.2729836623184,None,1826.2726301680784,1826.3727970640175,,,,,,,,,,,,s179_08092022,001,2022_Sep_08_1055,test_typingtask_norepeats,2020.2.10,59.95773610517885,
belly,belly,,,,,0,81,81,81,,,,,,,,1831.7727298922837,None,"['b', 'e', 'l', 'l', 'y']",1,"[0.7005138411186635, 0.8844942897558212, 1.0205949121154845, 1.156658655963838, 1.316573103889823]",1831.7727298922837,None,1831.7726825219113,1831.8731159740128,,,,,,,,,,,,s179_08092022,001,2022_Sep_08_1055,test_typingtask_norepeats,2020.2.10,59.95773610517885,
vodka,vodka,,,,,0,82,82,82,,,,,,,,1837.2728019100614,None,"['v', 'o', 'd', 'k', 'a']",1,"[1.600432274863124, 1.800435178913176, 1.9365621940232813, 2.0804991549812257, 2.2404970601201057]",1837.2728019100614,None,1837.2727623409125,1837.3726024343632,,,,,,,,,,,,s179_08092022,001,2022_Sep_08_1055,test_typingtask_norepeats,2020.2.10,59.95773610517885,
belly,belly,,,,,0,83,83,83,,,,,,,,1842.772874981165,None,"['b', 'e', 'l', 'l', 'y']",1,"[0.6124278409406543, 0.7724680490791798, 0.8763672620989382, 1.0123958778567612, 1.172371453139931]",1842.772874981165,None,1842.772868058132,1842.8725509019569,,,,,,,,,,,,s179_08092022,001,2022_Sep_08_1055,test_typingtask_norepeats,2020.2.10,59.95773610517885,
tithe,tithe,,,,,0,84,84,84,,,,,,,,1848.2727102660574,None,"['t', 'i', 't', 'h', 'e']",1,"[0.8485955288633704, 0.9685136368498206, 1.1765368771739304, 1.2486274070106447, 1.4246491710655391]",1848.2727102660574,None,1848.2725453902501,1848.372726703994,,,,,,,,,,,,s179_08092022,001,2022_Sep_08_1055,test_typingtask_norepeats,2020.2.10,59.95773610517885,
about,about,,,,,0,85,85,85,,,,,,,,1853.772943799384,None,"['a', 'b', 'o', 'u', 't']",1,"[0.6444295579567552, 0.7803614768199623, 0.9403031026013196, 1.0283795585855842, 1.1964331627823412]",1853.772943799384,None,1853.772762327874,1853.872939886991,,,,,,,,,,,,s179_08092022,001,2022_Sep_08_1055,test_typingtask_norepeats,2020.2.10,59.95773610517885,
would,would,,,,,0,86,86,86,,,,,,,,1859.2727871760726,None,"['q', 'o', 'u', 'l', 'd']",0,"[0.6084887832403183, 0.7285707090049982, 0.7844381053000689, 0.9604505342431366, 1.104505502153188]",1859.2727871760726,None,1859.272722789971,1859.372777658049,,,,,,,,,,,,s179_08092022,001,2022_Sep_08_1055,test_typingtask_norepeats,2020.2.10,59.95773610517885,
druze,druze,,,,,0,87,87,87,,,,,,,,1864.7728416961618,None,"['d', 'r', 'u', 'z', 'e']",1,"[0.7003891579806805, 0.8684350117109716, 1.0124169257469475, 1.1725159077905118, 1.3484619739465415]",1864.7728416961618,None,1864.772758873133,1864.872778612189,,,,,,,,,,,,s179_08092022,001,2022_Sep_08_1055,test_typingtask_norepeats,2020.2.10,59.95773610517885,
theme,theme,,,,,0,88,88,88,,,,,,,,1870.2726030033082,None,"['t', 'h', 'e', 'm', 'e']",1,"[0.5926040327176452, 0.6967079327441752, 0.8246128889732063, 0.9766054679639637, 1.0966942170634866]",1870.2726030033082,None,1870.2726110070478,1870.3728018761612,,,,,,,,,,,,s179_08092022,001,2022_Sep_08_1055,test_typingtask_norepeats,2020.2.10,59.95773610517885,
tithe,tithe,,,,,0,89,89,89,,,,,,,,1875.7727085212246,None,"['t', 'i', 't', 'h', 'e']",1,"[0.8045746763236821, 0.9085440463386476, 1.0206297752447426, 1.172642338089645, 1.3165894453413785]",1875.7727085212246,None,1875.7726780571509,1875.8728050570935,,,,,,,,,,,,s179_08092022,001,2022_Sep_08_1055,test_typingtask_norepeats,2020.2.10,59.95773610517885,
cheer,cheer,,,,,0,90,90,90,,,,,,,,1881.2726641800255,None,"['c', 'h', 'e', 'e', 'r']",1,"[0.8485624799504876, 1.0487052598036826, 1.2645718920975924, 1.4005521200597286, 1.5845695221796632]",1881.2726641800255,None,1881.272385449102,1881.372583869379,,,,,,,,,,,,s179_08092022,001,2022_Sep_08_1055,test_typingtask_norepeats,2020.2.10,59.95773610517885,
lucky,lucky,,,,,0,91,91,91,,,,,,,,1886.7728266413324,None,"['l', 'u', 'c', 'k', 'y']",1,"[0.6525077810510993, 0.8124420857056975, 1.060383207630366, 1.1964040850289166, 1.3885296396911144]",1886.7728266413324,None,1886.7729003661777,1886.873146428261,,,,,,,,,,,,s179_08092022,001,2022_Sep_08_1055,test_typingtask_norepeats,2020.2.10,59.95773610517885,
heond,heond,,,,,0,92,92,92,,,,,,,,1892.2727745873854,None,"['h', 'e', 'o', 'n', 'd']",1,"[0.6964987213723361, 0.808469733223319, 0.8966030799783766, 1.032569149043411, 1.2004792103543878]",1892.2727745873854,None,1892.272670235904,1892.372801085934,,,,,,,,,,,,s179_08092022,001,2022_Sep_08_1055,test_typingtask_norepeats,2020.2.10,59.95773610517885,
therm,therm,,,,,0,93,93,93,,,,,,,,1897.7727977260947,None,"['t', 'h', 'e', 'r', 'm']",1,"[0.596562092192471, 0.700427464209497, 0.8365583200939, 0.9245589189231396, 1.0445190500468016]",1897.7727977260947,None,1897.7727267802227,1897.8728918842971,,,,,,,,,,,,s179_08092022,001,2022_Sep_08_1055,test_typingtask_norepeats,2020.2.10,59.95773610517885,
tithe,tithe,,,,,0,94,94,94,,,,,,,,1903.2728769513778,None,"['t', 'i', 't', 'h', 'e']",1,"[0.6244788919575512, 0.7683975179679692, 0.9524669158272445, 1.0804675058461726, 1.2244391897693276]",1903.2728769513778,None,1903.2726910742465,1903.3728699162602,,,,,,,,,,,,s179_08092022,001,2022_Sep_08_1055,test_typingtask_norepeats,2020.2.10,59.95773610517885,
haole,haole,,,,,0,95,95,95,,,,,,,,1908.7729672472924,None,"['h', 'a', 'o', 'l', 'e']",1,"[0.6923370561562479, 0.8363388571888208, 0.9563931180164218, 1.1803693091496825, 1.324388423934579]",1908.7729672472924,None,1908.7729397871997,1908.8728089961223,,,,,,,,,,,,s179_08092022,001,2022_Sep_08_1055,test_typingtask_norepeats,2020.2.10,59.95773610517885,
druze,druze,,,,,0,96,96,96,,,,,,,,1914.272769560106,None,"['d', 'r', 'u', 'z', 'e']",1,"[0.7124951197765768, 0.8805760638788342, 1.0405885679647326, 1.1685261386446655, 1.3124567018821836]",1914.272769560106,None,1914.2728331731166,1914.3727274062112,,,,,,,,,,,,s179_08092022,001,2022_Sep_08_1055,test_typingtask_norepeats,2020.2.10,59.95773610517885,
heond,heond,,,,,0,97,97,97,,,,,,,,1919.772953061387,None,"['h', 'e', 'o', 'n', 'd']",1,"[0.652385578956455, 0.7723837830126286, 0.876265054102987, 0.9963811058551073, 1.220349402166903]",1919.772953061387,None,1919.772911459161,1919.873064248357,,,,,,,,,,,,s179_08092022,001,2022_Sep_08_1055,test_typingtask_norepeats,2020.2.10,59.95773610517885,
puppy,puppy,,,,,0,98,98,98,,,,,,,,1925.273055170197,None,"['p', 'u', 'p', 'p', 'y']",1,"[0.6723014190793037, 0.8162830378860235, 1.0802890588529408, 1.2162904902361333, 1.368223360273987]",1925.273055170197,None,1925.2730033988598,1925.3729126132093,,,,,,,,,,,,s179_08092022,001,2022_Sep_08_1055,test_typingtask_norepeats,2020.2.10,59.95773610517885,
would,would,,,,,0,99,99,99,,,,,,,,1930.7731862980872,None,"['w', 'o', 'u', 'l', 'd']",1,"[0.6760449940338731, 0.7640509246848524, 0.8442219840362668, 1.0281928307376802, 1.1640951968729496]",1930.7731862980872,None,1930.7729183542076,1930.8731185151264,,,,,,,,,,,,s179_08092022,001,2022_Sep_08_1055,test_typingtask_norepeats,2020.2.10,59.95773610517885,
kremp,kremp,,,,,0,100,100,100,,,,,,,,1936.272904209327,None,"['k', 'r', 'e', 'm', 'p']",1,"[0.6643524812534451, 0.8324069282971323, 0.944444322027266, 1.0083965668454766, 1.160319693852216]",1936.272904209327,None,1936.2730253091547,1936.3729912503622,,,,,,,,,,,,s179_08092022,001,2022_Sep_08_1055,test_typingtask_norepeats,2020.2.10,59.95773610517885,
lucky,lucky,,,,,0,101,101,101,,,,,,,,1941.7729119220749,None,"['l', 'u', 'c', 'k', 'y']",1,"[0.5804353142157197, 0.7563879042863846, 0.9804362119175494, 1.1003909669816494, 1.276313732843846]",1941.7729119220749,None,1941.772945125075,1941.8729426111095,,,,,,,,,,,,s179_08092022,001,2022_Sep_08_1055,test_typingtask_norepeats,2020.2.10,59.95773610517885,
think,think,,,,,0,102,102,102,,,,,,,,1947.272860254161,None,"['t', 'h', 'i', 'n', 'k']",1,"[0.6084393421187997, 0.6804812322370708, 0.7924163490533829, 0.9683997640386224, 1.112419473938644]",1947.272860254161,None,1947.272861933289,1947.372995775193,,,,,,,,,,,,s179_08092022,001,2022_Sep_08_1055,test_typingtask_norepeats,2020.2.10,59.95773610517885,
buddy,buddy,,,,,0,103,103,103,,,,,,,,1952.7728391452692,None,"['b', 'u', 'd', 'd', 'y']",1,"[0.6044343896210194, 0.8444750509224832, 1.0603866428136826, 1.220433915965259, 1.3164631458930671]",1952.7728391452692,None,1952.7728932820726,1952.873048581183,,,,,,,,,,,,s179_08092022,001,2022_Sep_08_1055,test_typingtask_norepeats,2020.2.10,59.95773610517885,
zibja,zibja,,,,,0,104,104,104,,,,,,,,1958.2730679400265,None,"['z', 'i', 'b', 'j', 'a']",1,"[0.7682303939945996, 0.9121844847686589, 1.0881640850566328, 1.3202353650704026, 1.4322375049814582]",1958.2730679400265,None,1958.272695215838,1958.372826569248,,,,,,,,,,,,s179_08092022,001,2022_Sep_08_1055,test_typingtask_norepeats,2020.2.10,59.95773610517885,
vanru,vanru,,,,,0,105,105,105,,,,,,,,1963.7728475541808,None,"['v', 'a', 'n', 'r', 'u']",1,"[0.7805033740587533, 0.9324931781738997, 1.1164641687646508, 1.260388737078756, 1.4043920040130615]",1963.7728475541808,None,1963.7726431311573,1963.8727044090629,,,,,,,,,,,,s179_08092022,001,2022_Sep_08_1055,test_typingtask_norepeats,2020.2.10,59.95773610517885,
cooed,cooed,,,,,0,106,106,106,,,,,,,,1969.2731568231247,None,"['c', 'o', 'o', 'e', 'd']",1,"[0.9840783271938562, 1.2640657732263207, 1.400118297431618, 1.4881417662836611, 1.720197911374271]",1969.2731568231247,None,1969.2728702011052,1969.372893864289,,,,,,,,,,,,s179_08092022,001,2022_Sep_08_1055,test_typingtask_norepeats,2020.2.10,59.95773610517885,
cheer,cheer,,,,,0,107,107,107,,,,,,,,1974.7731335423887,None,"['c', 'h', 'e', 'e', 'r']",1,"[0.6600954020395875, 0.8201937032863498, 1.0282010422088206, 1.1882608602754772, 1.3241910799406469]",1974.7731335423887,None,1974.772785012098,1974.872957675252,,,,,,,,,,,,s179_08092022,001,2022_Sep_08_1055,test_typingtask_norepeats,2020.2.10,59.95773610517885,
pykka,pykka,,,,,0,108,108,108,,,,,,,,1980.2728746752255,None,"['p', 'y', 'k', 'k', 'a']",1,"[0.7204741998575628, 0.8483938090503216, 1.152473097667098, 1.2963713030330837, 1.4804660119116306]",1980.2728746752255,None,1980.2729629701469,1980.3728774101473,,,,,,,,,,,,s179_08092022,001,2022_Sep_08_1055,test_typingtask_norepeats,2020.2.10,59.95773610517885,
edthe,edthe,,,,,0,109,109,109,,,,,,,,1985.7728913752362,None,"['e', 'd', 't', 'h', 'e']",1,"[0.6204535490833223, 0.8444624249823391, 1.1244080220349133, 1.2684415034018457, 1.4204147472046316]",1985.7728913752362,None,1985.773080086289,1985.8727480713278,,,,,,,,,,,,s179_08092022,001,2022_Sep_08_1055,test_typingtask_norepeats,2020.2.10,59.95773610517885,
therm,therm,,,,,0,110,110,110,,,,,,,,1991.2730208439752,None,"['t', 'h', 'e', 'r', 'm']",1,"[0.5682052308693528, 0.6562690739519894, 0.7523538107052445, 0.8482374027371407, 0.9602187490090728]",1991.2730208439752,None,1991.273008319037,1991.372858766932,,,,,,,,,,,,s179_08092022,001,2022_Sep_08_1055,test_typingtask_norepeats,2020.2.10,59.95773610517885,
zibja,zibja,,,,,0,111,111,111,,,,,,,,1996.7730753030628,None,"['z', 'i', 'b', 'j', 'a']",1,"[0.7242329511791468, 0.8362761260941625, 1.0202359650284052, 1.236242480110377, 1.3721787668764591]",1996.7730753030628,None,1996.7730361492838,1996.872942536138,,,,,,,,,,,,s179_08092022,001,2022_Sep_08_1055,test_typingtask_norepeats,2020.2.10,59.95773610517885,
faqir,faqir,,,,,0,112,112,112,,,,,,,,2002.2730856379494,None,"['f', 'a', 'q', 'i', 'r']",1,"[1.0641992799937725, 1.2162026148289442, 1.5681332759559155, 1.9041835209354758, 2.0242786020971835]",2002.2730856379494,None,2002.273050972214,2002.373106915038,,,,,,,,,,,,s179_08092022,001,2022_Sep_08_1055,test_typingtask_norepeats,2020.2.10,59.95773610517885,
kremp,kremp,,,,,0,113,113,113,,,,,,,,2007.77314038435,None,"['k', 'r', 'e', 'm', 'p']",1,"[0.6760994018986821, 0.7721942840144038, 0.8600845369510353, 0.940165261272341, 1.0920741041190922]",2007.77314038435,None,2007.773056399962,2007.8730232371017,,,,,,,,,,,,s179_08092022,001,2022_Sep_08_1055,test_typingtask_norepeats,2020.2.10,59.95773610517885,
buddy,buddy,,,,,0,114,114,114,,,,,,,,2013.2727097822353,None,"['b', 'u', 'd', 'd', 'y']",1,"[0.7125704810023308, 0.9525815169326961, 1.1526412488892674, 1.288595617748797, 1.3925167876295745]",2013.2727097822353,None,2013.2728538312483,2013.37279679114,,,,,,,,,,,,s179_08092022,001,2022_Sep_08_1055,test_typingtask_norepeats,2020.2.10,59.95773610517885,
vanru,vanru,,,,,0,115,115,115,,,,,,,,2018.7729863841087,None,"['c', 'v', 'a', 'n', 'r', 'u']",0,"[0.8443958517163992, 0.8443958517163992, 1.4283956540748477, 1.572361548896879, 1.7643271731212735, 1.8922554650343955]",2018.7729863841087,None,2018.7729815532919,2018.8729245443828,,,,,,,,,,,,s179_08092022,001,2022_Sep_08_1055,test_typingtask_norepeats,2020.2.10,59.95773610517885,
champ,champ,,,,,0,116,116,116,,,,,,,,2024.2728964653797,None,"['c', 'h', 'a', 'm', 'p']",1,"[0.7603932903148234, 0.8564610010944307, 0.9603265402838588, 1.07233410095796, 1.1923627681098878]",2024.2728964653797,None,2024.2731513729784,2024.3730779672042,,,,,,,,,,,,s179_08092022,001,2022_Sep_08_1055,test_typingtask_norepeats,2020.2.10,59.95773610517885,
cheer,cheer,,,,,0,117,117,117,,,,,,,,2029.7729161870666,None,"['c', 'h', 'e', 'e', 'r']",1,"[0.7963284100405872, 0.9883239660412073, 1.2284314003773034, 1.3723807041533291, 1.5004098461940885]",2029.7729161870666,None,2029.7730142022017,2029.873037524987,,,,,,,,,,,,s179_08092022,001,2022_Sep_08_1055,test_typingtask_norepeats,2020.2.10,59.95773610517885,
think,think,,,,,0,118,118,118,,,,,,,,2035.272877971176,None,"['t', 'h', 'i', 'n', 'k']",1,"[0.7284576157107949, 0.7763776360079646, 0.8804466966539621, 1.07251642877236, 1.2324001085944474]",2035.272877971176,None,2035.2731606978457,2035.3731283321977,,,,,,,,,,,,s179_08092022,001,2022_Sep_08_1055,test_typingtask_norepeats,2020.2.10,59.95773610517885,
belly,belly,,,,,0,119,119,119,,,,,,,,2040.7729160431772,None,"['b', 'e', 'l', 'l', 'y']",1,"[0.6364450277760625, 0.7963708639144897, 0.9563402710482478, 1.0842990637756884, 1.3243932877667248]",2040.7729160431772,None,2040.772879512934,2040.8734150710516,,,,,,,,,,,,s179_08092022,001,2022_Sep_08_1055,test_typingtask_norepeats,2020.2.10,59.95773610517885,
haole,haole,,,,,,,,,0,0,0,0,,,,,,,,,,,,,2046.273234449327,None,2169.262945658993,None,"['h', 'a', 'o', 'l', 'e']",1,"[1.0423746788874269, 1.1623583449982107, 1.2263929238542914, 1.4182882588356733, 1.5383795727975667]",2169.262945658993,None,2169.2570778741037,2169.3568251393735,s179_08092022,001,2022_Sep_08_1055,test_typingtask_norepeats,2020.2.10,59.95773610517885,
there,there,,,,,,,,,0,1,1,1,,,,,,,,,,,,,,,2174.77338405326,None,"['t', 'h', 'e', 'r', 'e']",1,"[0.5958574106916785, 0.6678760279901326, 0.7958992957137525, 0.867970653809607, 0.9799710516817868]",2174.77338405326,None,2174.7731765470935,2174.873225618154,s179_08092022,001,2022_Sep_08_1055,test_typingtask_norepeats,2020.2.10,59.95773610517885,
think,think,,,,,,,,,0,2,2,2,,,,,,,,,,,,,,,2180.2733511319384,None,"['t', 'h', 'i', 'n', 'k']",1,"[0.5919876187108457, 0.6399522158317268, 0.7598761920817196, 0.9280116800218821, 1.111961015034467]",2180.2733511319384,None,2180.273203324946,2180.373122431338,s179_08092022,001,2022_Sep_08_1055,test_typingtask_norepeats,2020.2.10,59.95773610517885,
tithe,tithe,,,,,,,,,0,3,3,3,,,,,,,,,,,,,,,2185.7760813790374,None,"['t', 'i', 't', 'h', 'e']",1,"[0.6172092398628592, 0.9931504959240556, 1.313212312757969, 1.473133962135762, 1.6252939407713711]",2185.7760813790374,None,2185.7742953090465,2185.8738056952134,s179_08092022,001,2022_Sep_08_1055,test_typingtask_norepeats,2020.2.10,59.95773610517885,
druze,druze,,,,,,,,,0,4,4,4,,,,,,,,,,,,,,,2191.273196692113,None,"['d', 'r', 'u', 'z', 'e']",1,"[1.112205175217241, 1.3600340182892978, 1.5680410251952708, 1.696045792195946, 1.8561958950012922]",2191.273196692113,None,2191.273243586952,2191.373164717108,s179_08092022,001,2022_Sep_08_1055,test_typingtask_norepeats,2020.2.10,59.95773610517885,
heond,heond,,,,,,,,,0,5,5,5,,,,,,,,,,,,,,,2196.7731731273234,None,"['h', 'e', 'o', 'n', 'd']",1,"[0.7480605598539114, 0.8281922377645969, 0.9400690458714962, 1.0680435779504478, 1.2361742476932704]",2196.7731731273234,None,2196.773288958194,2196.873402777128,s179_08092022,001,2022_Sep_08_1055,test_typingtask_norepeats,2020.2.10,59.95773610517885,
would,would,,,,,,,,,0,6,6,6,,,,,,,,,,,,,,,2202.27351871226,None,"['w', 'o', 'u', 'l', 'd']",1,"[0.6318203555420041, 0.7278450517915189, 0.8238412286154926, 1.0078259948641062, 1.1518217278644443]",2202.27351871226,None,2202.2732665808408,2202.373377195094,s179_08092022,001,2022_Sep_08_1055,test_typingtask_norepeats,2020.2.10,59.95773610517885,
pykka,pykka,,,,,,,,,0,7,7,7,,,,,,,,,,,,,,,2207.773845937103,None,"['p', 'y', 'k', 'k', 'a']",1,"[0.6994396606460214, 0.8195118587464094, 1.1634345958009362, 1.2914343317970634, 1.4275183868594468]",2207.773845937103,None,2207.774202416139,None,s179_08092022,001,2022_Sep_08_1055,test_typingtask_norepeats,2020.2.10,59.95773610517885,
heond,heond,,,,,,,,,0,8,8,8,,,,,,,,,,,,,,,2213.273124127183,None,"['h', 'e', 'o', 'n', 'd']",1,"[0.5922390180639923, 0.7361861760728061, 0.8162247529253364, 0.9522190010175109, 1.1841135551221669]",2213.273124127183,None,2213.273290858092,2213.373309419956,s179_08092022,001,2022_Sep_08_1055,test_typingtask_norepeats,2020.2.10,59.95773610517885,
about,about,,,,,,,,,0,9,9,9,,,,,,,,,,,,,,,2218.7732353419997,None,"['a', 'b', 'o', 'u', 't']",1,"[0.6681094411760569, 0.7959869639016688, 0.9719918789342046, 1.0999802588485181, 1.2519990471191704]",2218.7732353419997,None,2218.772874475876,2218.8731413823552,s179_08092022,001,2022_Sep_08_1055,test_typingtask_norepeats,2020.2.10,59.95773610517885,
edthe,edthe,,,,,,,,,0,10,10,10,,,,,,,,,,,,,,,2224.273473441135,None,"['e', 'd', 't', 'h', 'e']",1,"[0.695796174928546, 0.9278092877939343, 1.1038673887960613, 1.2078399839811027, 1.3359066206030548]",2224.273473441135,None,2224.2735393242447,2224.3735665162094,s179_08092022,001,2022_Sep_08_1055,test_typingtask_norepeats,2020.2.10,59.95773610517885,
puppy,puppy,,,,,,,,,0,11,11,11,,,,,,,,,,,,,,,2229.773191201035,None,"['p', 'u', 'p', 'p', 'y']",1,"[0.6521008592098951, 0.772159319370985, 1.0440477752126753, 1.2121301852166653, 1.332141921389848]",2229.773191201035,None,2229.773296697019,2229.873334675096,s179_08092022,001,2022_Sep_08_1055,test_typingtask_norepeats,2020.2.10,59.95773610517885,
belly,belly,,,,,,,,,0,12,12,12,,,,,,,,,,,,,,,2235.273274284322,None,"['b', 'e', 'l', 'l', 'y']",1,"[0.6560261650010943, 0.8401169390417635, 1.0879438603296876, 1.2320393710397184, 1.432065101340413]",2235.273274284322,None,2235.2732746591328,2235.373393303249,s179_08092022,001,2022_Sep_08_1055,test_typingtask_norepeats,2020.2.10,59.95773610517885,
kremp,kremp,,,,,,,,,0,13,13,13,,,,,,,,,,,,,,,2240.7734252400696,None,"['k', 'r', 'e', 'm', 'p']",1,"[0.6119540170766413, 0.7719217599369586, 0.899916647002101, 0.9559337529353797, 1.1238761879503727]",2240.7734252400696,None,2240.7732169250494,2240.8732705330476,s179_08092022,001,2022_Sep_08_1055,test_typingtask_norepeats,2020.2.10,59.95773610517885,
haole,haole,,,,,,,,,0,14,14,14,,,,,,,,,,,,,,,2246.27326934319,None,"['h', 'a', 'o', 'l', 'e']",1,"[0.8400462209247053, 0.983961961697787, 1.1120631229132414, 1.3520812108181417, 1.4801285779103637]",2246.27326934319,None,2246.2730831172785,2246.3733614180237,s179_08092022,001,2022_Sep_08_1055,test_typingtask_norepeats,2020.2.10,59.95773610517885,
edthe,edthe,,,,,,,,,0,15,15,15,,,,,,,,,,,,,,,2251.7734176651575,None,"['e', 'd', 't', 'h', 'e']",1,"[0.6199425971135497, 0.843824153766036, 1.0838147937320173, 1.1878816150128841, 1.3078924557194114]",2251.7734176651575,None,2251.773456715001,2251.873178157024,s179_08092022,001,2022_Sep_08_1055,test_typingtask_norepeats,2020.2.10,59.95773610517885,
would,would,,,,,,,,,0,16,16,16,,,,,,,,,,,,,,,2257.2733427332714,None,"['w', 'o', 'u', 'l', 'd']",1,"[0.6720038959756494, 0.7200141423381865, 0.9280524691566825, 1.143887388985604, 1.2878848402760923]",2257.2733427332714,None,2257.2733652782163,2257.373261493165,s179_08092022,001,2022_Sep_08_1055,test_typingtask_norepeats,2020.2.10,59.95773610517885,
cooed,cooed,,,,,,,,,0,17,17,17,,,,,,,,,,,,,,,2262.7733776341192,None,"['c', 'o', 'o', 'e', 'd']",1,"[1.0678309751674533, 1.3159590042196214, 1.4598574470728636, 1.5639564939774573, 1.827909897081554]",2262.7733776341192,None,2262.7734662359117,2262.8731836271472,s179_08092022,001,2022_Sep_08_1055,test_typingtask_norepeats,2020.2.10,59.95773610517885,
lucky,lucky,,,,,,,,,0,18,18,18,,,,,,,,,,,,,,,2268.27342853928,None,"['l', 'u', 'c', 'k', 'y']",1,"[0.5678460393100977, 0.7758125639520586, 1.0158700603060424, 1.1519217309542, 1.3598320102319121]",2268.27342853928,None,2268.273475755891,2268.3734469101764,s179_08092022,001,2022_Sep_08_1055,test_typingtask_norepeats,2020.2.10,59.95773610517885,
druze,druze,,,,,,,,,0,19,19,19,,,,,,,,,,,,,,,2273.773215011228,None,"['d', 'r', 'u', 'z', 'e']",1,"[0.6921518188901246, 0.8440129510127008, 0.9881345396861434, 1.1480354946106672, 1.3001297609880567]",2273.773215011228,None,2273.773452684237,2273.8733838163316,s179_08092022,001,2022_Sep_08_1055,test_typingtask_norepeats,2020.2.10,59.95773610517885,
therm,therm,,,,,,,,,0,20,20,20,,,,,,,,,,,,,,,2279.273376476951,None,"['t', 'h', 'e', 'r', 'm']",1,"[0.6399176167324185, 0.759860266931355, 0.9039567010477185, 0.9999663280323148, 1.1039681038819253]",2279.273376476951,None,2279.2734275739176,2279.3734287451953,s179_08092022,001,2022_Sep_08_1055,test_typingtask_norepeats,2020.2.10,59.95773610517885,
zibja,zibja,,,,,,,,,0,21,21,21,,,,,,,,,,,,,,,2284.7733886130154,None,"['z', 'u', 'b', 'j', 'a']",0,"[0.699935573618859, 0.8759732986800373, 1.1158575918525457, 1.3558966829441488, 1.4678495526313782]",2284.7733886130154,None,2284.7732287891677,2284.8733904720284,s179_08092022,001,2022_Sep_08_1055,test_typingtask_norepeats,2020.2.10,59.95773610517885,
vodka,vodka,,,,,,,,,0,22,22,22,,,,,,,,,,,,,,,2290.273147888016,None,"['v', 'o', 'd', 'k', 'a']",1,"[1.1202056570909917, 1.3601267170161009, 1.5522073712199926, 1.6881640581414104, 1.8321633823215961]",2290.273147888016,None,2290.273414020846,2290.3733605341986,s179_08092022,001,2022_Sep_08_1055,test_typingtask_norepeats,2020.2.10,59.95773610517885,
kremp,kremp,,,,,,,,,0,23,23,23,,,,,,,,,,,,,,,2295.7732198513113,None,"['k', 'r', 'e', 'm', 'p']",1,"[0.6600152729079127, 0.7960112881846726, 0.9001174941658974, 0.9880134109407663, 1.1080192709341645]",2295.7732198513113,None,2295.7734287329486,2295.873412696179,s179_08092022,001,2022_Sep_08_1055,test_typingtask_norepeats,2020.2.10,59.95773610517885,
buddy,buddy,,,,,,,,,0,24,24,24,,,,,,,,,,,,,,,2301.2735336101614,None,"['b', 'u', 'd', 'd', 'y']",1,"[0.7117950259707868, 0.9756872160360217, 1.1596969780512154, 1.319894275162369, 1.431815193966031]",2301.2735336101614,None,2301.2732071061155,2301.373280436266,s179_08092022,001,2022_Sep_08_1055,test_typingtask_norepeats,2020.2.10,59.95773610517885,
champ,champ,,,,,,,,,0,25,25,25,,,,,,,,,,,,,,,2306.7733352710493,None,"['c', 'h', 'a', 'm', 'p']",1,"[0.7320032748393714, 0.8279893710277975, 0.9879607786424458, 1.0760044930502772, 1.187939910683781]",2306.7733352710493,None,2306.773483203212,2306.8737273672596,s179_08092022,001,2022_Sep_08_1055,test_typingtask_norepeats,2020.2.10,59.95773610517885,
about,about,,,,,,,,,0,26,26,26,,,,,,,,,,,,,,,2312.2733916691504,None,"['a', 'b', 'o', 'u', 't']",1,"[0.6159522607922554, 0.7518501477316022, 0.9198852218687534, 1.0319178448989987, 1.2079735337756574]",2312.2733916691504,None,2312.273203594098,2312.3737772409804,s179_08092022,001,2022_Sep_08_1055,test_typingtask_norepeats,2020.2.10,59.95773610517885,
cheer,cheer,,,,,,,,,0,27,27,27,,,,,,,,,,,,,,,2317.7736005252227,None,"['c', 'h', 'e', 'e', 'r']",1,"[0.6116953021846712, 0.747639783192426, 0.9557568551972508, 1.1237582373432815, 1.2596338014118373]",2317.7736005252227,None,2317.773302060971,2317.8734096162952,s179_08092022,001,2022_Sep_08_1055,test_typingtask_norepeats,2020.2.10,59.95773610517885,
think,think,,,,,,,,,0,28,28,28,,,,,,,,,,,,,,,2323.27356484998,None,"['t', 'h', 'i', 'n', 'k']",1,"[0.6078181103803217, 0.6956750173121691, 0.7997492691501975, 0.9676650580950081, 1.127761045936495]",2323.27356484998,None,2323.2733363229318,2323.3734273002483,s179_08092022,001,2022_Sep_08_1055,test_typingtask_norepeats,2020.2.10,59.95773610517885,
druze,druze,,,,,,,,,0,29,29,29,,,,,,,,,,,,,,,2328.7734144781716,None,"['d', 'r', 'u', 'z', 'e']",1,"[0.7958380142226815, 0.9799123462289572, 1.1639072629623115, 1.307941973209381, 1.427954480983317]",2328.7734144781716,None,2328.773360848846,2328.873275001999,s179_08092022,001,2022_Sep_08_1055,test_typingtask_norepeats,2020.2.10,59.95773610517885,
vanru,vanru,,,,,,,,,0,30,30,30,,,,,,,,,,,,,,,2334.2735138819553,None,"['v', 'a', 'n', 'r', 'u']",1,"[0.8797648986801505, 1.015830528922379, 1.1997786457650363, 1.3278425079770386, 1.5118149579502642]",2334.2735138819553,None,2334.2736592990814,2334.373331095092,s179_08092022,001,2022_Sep_08_1055,test_typingtask_norepeats,2020.2.10,59.95773610517885,
zibja,zibja,,,,,,,,,0,31,31,31,,,,,,,,,,,,,,,2339.7735454370268,None,"['z', 'i', 'b', 'j', 'a']",1,"[0.8517977106384933, 1.011790211778134, 1.2197611760348082, 1.5877069826237857, 1.7797811520285904]",2339.7735454370268,None,2339.7734844591005,2339.8733676252887,s179_08092022,001,2022_Sep_08_1055,test_typingtask_norepeats,2020.2.10,59.95773610517885,
belly,belly,,,,,,,,,0,32,32,32,,,,,,,,,,,,,,,2345.2736333790235,None,"['b', 'e', 'l', 'l', 'y']",1,"[0.6716052778065205, 0.8237219769507647, 0.975762777030468, 1.1197331841103733, 1.2716637509875]",2345.2736333790235,None,2345.2735028140714,2345.373478227295,s179_08092022,001,2022_Sep_08_1055,test_typingtask_norepeats,2020.2.10,59.95773610517885,
about,about,,,,,,,,,0,33,33,33,,,,,,,,,,,,,,,2350.7735051820055,None,"['a', 'b', 'o', 'u', 't']",1,"[0.6118003884330392, 0.7158236773684621, 0.8837024583481252, 0.971876681316644, 1.1237289430573583]",2350.7735051820055,None,2350.773465292016,2350.873520351015,s179_08092022,001,2022_Sep_08_1055,test_typingtask_norepeats,2020.2.10,59.95773610517885,
champ,champ,,,,,,,,,0,34,34,34,,,,,,,,,,,,,,,2356.273649338167,None,"['c', 'h', 'a', 'm', 'p']",1,"[0.7036947892047465, 0.8076473311521113, 0.9516937993466854, 1.055706332437694, 1.1835828311741352]",2356.273649338167,None,2356.2736777471846,2356.3736815312877,s179_08092022,001,2022_Sep_08_1055,test_typingtask_norepeats,2020.2.10,59.95773610517885,
pykka,pykka,,,,,,,,,0,35,35,35,,,,,,,,,,,,,,,2361.7733780243434,None,"['p', 'y', 'k', 'k', 'a']",1,"[0.6758921556174755, 0.803976196795702, 1.1159614818170667, 1.259863018989563, 1.4119524918496609]",2361.7733780243434,None,2361.7735226498453,2361.873422667384,s179_08092022,001,2022_Sep_08_1055,test_typingtask_norepeats,2020.2.10,59.95773610517885,
there,there,,,,,,,,,0,36,36,36,,,,,,,,,,,,,,,2367.2733733332716,None,"['t', 'h', 'e', 'r', 'e']",1,"[0.6639770502224565, 0.8159636589698493, 0.9678574549034238, 1.0558611522428691, 1.1838335562497377]",2367.2733733332716,None,2367.273296771059,2367.373572119046,s179_08092022,001,2022_Sep_08_1055,test_typingtask_norepeats,2020.2.10,59.95773610517885,
think,think,,,,,,,,,0,37,37,37,,,,,,,,,,,,,,,2372.773435533978,None,"['t', 'h', 'i', 'n', 'k']",1,"[0.5958677702583373, 0.7319011250510812, 0.8278348622843623, 1.0119337169453502, 1.195787976961583]",2372.773435533978,None,2372.7734363520985,2372.873886187095,s179_08092022,001,2022_Sep_08_1055,test_typingtask_norepeats,2020.2.10,59.95773610517885,
there,there,,,,,,,,,0,38,38,38,,,,,,,,,,,,,,,2378.2733910931274,None,"['t', 'h', 'e', 'r', 'e']",1,"[0.5359437400475144, 0.6718588741496205, 0.7838373710401356, 0.8798902733251452, 0.9998868401162326]",2378.2733910931274,None,2378.273567111185,2378.3736626333557,s179_08092022,001,2022_Sep_08_1055,test_typingtask_norepeats,2020.2.10,59.95773610517885,
zibja,zibja,,,,,,,,,0,39,39,39,,,,,,,,,,,,,,,2383.7738000690006,None,"['z', 'i', 'b', 'j', 'a']",1,"[0.8195283617824316, 0.9394304468296468, 1.1394289401359856, 1.379481424111873, 1.4914319720119238]",2383.7738000690006,None,2383.7732422030067,2383.8731866031885,s179_08092022,001,2022_Sep_08_1055,test_typingtask_norepeats,2020.2.10,59.95773610517885,
therm,therm,,,,,,,,,0,40,40,40,,,,,,,,,,,,,,,2389.273470613174,None,"['t', 'h', 'e', 'r', 'm']",1,"[0.5919124488718808, 0.7038066647946835, 0.8158627538941801, 0.8957525589503348, 1.0557789551094174]",2389.273470613174,None,2389.2732716360597,2389.3734691939317,s179_08092022,001,2022_Sep_08_1055,test_typingtask_norepeats,2020.2.10,59.95773610517885,
puppy,puppy,,,,,,,,,0,41,41,41,,,,,,,,,,,,,,,2394.7735458789393,None,"['p', 'u', 'p', 'p', 'y']",1,"[0.7077121650800109, 0.8437348799780011, 1.179698129184544, 1.3477362738922238, 1.491803864017129]",2394.7735458789393,None,2394.7734051472044,2394.873453966342,s179_08092022,001,2022_Sep_08_1055,test_typingtask_norepeats,2020.2.10,59.95773610517885,
there,there,,,,,,,,,0,42,42,42,,,,,,,,,,,,,,,2400.273545301985,None,"['h', 'e', 'r', 'e']",0,"[0.7436954076401889, 1.1757438089698553, 1.2956842640414834, 1.4237842569127679]",2400.273545301985,None,2400.2733898921406,2400.373476257082,s179_08092022,001,2022_Sep_08_1055,test_typingtask_norepeats,2020.2.10,59.95773610517885,
vodka,vodka,,,,,,,,,0,43,43,43,,,,,,,,,,,,,,,2405.7736365012825,None,"['v', 'o', 'd', 'k', 'a']",1,"[0.907730364240706, 1.083607076201588, 1.5956148602999747, 1.7717591249383986, 1.939755659084767]",2405.7736365012825,None,2405.7736461231952,2405.8734453073703,s179_08092022,001,2022_Sep_08_1055,test_typingtask_norepeats,2020.2.10,59.95773610517885,
vanru,vanru,,,,,,,,,0,44,44,44,,,,,,,,,,,,,,,2411.273622587323,None,"['v', 'a', 'n', 'r', 'u']",1,"[0.9676143550314009, 1.1036844719201326, 1.3197333859279752, 1.4797578998841345, 1.6557747917249799]",2411.273622587323,None,2411.273606249085,2411.373528363183,s179_08092022,001,2022_Sep_08_1055,test_typingtask_norepeats,2020.2.10,59.95773610517885,
kremp,kremp,,,,,,,,,0,45,45,45,,,,,,,,,,,,,,,2416.773603289388,None,"['k', 'r', 'e', 'm', 'p']",1,"[0.6437015254050493, 0.7717722891829908, 0.8676128061488271, 0.9477147874422371, 1.091697643045336]",2416.773603289388,None,2416.7737211812755,2416.8737408681773,s179_08092022,001,2022_Sep_08_1055,test_typingtask_norepeats,2020.2.10,59.95773610517885,
zibja,zibja,,,,,,,,,0,46,46,46,,,,,,,,,,,,,,,2422.2738110921346,None,"['z', 'i', 'b', 'j', 'a']",1,"[0.7995261210016906, 1.2155114230699837, 1.495405632071197, 1.7514373413287103, 1.871539541054517]",2422.2738110921346,None,2422.2735671381934,2422.3735630353913,s179_08092022,001,2022_Sep_08_1055,test_typingtask_norepeats,2020.2.10,59.95773610517885,
heond,heond,,,,,,,,,0,47,47,47,,,,,,,,,,,,,,,2427.7735785562545,None,"['h', 'e', 'o', 'n', 'd']",1,"[0.7397264051251113, 0.843649361282587, 0.9797014030627906, 1.1157258013263345, 1.307819141075015]",2427.7735785562545,None,2427.7734248232564,2427.8737984513864,s179_08092022,001,2022_Sep_08_1055,test_typingtask_norepeats,2020.2.10,59.95773610517885,
buddy,buddy,,,,,,,,,0,48,48,48,,,,,,,,,,,,,,,2433.273522692267,None,"['b', 'u', 'd', 'd', 'y']",1,"[0.6558339199982584, 0.9198144660331309, 1.1117901839315891, 1.2638116138987243, 1.3918145010247827]",2433.273522692267,None,2433.2734429072125,2433.373613308184,s179_08092022,001,2022_Sep_08_1055,test_typingtask_norepeats,2020.2.10,59.95773610517885,
vanru,vanru,,,,,,,,,0,49,49,49,,,,,,,,,,,,,,,2438.7735718241893,None,"['v', 'a', 'n', 'r', 'u']",1,"[0.747728421818465, 0.8676622579805553, 1.0357732251286507, 1.2197740110568702, 1.4197810790501535]",2438.7735718241893,None,2438.7736940551085,2438.8739605690353,s179_08092022,001,2022_Sep_08_1055,test_typingtask_norepeats,2020.2.10,59.95773610517885,
faqir,faqir,,,,,,,,,0,50,50,50,,,,,,,,,,,,,,,2444.2735293470323,None,"['f', 'a', 'q', 'i', 'r']",1,"[0.8956905859522521, 1.0157861188054085, 1.2157782828435302, 1.415772985201329, 1.5596796600148082]",2444.2735293470323,None,2444.273396800226,2444.373661346268,s179_08092022,001,2022_Sep_08_1055,test_typingtask_norepeats,2020.2.10,59.95773610517885,
theme,theme,,,,,,,,,0,51,51,51,,,,,,,,,,,,,,,2449.7733867112547,None,"['t', 'h', 'e', 'm', 'e']",1,"[0.6039041243493557, 0.7399599212221801, 0.9079082319512963, 1.035946102347225, 1.1799878613092005]",2449.7733867112547,None,2449.7735223569443,2449.873557036277,s179_08092022,001,2022_Sep_08_1055,test_typingtask_norepeats,2020.2.10,59.95773610517885,
champ,champ,,,,,,,,,0,52,52,52,,,,,,,,,,,,,,,2455.273539284244,None,"['c', 'a', 'm', 'p']",0,"[0.6718329950235784, 0.7836928348988295, 0.8797097378410399, 1.039767986163497]",2455.273539284244,None,2455.273451861879,2455.373844399117,s179_08092022,001,2022_Sep_08_1055,test_typingtask_norepeats,2020.2.10,59.95773610517885,
puppy,puppy,,,,,,,,,0,53,53,53,,,,,,,,,,,,,,,2460.7737839920446,None,"['p', 'u', 'p', 'p', 'y']",1,"[0.6515176789835095, 1.0275327563285828, 1.2434290903620422, 1.3794987662695348, 1.5155583722516894]",2460.7737839920446,None,2460.773593214294,2460.8736171261407,s179_08092022,001,2022_Sep_08_1055,test_typingtask_norepeats,2020.2.10,59.95773610517885,
would,would,,,,,,,,,0,54,54,54,,,,,,,,,,,,,,,2466.2737119710073,None,"['w', 'o', 'u', 'l', 'd']",1,"[0.6475425232201815, 0.7516404571942985, 0.855554539244622, 1.0475684711709619, 1.2636329741217196]",2466.2737119710073,None,2466.274030737998,2466.3736537140794,s179_08092022,001,2022_Sep_08_1055,test_typingtask_norepeats,2020.2.10,59.95773610517885,
lucky,lucky,,,,,,,,,0,55,55,55,,,,,,,,,,,,,,,2471.7736901612952,None,"['l', 'u', 'c', 'k', 'y']",1,"[0.6355996229685843, 0.771533811930567, 0.9875347968190908, 1.4835213287733495, 1.7795216818340123]",2471.7736901612952,None,2471.7736858762337,2471.873493114952,s179_08092022,001,2022_Sep_08_1055,test_typingtask_norepeats,2020.2.10,59.95773610517885,
therm,therm,,,,,,,,,0,56,56,56,,,,,,,,,,,,,,,2477.2735117520206,None,"['t', 'h', 'e', 'r', 'm']",1,"[0.7358385510742664, 0.8797327009961009, 1.0877960100769997, 1.2078366870991886, 1.351724128704518]",2477.2735117520206,None,2477.2738119661344,2477.3735137032345,s179_08092022,001,2022_Sep_08_1055,test_typingtask_norepeats,2020.2.10,59.95773610517885,
about,about,,,,,,,,,0,57,57,57,,,,,,,,,,,,,,,2482.773651468102,None,"['a', 'b', 'o', 'u', 't']",1,"[0.6915780501440167, 0.8355863462202251, 1.0357063291594386, 1.0996350613422692, 1.2756081642583013]",2482.773651468102,None,2482.77370290407,2482.873451596126,s179_08092022,001,2022_Sep_08_1055,test_typingtask_norepeats,2020.2.10,59.95773610517885,
belly,belly,,,,,,,,,0,58,58,58,,,,,,,,,,,,,,,2488.2737744301558,None,"['b', 'e', 'l', 'l', 'y']",1,"[0.6155857881531119, 0.7355325152166188, 0.9036051519215107, 1.0235312320291996, 1.2156243431381881]",2488.2737744301558,None,2488.2735395100435,2488.37369863037,s179_08092022,001,2022_Sep_08_1055,test_typingtask_norepeats,2020.2.10,59.95773610517885,
edthe,edthe,,,,,,,,,0,59,59,59,,,,,,,,,,,,,,,2493.7739260722883,None,"['e', 'd', 't', 'h', 'e']",1,"[0.6354365390725434, 0.8514032149687409, 1.0513075892813504, 1.1713855611160398, 1.331354670226574]",2493.7739260722883,None,2493.7736308238937,2493.873960242141,s179_08092022,001,2022_Sep_08_1055,test_typingtask_norepeats,2020.2.10,59.95773610517885,
heond,heond,,,,,,,,,0,60,60,60,,,,,,,,,,,,,,,2499.2736877989955,None,"['h', 'e', 'o', 'n', 'd']",1,"[0.7916322899982333, 0.895592596847564, 1.0075590987689793, 1.1595579320564866, 1.375584959052503]",2499.2736877989955,None,2499.273752515158,2499.373784565367,s179_08092022,001,2022_Sep_08_1055,test_typingtask_norepeats,2020.2.10,59.95773610517885,
lucky,lucky,,,,,,,,,0,61,61,61,,,,,,,,,,,,,,,2504.7735315272585,None,"['l', 'u', 'c', 'k', 'y']",1,"[0.5877654124051332, 0.7477443492971361, 0.9877572180703282, 1.1157963462173939, 1.3317400612868369]",2504.7735315272585,None,2504.7736558601728,2504.87361823814,s179_08092022,001,2022_Sep_08_1055,test_typingtask_norepeats,2020.2.10,59.95773610517885,
cooed,cooed,,,,,,,,,0,62,62,62,,,,,,,,,,,,,,,2510.273649082985,None,"['c', 'o', 'o', 'e', 'd']",1,"[1.127675263211131, 1.4075910090468824, 1.567581806331873, 1.66369290323928, 1.9036694900132716]",2510.273649082985,None,2510.2735341772905,2510.3737869961187,s179_08092022,001,2022_Sep_08_1055,test_typingtask_norepeats,2020.2.10,59.95773610517885,
tithe,tithe,,,,,,,,,0,63,63,63,,,,,,,,,,,,,,,2515.7735501793213,None,"['t', 'i', 't', 'h', 'e']",1,"[0.7957784961909056, 0.9158044969663024, 1.0437402199022472, 1.1877955170348287, 1.3558120280504227]",2515.7735501793213,None,2515.7736460030546,2515.8738269140013,s179_08092022,001,2022_Sep_08_1055,test_typingtask_norepeats,2020.2.10,59.95773610517885,
haole,haole,,,,,,,,,0,64,64,64,,,,,,,,,,,,,,,2521.2736389082856,None,"['h', 'a', 'o', 'l', 'e']",1,"[0.6636584028601646, 0.8316807812079787, 0.9516619830392301, 1.2077298732474446, 1.3197038332000375]",2521.2736389082856,None,2521.2736240438653,2521.3737074323,s179_08092022,001,2022_Sep_08_1055,test_typingtask_norepeats,2020.2.10,59.95773610517885,
belly,belly,,,,,,,,,0,65,65,65,,,,,,,,,,,,,,,2526.773787669372,None,"['b', 'e', 'l', 'l', 'y']",1,"[0.7875599930994213, 0.9715576497837901, 1.1235546567477286, 1.235560174100101, 1.4594459948129952]",2526.773787669372,None,2526.773737805849,2526.8737538172863,s179_08092022,001,2022_Sep_08_1055,test_typingtask_norepeats,2020.2.10,59.95773610517885,
cheer,cheer,,,,,,,,,0,66,66,66,,,,,,,,,,,,,,,2532.273672420997,None,"['c', 'h', 'e', 'e', 'r']",1,"[0.7675595385953784, 0.9116431148722768, 1.159584516659379, 1.3116283267736435, 1.471636498812586]",2532.273672420997,None,2532.2735337181484,2532.374171066098,s179_08092022,001,2022_Sep_08_1055,test_typingtask_norepeats,2020.2.10,59.95773610517885,
lucky,lucky,,,,,,,,,0,67,67,67,,,,,,,,,,,,,,,2537.773823895026,None,"['l', 'u', 'c', 'k', 'y']",1,"[0.611510697286576, 0.7715184153057635, 0.995505687315017, 1.1474537029862404, 1.5235266322270036]",2537.773823895026,None,2537.7736176079607,2537.8737533371896,s179_08092022,001,2022_Sep_08_1055,test_typingtask_norepeats,2020.2.10,59.95773610517885,
there,there,,,,,,,,,0,68,68,68,,,,,,,,,,,,,,,2543.2738122032024,None,"['t', 'h', 'e', 'r', 'e']",1,"[0.6314683207310736, 0.7674217247404158, 0.9114777809008956, 1.015508744865656, 1.119484796654433]",2543.2738122032024,None,2543.2744395280724,2543.374012436252,s179_08092022,001,2022_Sep_08_1055,test_typingtask_norepeats,2020.2.10,59.95773610517885,
cooed,cooed,,,,,,,,,0,69,69,69,,,,,,,,,,,,,,,2548.773789646104,None,"['c', 'o', 'o', 'e', 'd']",1,"[0.85152552369982, 1.0835337778553367, 1.243472863920033, 1.3395695476792753, 1.6115415100939572]",2548.773789646104,None,2548.773818699131,2548.8736195573583,s179_08092022,001,2022_Sep_08_1055,test_typingtask_norepeats,2020.2.10,59.95773610517885,
therm,therm,,,,,,,,,0,70,70,70,,,,,,,,,,,,,,,2554.2735685873777,None,"['t', 'h', 'e', 'r', 'm']",1,"[0.5676495372317731, 0.7197313238866627, 0.8317736862227321, 0.9596504340879619, 1.0956697510555387]",2554.2735685873777,None,2554.273768342985,2554.3735462529585,s179_08092022,001,2022_Sep_08_1055,test_typingtask_norepeats,2020.2.10,59.95773610517885,
would,would,,,,,,,,,0,71,71,71,,,,,,,,,,,,,,,2559.773589440156,None,"['w', 'o', 'u', 'l', 'd']",1,"[0.7556761442683637, 0.8836821662262082, 0.9956079283729196, 1.1717383852228522, 1.4036905663087964]",2559.773589440156,None,2559.7738403761296,2559.873944824096,s179_08092022,001,2022_Sep_08_1055,test_typingtask_norepeats,2020.2.10,59.95773610517885,
vanru,vanru,,,,,,,,,0,72,72,72,,,,,,,,,,,,,,,2565.2739841341972,None,"['v', 'a', 'n', 'r', 'u']",1,"[0.8073649890720844, 0.9432546971365809, 1.119367036037147, 1.2233230429701507, 1.4073742623440921]",2565.2739841341972,None,2565.2738184169402,2565.373773473315,s179_08092022,001,2022_Sep_08_1055,test_typingtask_norepeats,2020.2.10,59.95773610517885,
edthe,edthe,,,,,,,,,0,73,73,73,,,,,,,,,,,,,,,2570.7741514029913,None,"['e', 't', 'h', 'e']",0,"[0.707194178365171, 1.0511575262062252, 1.7791076130233705, 1.9071497963741422]",2570.7741514029913,None,2570.7737984959504,2570.874172981363,s179_08092022,001,2022_Sep_08_1055,test_typingtask_norepeats,2020.2.10,59.95773610517885,
kremp,kremp,,,,,,,,,0,74,74,74,,,,,,,,,,,,,,,2576.273814982269,None,"['k', 'r', 'e', 'm', 'p']",1,"[0.6634953371249139, 0.7754726759158075, 0.8875290700234473, 0.9035191801376641, 1.0634895279072225]",2576.273814982269,None,2576.2737851710526,2576.373830676079,s179_08092022,001,2022_Sep_08_1055,test_typingtask_norepeats,2020.2.10,59.95773610517885,
pykka,pykka,,,,,,,,,0,75,75,75,,,,,,,,,,,,,,,2581.7737114233896,None,"['p', 'y', 'k', 'k', 'a']",1,"[0.7555208699777722, 0.8675287938676775, 1.1875249091535807, 1.3235954539850354, 1.5155894528143108]",2581.7737114233896,None,2581.7738001071384,2581.8740627863444,s179_08092022,001,2022_Sep_08_1055,test_typingtask_norepeats,2020.2.10,59.95773610517885,
haole,haole,,,,,,,,,0,76,76,76,,,,,,,,,,,,,,,2587.273966438137,None,"['h', 'a', 'o', 'l', 'e']",1,"[0.7113693109713495, 0.8313335021957755, 0.9272701572626829, 1.1432776432484388, 1.2633350729011]",2587.273966438137,None,2587.273650302971,2587.3738559153862,s179_08092022,001,2022_Sep_08_1055,test_typingtask_norepeats,2020.2.10,59.95773610517885,
faqir,faqir,,,,,,,,,0,77,77,77,,,,,,,,,,,,,,,2592.773620256223,None,"['f', 'a', 'q', 'i', 'r']",1,"[0.6917332019656897, 0.8117338167503476, 1.1877326439134777, 1.6436225050128996, 1.7717371177859604]",2592.773620256223,None,2592.773882388091,2592.8740638722666,s179_08092022,001,2022_Sep_08_1055,test_typingtask_norepeats,2020.2.10,59.95773610517885,
pykka,pykka,,,,,,,,,0,78,78,78,,,,,,,,,,,,,,,2598.2738769012503,None,"['p', 'y', 'u', 'k', 'k', 'a']",0,"[0.911450476385653, 1.0714804893359542, 1.0793717834167182, 1.7195194093510509, 1.8874350492842495, 1.9673567581921816]",2598.2738769012503,None,2598.2738049411682,2598.3736820830964,s179_08092022,001,2022_Sep_08_1055,test_typingtask_norepeats,2020.2.10,59.95773610517885,
faqir,faqir,,,,,,,,,0,79,79,79,,,,,,,,,,,,,,,2603.7739081680775,None,"['f', 'a', 'q', 'i', 'r']",1,"[0.7154453438706696, 0.8593097347766161, 1.2673101918771863, 1.9953993167728186, 2.0913040288724005]",2603.7739081680775,None,2603.7736674872694,2603.873656978365,s179_08092022,001,2022_Sep_08_1055,test_typingtask_norepeats,2020.2.10,59.95773610517885,
therm,therm,,,,,,,,,0,80,80,80,,,,,,,,,,,,,,,2609.273984441068,None,"['t', 'h', 'e', 'r', 'm']",1,"[0.6472926209680736, 0.7672353028319776, 0.9113456448540092, 1.0312980338931084, 1.1353590600192547]",2609.273984441068,None,2609.273594104173,2609.3737944862805,s179_08092022,001,2022_Sep_08_1055,test_typingtask_norepeats,2020.2.10,59.95773610517885,
puppy,puppy,,,,,,,,,0,81,81,81,,,,,,,,,,,,,,,2614.7738911462948,None,"['p', 'y', 'p', 'p', 't']",0,"[0.763424607925117, 0.9234595508314669, 1.1874451716430485, 1.3394519896246493, 1.5234023709781468]",2614.7738911462948,None,2614.7737543261146,2614.8738576062024,s179_08092022,001,2022_Sep_08_1055,test_typingtask_norepeats,2020.2.10,59.95773610517885,
theme,theme,,,,,,,,,0,82,82,82,,,,,,,,,,,,,,,2620.273869295139,None,"['t', 'h', 'e', 'm', 'e']",1,"[0.6233845208771527, 0.7114183679223061, 0.8554913098923862, 0.9994361060671508, 1.1994314980693161]",2620.273869295139,None,2620.273945382284,2620.373751240317,s179_08092022,001,2022_Sep_08_1055,test_typingtask_norepeats,2020.2.10,59.95773610517885,
cooed,cooed,,,,,,,,,0,83,83,83,,,,,,,,,,,,,,,2625.7740852171555,None,"['c', 'o', 'o', 'e', 'd']",1,"[0.9072696729563177, 1.139269354287535, 1.2992532821372151, 1.4032798819243908, 1.6671518282964826]",2625.7740852171555,None,2625.773859712249,2625.87371639302,s179_08092022,001,2022_Sep_08_1055,test_typingtask_norepeats,2020.2.10,59.95773610517885,
belly,belly,,,,,,,,,0,84,84,84,,,,,,,,,,,,,,,2631.273965734057,None,"['b', 'e', 'l', 'l', 'y']",1,"[0.7592723020352423, 0.9513789233751595, 1.0633494681678712, 1.1913509611040354, 1.3912749360315502]",2631.273965734057,None,2631.273880375037,2631.3741557709873,s179_08092022,001,2022_Sep_08_1055,test_typingtask_norepeats,2020.2.10,59.95773610517885,
buddy,buddy,,,,,,,,,0,85,85,85,,,,,,,,,,,,,,,2636.773577376269,None,"['b', 'u', 'd', 'd', 'y']",1,"[0.6197418500669301, 0.9236505189910531, 1.2037652200087905, 1.3716430277563632, 1.499732033815235]",2636.773577376269,None,2636.773700518953,2636.873952913098,s179_08092022,001,2022_Sep_08_1055,test_typingtask_norepeats,2020.2.10,59.95773610517885,
vodka,vodka,,,,,,,,,0,86,86,86,,,,,,,,,,,,,,,2642.2737750420347,None,"['v', 'o', 'd', 'k', 'a']",1,"[1.0635656099766493, 1.21556564187631, 1.4155413620173931, 1.9116043741814792, 2.079488379880786]",2642.2737750420347,None,2642.2739345458804,2642.373893201351,s179_08092022,001,2022_Sep_08_1055,test_typingtask_norepeats,2020.2.10,59.95773610517885,
cheer,cheer,,,,,,,,,0,87,87,87,,,,,,,,,,,,,,,2647.773995879106,None,"['c', 'h', 'e', 'e', 'r']",1,"[0.7152677956037223, 0.9072292656637728, 1.195400467608124, 1.3472850397229195, 1.4753088876605034]",2647.773995879106,None,2647.7739133149853,2647.874222517945,s179_08092022,001,2022_Sep_08_1055,test_typingtask_norepeats,2020.2.10,59.95773610517885,
theme,theme,,,,,,,,,0,88,88,88,,,,,,,,,,,,,,,2653.273773851339,None,"['t', 'h', 'e', 'm', 'e']",1,"[0.6555836941115558, 0.7756314338184893, 0.9115974307060242, 1.047573466785252, 1.2075707339681685]",2653.273773851339,None,2653.2737746620087,2653.373927178327,s179_08092022,001,2022_Sep_08_1055,test_typingtask_norepeats,2020.2.10,59.95773610517885,
druze,druze,,,,,,,,,0,89,89,89,,,,,,,,,,,,,,,2658.7737732701935,None,"['d', 'r', 'u', 'z', 'e']",1,"[0.739543482195586, 0.9154916112311184, 1.0755650703795254, 1.2195736709982157, 1.3475883789360523]",2658.7737732701935,None,2658.773890769994,2658.8739774511196,s179_08092022,001,2022_Sep_08_1055,test_typingtask_norepeats,2020.2.10,59.95773610517885,
think,think,,,,,,,,,0,90,90,90,,,,,,,,,,,,,,,2664.2738457741216,None,"['t', 'h', 'i', 'n', 'k']",1,"[0.6314366739243269, 0.7194654997438192, 0.8154582977294922, 0.9994987808167934, 1.1673889900557697]",2664.2738457741216,None,2664.2738660489676,2664.3740681381896,s179_08092022,001,2022_Sep_08_1055,test_typingtask_norepeats,2020.2.10,59.95773610517885,
edthe,edthe,,,,,,,,,0,91,91,91,,,,,,,,,,,,,,,2669.7738252570853,None,"['e', 'd', 't', 'h', 'e']",1,"[0.691537322010845, 0.9394838339649141, 1.1474522780627012, 1.283517966978252, 1.4115453651174903]",2669.7738252570853,None,2669.7739296638874,2669.8742968691513,s179_08092022,001,2022_Sep_08_1055,test_typingtask_norepeats,2020.2.10,59.95773610517885,
vanru,vanru,,,,,,,,,0,92,92,92,,,,,,,,,,,,,,,2675.2738432050683,None,"['v', 'a', 'n', 'r', 'u']",1,"[0.9673933768644929, 1.0954782189801335, 1.2714827978052199, 1.4313993346877396, 1.5995065979659557]",2675.2738432050683,None,2675.273740861053,2675.373792654369,s179_08092022,001,2022_Sep_08_1055,test_typingtask_norepeats,2020.2.10,59.95773610517885,
druze,druze,,,,,,,,,0,93,93,93,,,,,,,,,,,,,,,2680.7740376750007,None,"['d', 'r', 'u', 'z', 'e']",1,"[0.7312477030791342, 0.8912778780795634, 1.0272600171156228, 1.1953115407377481, 1.3393062558025122]",2680.7740376750007,None,2680.7737449802926,2680.873938149307,s179_08092022,001,2022_Sep_08_1055,test_typingtask_norepeats,2020.2.10,59.95773610517885,
buddy,buddy,,,,,,,,,0,94,94,94,,,,,,,,,,,,,,,2686.273928514216,None,"['b', 'u', 'd', 'd', 'y']",1,"[1.0154168880544603, 1.2634138809517026, 1.4554642499424517, 1.5914247282780707, 1.711441915947944]",2686.273928514216,None,2686.273740252899,2686.373965066392,s179_08092022,001,2022_Sep_08_1055,test_typingtask_norepeats,2020.2.10,59.95773610517885,
cheer,cheer,,,,,,,,,0,95,95,95,,,,,,,,,,,,,,,2691.774056920316,None,"['c', 'h', 'e', 'e', 'r']",1,"[0.9392617959529161, 1.0671905153430998, 1.33118334133178, 1.4752860539592803, 1.5952513441443443]",2691.774056920316,None,2691.7740150852596,2691.873792966362,s179_08092022,001,2022_Sep_08_1055,test_typingtask_norepeats,2020.2.10,59.95773610517885,
tithe,tithe,,,,,,,,,0,96,96,96,,,,,,,,,,,,,,,2697.273965531029,None,"['t', 'i', 't', 'h', 'e']",1,"[0.69531384203583, 0.8232528637163341, 0.9272615071386099, 1.0713538341224194, 1.2392689138650894]",2697.273965531029,None,2697.274058619002,2697.373820886016,s179_08092022,001,2022_Sep_08_1055,test_typingtask_norepeats,2020.2.10,59.95773610517885,
vodka,vodka,,,,,,,,,0,97,97,97,,,,,,,,,,,,,,,2702.7739667510614,None,"['v', 'o', 'd', 'k', 'a']",1,"[0.7393907196819782, 0.9233828186988831, 1.395415980834514, 1.507394511718303, 1.6592650706879795]",2702.7739667510614,None,2702.7740945680534,2702.8739031283185,s179_08092022,001,2022_Sep_08_1055,test_typingtask_norepeats,2020.2.10,59.95773610517885,
would,would,,,,,,,,,0,98,98,98,,,,,,,,,,,,,,,2708.2741353502497,None,"['w', 'o', 'u', 'l', 'd']",1,"[0.6151540619321167, 0.7192065897397697, 0.8151620170101523, 0.9991933437995613, 1.151093244086951]",2708.2741353502497,None,2708.2739097801505,2708.3739750683308,s179_08092022,001,2022_Sep_08_1055,test_typingtask_norepeats,2020.2.10,59.95773610517885,
think,think,,,,,,,,,0,99,99,99,,,,,,,,,,,,,,,2713.77410956705,None,"['t', 'h', 'i', 'n', 'k']",1,"[0.6431329431943595, 0.7152185030281544, 0.8191990260966122, 1.003236731979996, 1.1711123860441148]",2713.77410956705,None,2713.773940366181,2713.8741258410737,s179_08092022,001,2022_Sep_08_1055,test_typingtask_norepeats,2020.2.10,59.95773610517885,
lucky,lucky,,,,,,,,,0,100,100,100,,,,,,,,,,,,,,,2719.2739360863343,None,"['l', 'u', 'c', 'k', 'y']",1,"[0.6474070297554135, 0.783374912571162, 1.0313663547858596, 1.1433092677034438, 1.367347862571478]",2719.2739360863343,None,2719.274075564882,2719.3741514072753,s179_08092022,001,2022_Sep_08_1055,test_typingtask_norepeats,2020.2.10,59.95773610517885,
buddy,buddy,,,,,,,,,0,101,101,101,,,,,,,,,,,,,,,2724.7740121851675,None,"['b', 'u', 'd', 'd', 'y']",1,"[0.6913207811303437, 0.9472926598973572, 1.1873375019058585, 1.347312050871551, 1.4432315500453115]",2724.7740121851675,None,2724.7740355962424,2724.8743370142765,s179_08092022,001,2022_Sep_08_1055,test_typingtask_norepeats,2020.2.10,59.95773610517885,
pykka,pykka,,,,,,,,,0,102,102,102,,,,,,,,,,,,,,,2730.27390921209,None,"['p', 'y', 'k', 'k', 'a']",1,"[0.663358966819942, 0.7834321861155331, 1.1114556430839002, 1.247386410832405, 1.4233322348445654]",2730.27390921209,None,2730.2738944249695,2730.373935603071,s179_08092022,001,2022_Sep_08_1055,test_typingtask_norepeats,2020.2.10,59.95773610517885,
heond,heond,,,,,,,,,0,103,103,103,,,,,,,,,,,,,,,2735.773905591108,None,"['h', 'e', 'o', 'n', 'd']",1,"[0.6594152869656682, 0.7714390316978097, 0.8594379867427051, 0.9954987727105618, 1.2594244186766446]",2735.773905591108,None,2735.7740160352087,2735.874008933082,s179_08092022,001,2022_Sep_08_1055,test_typingtask_norepeats,2020.2.10,59.95773610517885,
about,about,,,,,,,,,0,104,104,104,,,,,,,,,,,,,,,2741.27381578926,None,"['a', 'b', 'o', 'u', 't']",1,"[0.7195472377352417, 0.8314656368456781, 1.007542028091848, 1.0955551341176033, 1.2794457199051976]",2741.27381578926,None,2741.273934998969,2741.3744493681006,s179_08092022,001,2022_Sep_08_1055,test_typingtask_norepeats,2020.2.10,59.95773610517885,
tithe,tithe,,,,,,,,,0,105,105,105,,,,,,,,,,,,,,,2746.7740099690855,None,"['t', 'i', 't', 'h', 'e']",1,"[0.699383020401001, 0.8432252230122685, 1.0432323440909386, 1.1633310969918966, 1.3153023612685502]",2746.7740099690855,None,2746.7740480200855,2746.8741674413905,s179_08092022,001,2022_Sep_08_1055,test_typingtask_norepeats,2020.2.10,59.95773610517885,
champ,champ,,,,,,,,,0,106,106,106,,,,,,,,,,,,,,,2752.274061790202,None,"['c', 'h', 'a', 'm', 'p']",1,"[0.6712401579134166, 0.7752915010787547, 0.9271709369495511, 1.015282860957086, 1.1592005928978324]",2752.274061790202,None,2752.2738450779116,2752.3739659730345,s179_08092022,001,2022_Sep_08_1055,test_typingtask_norepeats,2020.2.10,59.95773610517885,
cooed,cooed,,,,,,,,,0,107,107,107,,,,,,,,,,,,,,,2757.7740321941674,None,"['c', 'o', 'o', 'e', 'd']",1,"[0.8833175683394074, 1.0833081509917974, 1.2353117833845317, 1.3472740310244262, 1.5953494212590158]",2757.7740321941674,None,2757.7738188290505,2757.8739746962674,s179_08092022,001,2022_Sep_08_1055,test_typingtask_norepeats,2020.2.10,59.95773610517885,
haole,haole,,,,,,,,,0,108,108,108,,,,,,,,,,,,,,,2763.2739780750126,None,"['h', 'a', 'o', 'l', 'e']",1,"[0.7272510002367198, 0.8473363998346031, 0.9272594870999455, 1.1753423968330026, 1.3033837750554085]",2763.2739780750126,None,2763.2741121788977,2763.3739267089404,s179_08092022,001,2022_Sep_08_1055,test_typingtask_norepeats,2020.2.10,59.95773610517885,
theme,theme,,,,,,,,,0,109,109,109,,,,,,,,,,,,,,,2768.7739781560376,None,"['t', 'h', 'e', 'm', 'e']",1,"[0.6593698509968817, 0.7632087152451277, 0.9073352320119739, 1.0432283030822873, 1.2672204952687025]",2768.7739781560376,None,2768.773950659158,2768.87376593519,s179_08092022,001,2022_Sep_08_1055,test_typingtask_norepeats,2020.2.10,59.95773610517885,
vodka,vodka,,,,,,,,,0,110,110,110,,,,,,,,,,,,,,,2774.2741288449615,None,"['v', 'o', 'd', 'k', 'a']",1,"[0.8710918626748025, 1.0391653985716403, 1.3430978269316256, 1.5112104779109359, 1.7032066597603261]",2774.2741288449615,None,2774.274198286189,2774.3739037211053,s179_08092022,001,2022_Sep_08_1055,test_typingtask_norepeats,2020.2.10,59.95773610517885,
champ,champ,,,,,,,,,0,111,111,111,,,,,,,,,,,,,,,2779.773777194321,None,"['c', 'h', 'a', 'm', 'p']",1,"[0.6835294277407229, 0.7795128640718758, 0.9234536099247634, 1.0274507058784366, 1.1475545857101679]",2779.773777194321,None,2779.7739999019077,2779.874135009013,s179_08092022,001,2022_Sep_08_1055,test_typingtask_norepeats,2020.2.10,59.95773610517885,
puppy,puppy,,,,,,,,,0,112,112,112,,,,,,,,,,,,,,,2785.273620147258,None,"['p', 'y', 'p', 'p', 'y']",0,"[0.6236807890236378, 0.7597149889916182, 1.0476970369927585, 1.183609729167074, 1.3356212759390473]",2785.273620147258,None,2785.273841001047,2785.373906802386,s179_08092022,001,2022_Sep_08_1055,test_typingtask_norepeats,2020.2.10,59.95773610517885,
zibja,zibja,,,,,,,,,0,113,113,113,,,,,,,,,,,,,,,2790.774200599175,None,"['z', 'i', 'b', 'j', 'a']",1,"[0.8591633490286767, 0.9790890011936426, 1.2111376971006393, 1.4351129452697933, 1.5471466719172895]",2790.774200599175,None,2790.77410899424,2790.8741970499977,s179_08092022,001,2022_Sep_08_1055,test_typingtask_norepeats,2020.2.10,59.95773610517885,
faqir,faqir,,,,,,,,,0,114,114,114,,,,,,,,,,,,,,,2796.2741449302994,None,"['f', 'a', 'q', 'i', 'r']",1,"[0.7430971786379814, 0.8791016708128154, 1.2232030327431858, 1.591105876956135, 1.7351869526319206]",2796.2741449302994,None,2796.274028025987,2796.3744304650463,s179_08092022,001,2022_Sep_08_1055,test_typingtask_norepeats,2020.2.10,59.95773610517885,
kremp,kremp,,,,,,,,,0,115,115,115,,,,,,,,,,,,,,,2801.773919790983,None,"['k', 'r', 'e', 'm', 'p']",1,"[0.6994166979566216, 0.8114482909440994, 0.9393782089464366, 0.9954146160744131, 1.171381841879338]",2801.773919790983,None,2801.774100391148,2801.8741802321747,s179_08092022,001,2022_Sep_08_1055,test_typingtask_norepeats,2020.2.10,59.95773610517885,
tithe,tithe,,,,,,,,,0,116,116,116,,,,,,,,,,,,,,,2807.273943989072,None,"['t', 'i', 't', 'h', 'e']",1,"[0.6633228491991758, 0.7512968140654266, 0.8953511961735785, 1.0153633132576942, 1.1912959073670208]",2807.273943989072,None,2807.273954625195,2807.374192568008,s179_08092022,001,2022_Sep_08_1055,test_typingtask_norepeats,2020.2.10,59.95773610517885,
faqir,faqir,,,,,,,,,0,117,117,117,,,,,,,,,,,,,,,2812.7741098483093,None,"['f', 'a', 'q', 'i', 'r']",1,"[0.7231973242014647, 0.947238459251821, 1.427115370053798, 1.8352333600632846, 1.9631927241571248]",2812.7741098483093,None,2812.774053358892,2812.874088846147,s179_08092022,001,2022_Sep_08_1055,test_typingtask_norepeats,2020.2.10,59.95773610517885,
cheer,cheer,,,,,,,,,0,118,118,118,,,,,,,,,,,,,,,2818.2742116823792,None,"['c', 'h', 'e', 'e', 'r']",1,"[0.7111855000257492, 0.8631718847900629, 1.1830929247662425, 1.3190558678470552, 1.463092495687306]",2818.2742116823792,None,2818.274088947056,2818.3739414243028,s179_08092022,001,2022_Sep_08_1055,test_typingtask_norepeats,2020.2.10,59.95773610517885,
theme,theme,,,,,,,,,0,119,119,119,,,,,,,,,,,,,,,2823.7741420213133,None,"['t', 'h', 'e', 'm', 'e']",1,"[0.611157507635653, 0.6992020816542208, 0.8351844726130366, 0.9631066638976336, 1.139238144736737]",2823.7741420213133,None,2823.774038499175,2823.8740958953276,s179_08092022,001,2022_Sep_08_1055,test_typingtask_norepeats,2020.2.10,59.95773610517885,
