string,corrAns,practice_trials.thisRepN,practice_trials.thisTrialN,practice_trials.thisN,practice_trials.thisIndex,trials_1.thisRepN,trials_1.thisTrialN,trials_1.thisN,trials_1.thisIndex,trials_2.thisRepN,trials_2.thisTrialN,trials_2.thisN,trials_2.thisIndex,key_resp_0.keys,key_resp_0.corr,key_resp_0.rt,text_1.started,text_1.stopped,key_resp_1.keys,key_resp_1.corr,key_resp_1.rt,key_resp_1.started,key_resp_1.stopped,sound_1A_1.started,sound_1A_1.stopped,break_time.started,break_time.stopped,text_2.started,text_2.stopped,key_resp_2.keys,key_resp_2.corr,key_resp_2.rt,key_resp_2.started,key_resp_2.stopped,sound_1A_2.started,sound_1A_2.stopped,participant,session,date,expName,psychopyVersion,frameRate,
fresh,fresh,0,0,0,0,,,,,,,,,"['f', 'r', 'e', 's', 'h', 'space']",0,"[0.5807909659997676, 0.7567642199992406, 0.8367753409993384, 1.028766794999683, 1.1647862799991344, 3.3086886699993556]",,,,,,,,,,,,,,,,,,,,,s180_10102022,001,2022_Oct_10_1442,test_typingtask_norepeats,2020.2.10,59.982153150172074,
dream,dream,0,1,1,1,,,,,,,,,"['d', 'r', 'e', 'a', 'm']",1,"[0.7274548320001486, 0.943454193999969, 1.0395578540001225, 1.1514534669995555, 1.3914607320002688]",,,,,,,,,,,,,,,,,,,,,s180_10102022,001,2022_Oct_10_1442,test_typingtask_norepeats,2020.2.10,59.982153150172074,
slime,slime,0,2,2,2,,,,,,,,,"['s', 'l', 'i', 'm', 'e']",1,"[0.8115944159999344, 1.499515235999752, 1.6115911580000102, 1.8035776890001216, 1.9155719070004125]",,,,,,,,,,,,,,,,,,,,,s180_10102022,001,2022_Oct_10_1442,test_typingtask_norepeats,2020.2.10,59.982153150172074,
therm,therm,,,,,0,0,0,0,,,,,,,,67.65024999800062,None,"['t', 'h', 'e', 'r', 'm']",1,"[0.6543957379999483, 0.7664705489996777, 0.8864179689999219, 0.9823634169997604, 1.0944655900002545]",67.65024999800062,None,67.6423775052006,67.74166446500021,,,,,,,,,,,,s180_10102022,001,2022_Oct_10_1442,test_typingtask_norepeats,2020.2.10,59.982153150172074,
puppy,puppy,,,,,0,1,1,1,,,,,,,,73.15870678100055,None,"['p', 'u', 'u', 'p', 'y']",0,"[1.3379396640002597, 1.7700327310003559, 1.930055163000361, 2.3459104600005958, 2.5219595560001835]",73.15870678100055,None,73.15847638520044,73.25840375500047,,,,,,,,,,,,s180_10102022,001,2022_Oct_10_1442,test_typingtask_norepeats,2020.2.10,59.982153150172074,
there,there,,,,,0,2,2,2,,,,,,,,78.6589061120003,None,"['t', 'h', 'e', 'r', 'e']",1,"[0.5977495840006668, 0.7097352580003644, 0.8057128080008624, 0.8777895140001419, 0.981767764000324]",78.6589061120003,None,78.6587183242007,78.75824576100058,,,,,,,,,,,,s180_10102022,001,2022_Oct_10_1442,test_typingtask_norepeats,2020.2.10,59.982153150172074,
buddy,buddy,,,,,0,3,3,3,,,,,,,,84.1593775780002,None,"['b', 'u', 'd', 'd', 'y']",1,"[0.5932394160008698, 0.8013464720006596, 0.9612887380008033, 1.1053391580007883, 1.177335229000164]",84.1593775780002,None,84.15928457919999,84.25844094100012,,,,,,,,,,,,s180_10102022,001,2022_Oct_10_1442,test_typingtask_norepeats,2020.2.10,59.982153150172074,
faqir,faqir,,,,,0,4,4,4,,,,,,,,89.65864856799999,None,"['f', 'a', 'q', 'i', 'r']",1,"[0.5339403279995167, 0.7339435180001601, 1.1420260439999765, 1.30996013999993, 1.421968927999842]",89.65864856799999,None,89.65879513520012,89.75846847600042,,,,,,,,,,,,s180_10102022,001,2022_Oct_10_1442,test_typingtask_norepeats,2020.2.10,59.982153150172074,
edthe,edthe,,,,,0,5,5,5,,,,,,,,95.15902612599984,None,"['e', 'd', 't', 'h', 'e']",1,"[0.6256730900004186, 0.8176217680002082, 0.9536971520001316, 1.0656874129999778, 1.1536696210005175]",95.15902612599984,None,95.15905224819998,95.25855188100013,,,,,,,,,,,,s180_10102022,001,2022_Oct_10_1442,test_typingtask_norepeats,2020.2.10,59.982153150172074,
vodka,vodka,,,,,0,6,6,6,,,,,,,,100.65883486599978,None,"['v', 'o', 'd', 'k', 'a']",1,"[0.5897733040001185, 0.7337712299995474, 0.8778974549995837, 1.005926637999437, 1.0937730729992836]",100.65883486599978,None,100.65876910319984,100.75834501900044,,,,,,,,,,,,s180_10102022,001,2022_Oct_10_1442,test_typingtask_norepeats,2020.2.10,59.982153150172074,
cheer,cheer,,,,,0,7,7,7,,,,,,,,106.15910260700002,None,"['c', 'h', 'e', 'e', 'r']",1,"[0.5455513759998212, 0.6656095879998247, 0.8015401259999635, 1.0015425479996338, 1.0575163040002735]",106.15910260700002,None,106.15900641419994,106.2586138480001,,,,,,,,,,,,s180_10102022,001,2022_Oct_10_1442,test_typingtask_norepeats,2020.2.10,59.982153150172074,
buddy,buddy,,,,,0,8,8,8,,,,,,,,111.65850597500048,None,"['b', 'u', 'd', 'd', 'y']",1,"[0.5260785500004204, 0.7101100540003245, 0.8622114990002956, 0.9981571640000766, 1.134088120999877]",111.65850597500048,None,111.6588164042003,111.75846975500008,,,,,,,,,,,,s180_10102022,001,2022_Oct_10_1442,test_typingtask_norepeats,2020.2.10,59.982153150172074,
there,there,,,,,0,9,9,9,,,,,,,,117.15866681999978,None,"['t', 'h', 'e', 'r', 'e']",1,"[0.4980058020000797, 0.6019331300003614, 0.6820476490001965, 0.7780321340005685, 0.8580522980000751]",117.15866681999978,None,117.1586909382002,117.25821685000028,,,,,,,,,,,,s180_10102022,001,2022_Oct_10_1442,test_typingtask_norepeats,2020.2.10,59.982153150172074,
kremp,kremp,,,,,0,10,10,10,,,,,,,,122.65858761900017,None,"['k', 'r', 'e', 'm', 'p']",1,"[0.5021207580002738, 0.7100233119999757, 0.8140866040002948, 0.9900860999996439, 1.2540160629996535]",122.65858761900017,None,122.65881390420036,122.75831388500046,,,,,,,,,,,,s180_10102022,001,2022_Oct_10_1442,test_typingtask_norepeats,2020.2.10,59.982153150172074,
cooed,cooed,,,,,0,11,11,11,,,,,,,,128.15848447100052,None,"['c', 'o', 'o', 'e', 'd']",1,"[0.5461518289994274, 0.7142377509999278, 0.8902334899994457, 0.9861919400000261, 1.1542367919992103]",128.15848447100052,None,128.15853212219992,128.2585070690002,,,,,,,,,,,,s180_10102022,001,2022_Oct_10_1442,test_typingtask_norepeats,2020.2.10,59.982153150172074,
tithe,tithe,,,,,0,12,12,12,,,,,,,,133.65844736600047,None,"['t', 'i', 't', 'h', 'e']",1,"[0.5262839369997891, 0.6622372000001633, 0.7981669480004712, 0.9262846430001446, 0.982239140999809]",133.65844736600047,None,133.65870443920068,133.758477245,,,,,,,,,,,,s180_10102022,001,2022_Oct_10_1442,test_typingtask_norepeats,2020.2.10,59.982153150172074,
belly,belly,,,,,0,13,13,13,,,,,,,,139.15907114699985,None,"['b', 'e', 'l', 'l', 'y']",1,"[0.49754022200067993, 0.6736571790006565, 0.9136075000005803, 1.0496055680005156, 1.1376577840001119]",139.15907114699985,None,139.15906119619996,139.25840543600043,,,,,,,,,,,,s180_10102022,001,2022_Oct_10_1442,test_typingtask_norepeats,2020.2.10,59.982153150172074,
about,about,,,,,0,14,14,14,,,,,,,,144.65869302300052,None,"['a', 'b', 'o', 't']",0,"[0.49394203599968023, 0.5979819399999542, 0.8220351299996764, 1.0939218470002743]",144.65869302300052,None,144.6587139532001,144.75835306499994,,,,,,,,,,,,s180_10102022,001,2022_Oct_10_1442,test_typingtask_norepeats,2020.2.10,59.982153150172074,
therm,therm,,,,,0,15,15,15,,,,,,,,150.158724248,None,"['t', 'h', 'e', 'r', 'm']",1,"[0.4979276590001973, 0.5699721499995576, 0.7139917349995812, 0.7779148290001103, 0.8900128569994195]",150.158724248,None,150.1586392371999,150.25849414599998,,,,,,,,,,,,s180_10102022,001,2022_Oct_10_1442,test_typingtask_norepeats,2020.2.10,59.982153150172074,
cheer,cheer,,,,,0,16,16,16,,,,,,,,155.65902307499982,None,"['c', 'h', 'e', 'e', 'r']",1,"[0.501691493999715, 0.6055975369999942, 0.7335615459996916, 0.9175846349999119, 0.9737069379998502]",155.65902307499982,None,155.6588598291999,155.75862354000037,,,,,,,,,,,,s180_10102022,001,2022_Oct_10_1442,test_typingtask_norepeats,2020.2.10,59.982153150172074,
cooed,cooed,,,,,0,17,17,17,,,,,,,,161.1589473089998,None,"['c', 'o', 'o', 'e', 'd']",1,"[0.5056659620004211, 0.6816466000000219, 0.8497197349997805, 1.2897373929999958, 1.4818056459998843]",161.1589473089998,None,161.15896703219988,161.25843252100003,,,,,,,,,,,,s180_10102022,001,2022_Oct_10_1442,test_typingtask_norepeats,2020.2.10,59.982153150172074,
buddy,buddy,,,,,0,18,18,18,,,,,,,,166.6590693449998,None,"['b', 'u', 'd', 'd', 'y']",1,"[0.517538701000376, 0.6935668070000247, 0.8935571460006031, 1.0296869640005752, 1.1656151480001427]",166.6590693449998,None,166.6591251812004,166.7585587450003,,,,,,,,,,,,s180_10102022,001,2022_Oct_10_1442,test_typingtask_norepeats,2020.2.10,59.982153150172074,
cheer,cheer,,,,,0,19,19,19,,,,,,,,172.15898035200007,None,"['c', 'h', 'e', 'e', 'r']",1,"[0.46569477499997447, 0.553746081999634, 0.6817079259999446, 0.8177349359993968, 0.9136729989995729]",172.15898035200007,None,172.1585631502001,172.2594379480006,,,,,,,,,,,,s180_10102022,001,2022_Oct_10_1442,test_typingtask_norepeats,2020.2.10,59.982153150172074,
edthe,edthe,,,,,0,20,20,20,,,,,,,,177.65922606500044,None,"['e', 'd', 't', 'h', 'e']",1,"[0.5574936299999536, 0.7333855980004955, 0.8375080000005255, 0.9333832490001441, 1.0213868470000307]",177.65922606500044,None,177.6589447792001,177.7586939849998,,,,,,,,,,,,s180_10102022,001,2022_Oct_10_1442,test_typingtask_norepeats,2020.2.10,59.982153150172074,
tithe,tithe,,,,,0,21,21,21,,,,,,,,183.15880074300003,None,"['t', 'i', 't', 'h', 'e']",1,"[0.4738700300003984, 0.5619358280000597, 0.6819157570007519, 0.7619415330000265, 0.8419328250001854]",183.15880074300003,None,183.1588353772002,183.25848266499997,,,,,,,,,,,,s180_10102022,001,2022_Oct_10_1442,test_typingtask_norepeats,2020.2.10,59.982153150172074,
therm,therm,,,,,0,22,22,22,,,,,,,,188.65905696700065,None,"['t', 'h', 'e', 'r', 'm']",1,"[0.47760330399978557, 0.5496543910003311, 0.6696406210003261, 0.7416750359998332, 0.8536229979999916]",188.65905696700065,None,188.65922791220038,188.75872035000066,,,,,,,,,,,,s180_10102022,001,2022_Oct_10_1442,test_typingtask_norepeats,2020.2.10,59.982153150172074,
zibja,zibja,,,,,0,23,23,23,,,,,,,,194.16113451300043,None,"['z', 'i', 'b', 'j', 'a']",1,"[0.6555828930004282, 0.8875819060003778, 1.0314595840000038, 1.3276103469997906, 1.6394880090001607]",194.16113451300043,None,194.15927081720002,194.25875880200056,,,,,,,,,,,,s180_10102022,001,2022_Oct_10_1442,test_typingtask_norepeats,2020.2.10,59.982153150172074,
champ,champ,,,,,0,24,24,24,,,,,,,,199.65871261499979,None,"['c', 'h', 'a', 'm', 'p']",1,"[0.5019783590005318, 0.6220304810003654, 0.7580197349998343, 0.9259143270001005, 1.1259767789997568]",199.65871261499979,None,199.6588573422003,199.7583703780001,,,,,,,,,,,,s180_10102022,001,2022_Oct_10_1442,test_typingtask_norepeats,2020.2.10,59.982153150172074,
lucky,lucky,,,,,0,25,25,25,,,,,,,,205.15894768100043,None,"['l', 'u', 'c', 'k', 'y']",1,"[0.5216634620001059, 0.7457308259999991, 0.9297004950003611, 1.0497639250006614, 1.2177305940003862]",205.15894768100043,None,205.15867224520008,205.25837620099992,,,,,,,,,,,,s180_10102022,001,2022_Oct_10_1442,test_typingtask_norepeats,2020.2.10,59.982153150172074,
there,there,,,,,0,26,26,26,,,,,,,,210.6591755190002,None,"['t', 'h', 'e', 'r', 'e']",1,"[0.4535498010000083, 0.549530469000274, 0.6454566620004698, 0.7334381340006075, 0.8375656600001093]",210.6591755190002,None,210.65877718919984,210.75841158300045,,,,,,,,,,,,s180_10102022,001,2022_Oct_10_1442,test_typingtask_norepeats,2020.2.10,59.982153150172074,
haole,haole,,,,,0,27,27,27,,,,,,,,216.15881453200018,None,"['h', 'a', 'o', 'l', 'w']",0,"[0.48185877299965796, 0.6337890200002221, 0.7858319859997209, 1.057863680999617, 1.2577934000000823]",216.15881453200018,None,216.15868625520017,216.25866701500036,,,,,,,,,,,,s180_10102022,001,2022_Oct_10_1442,test_typingtask_norepeats,2020.2.10,59.982153150172074,
vanru,vanru,,,,,0,28,28,28,,,,,,,,221.65911051900002,None,"['v', 'a', 'n', 'r', 'u']",1,"[0.5576209250002648, 0.7496104110005035, 0.8776262670007782, 1.0295672930005821, 1.1574911650004651]",221.65911051900002,None,221.6589854972006,221.75849336100055,,,,,,,,,,,,s180_10102022,001,2022_Oct_10_1442,test_typingtask_norepeats,2020.2.10,59.982153150172074,
heond,heond,,,,,0,29,29,29,,,,,,,,227.15887582100004,None,"['h', 'e', 'o', 'n', 'd']",1,"[0.5058502560004854, 0.6257626309998159, 0.7698383160004596, 0.9618513490004261, 1.0737918530003299]",227.15887582100004,None,227.15873513620028,227.25862983600018,,,,,,,,,,,,s180_10102022,001,2022_Oct_10_1442,test_typingtask_norepeats,2020.2.10,59.982153150172074,
haole,haole,,,,,0,30,30,30,,,,,,,,232.65875626199977,None,"['h', 'a', 'o', 'l', 'e']",1,"[0.5258294770001157, 0.6778825070005041, 0.8138981740003146, 1.1178330890006691, 1.3019705699998667]",232.65875626199977,None,232.65894047420062,232.75947431300028,,,,,,,,,,,,s180_10102022,001,2022_Oct_10_1442,test_typingtask_norepeats,2020.2.10,59.982153150172074,
zibja,zibja,,,,,0,31,31,31,,,,,,,,238.1591158350002,None,"['z', 'i', 'b', 'j', 'a']",1,"[0.6576102919998448, 0.8174944040001719, 0.9375031700001273, 1.161602158000278, 1.2495730589998857]",238.1591158350002,None,238.1592442352001,238.2587867250004,,,,,,,,,,,,s180_10102022,001,2022_Oct_10_1442,test_typingtask_norepeats,2020.2.10,59.982153150172074,
vanru,vanru,,,,,0,32,32,32,,,,,,,,243.65900791400054,None,"['v', 'a', 'n', 'r', 'u']",1,"[0.5176037170003838, 0.6697105040002498, 0.7816767100002835, 0.9096054139999978, 1.0296474110000418]",243.65900791400054,None,243.65890800520066,243.75862567400054,,,,,,,,,,,,s180_10102022,001,2022_Oct_10_1442,test_typingtask_norepeats,2020.2.10,59.982153150172074,
druze,druze,,,,,0,33,33,33,,,,,,,,249.1592451309998,None,"['d', 'r', 'u', 'z', 'e']",1,"[0.4654177160000472, 0.641365604999919, 0.7855081830002746, 0.9134625420001612, 1.489467250999951]",249.1592451309998,None,249.15924661419996,249.25875337100024,,,,,,,,,,,,s180_10102022,001,2022_Oct_10_1442,test_typingtask_norepeats,2020.2.10,59.982153150172074,
pykka,pykka,,,,,0,34,34,34,,,,,,,,254.65873236700008,None,"['p', 'y', 'k', 'k', 'a']",1,"[0.7898925689996759, 1.0139895839993187, 1.1418786599997475, 1.2859227660001125, 1.365951156999472]",254.65873236700008,None,254.65897481119993,254.7586585480003,,,,,,,,,,,,s180_10102022,001,2022_Oct_10_1442,test_typingtask_norepeats,2020.2.10,59.982153150172074,
puppy,puppy,,,,,0,35,35,35,,,,,,,,260.15896371000053,None,"['p', 'u', 'p', 'p', 'y']",1,"[0.5376562030005516, 1.0176336499998797, 1.1936505780004154, 1.3217051940000601, 1.4976486860005025]",260.15896371000053,None,260.1589979622002,260.2586653510007,,,,,,,,,,,,s180_10102022,001,2022_Oct_10_1442,test_typingtask_norepeats,2020.2.10,59.982153150172074,
vodka,vodka,,,,,0,36,36,36,,,,,,,,265.65861313700043,None,"['v', 'o', 'd', 'k', 'a']",1,"[0.5339922270004536, 0.6781063329999597, 0.7980532080000557, 0.9180006880005749, 1.0061059360004947]",265.65861313700043,None,265.65864810920067,265.7584698159999,,,,,,,,,,,,s180_10102022,001,2022_Oct_10_1442,test_typingtask_norepeats,2020.2.10,59.982153150172074,
think,think,,,,,0,37,37,37,,,,,,,,271.1587351950002,None,"['t', 'h', 'i', 'n', 'k', 'e']",0,"[0.4659797750000507, 0.5539824790002967, 0.6579802899996139, 0.7379569579998133, 0.8659790720003002, 0.977940337000291]",271.1587351950002,None,271.1589525371999,271.2585601139999,,,,,,,,,,,,s180_10102022,001,2022_Oct_10_1442,test_typingtask_norepeats,2020.2.10,59.982153150172074,
belly,belly,,,,,0,38,38,38,,,,,,,,276.6588524630006,None,"['b', 'e', 'l', 'l', 'y']",1,"[0.4858594620000076, 0.6298202140005742, 0.7978014910004276, 0.933744963999743, 1.0138635949997479]",276.6588524630006,None,276.6589908091999,276.7587060320002,,,,,,,,,,,,s180_10102022,001,2022_Oct_10_1442,test_typingtask_norepeats,2020.2.10,59.982153150172074,
theme,theme,,,,,0,39,39,39,,,,,,,,282.1590588050003,None,"['t', 'h', 'e', 'm', 'e']",1,"[0.4816275989996939, 0.5696354840001732, 0.6896126880001248, 0.7935491770003864, 0.8895570349995978]",282.1590588050003,None,282.1591795252005,282.2587190330005,,,,,,,,,,,,s180_10102022,001,2022_Oct_10_1442,test_typingtask_norepeats,2020.2.10,59.982153150172074,
kremp,kremp,,,,,0,40,40,40,,,,,,,,287.65926753500025,None,"['k', 'r', 'e', 'm', 'p']",1,"[0.5974044049999065, 0.813409364999643, 0.8854479089995948, 0.9814303129996915, 1.1333700770001087]",287.65926753500025,None,287.6591829912002,287.7585795740006,,,,,,,,,,,,s180_10102022,001,2022_Oct_10_1442,test_typingtask_norepeats,2020.2.10,59.982153150172074,
buddy,buddy,,,,,0,41,41,41,,,,,,,,293.1593534089998,None,"['b', 'u', 'd', 'd', 'y']",1,"[0.4733757880003395, 0.8332508900002722, 1.0413775799997893, 1.1932498719997966, 1.2653331009996691]",293.1593534089998,None,293.1590802732006,293.2587284649999,,,,,,,,,,,,s180_10102022,001,2022_Oct_10_1442,test_typingtask_norepeats,2020.2.10,59.982153150172074,
there,there,,,,,0,42,42,42,,,,,,,,298.6589597080001,None,"['t', 'h', 'e', 'r', 'e']",1,"[0.43766506100018887, 0.525633060000473, 0.6056751200003418, 0.7096474130003116, 0.7976971389998653]",298.6589597080001,None,298.65874659620005,298.7586577860002,,,,,,,,,,,,s180_10102022,001,2022_Oct_10_1442,test_typingtask_norepeats,2020.2.10,59.982153150172074,
pykka,pykka,,,,,0,43,43,43,,,,,,,,304.15893174900066,None,"['p', 'y', 'k', 'k', 'a']",1,"[0.6737886830005664, 0.8417828150004425, 0.9857848990004641, 1.1217993050004225, 1.177743697000551]",304.15893174900066,None,304.1590110672003,304.258637207,,,,,,,,,,,,s180_10102022,001,2022_Oct_10_1442,test_typingtask_norepeats,2020.2.10,59.982153150172074,
therm,therm,,,,,0,44,44,44,,,,,,,,309.6592339560002,None,"['t', 'h', 'e', 'r', 'm']",1,"[0.4854496600000857, 0.5814521160000368, 0.6854471520000516, 0.7654900890001954, 0.877423058000204]",309.6592339560002,None,309.65934076620016,309.75886955399983,,,,,,,,,,,,s180_10102022,001,2022_Oct_10_1442,test_typingtask_norepeats,2020.2.10,59.982153150172074,
haole,haole,,,,,0,45,45,45,,,,,,,,315.1592699970006,None,"['h', 'a', 'o', 'l', 'e']",1,"[0.4974362699995254, 0.6253544809997038, 0.7693876630000887, 0.9533906779997778, 1.0173365789996751]",315.1592699970006,None,315.15944697020024,315.25889087700034,,,,,,,,,,,,s180_10102022,001,2022_Oct_10_1442,test_typingtask_norepeats,2020.2.10,59.982153150172074,
druze,druze,,,,,0,46,46,46,,,,,,,,320.65939105800044,None,"['d', 'r', 'u', 'z', 'e']",1,"[0.5252128109996193, 0.6373293319993536, 0.7332042879997971, 0.8932334169994647, 1.1812870509993445]",320.65939105800044,None,320.6595780022006,320.75891272599983,,,,,,,,,,,,s180_10102022,001,2022_Oct_10_1442,test_typingtask_norepeats,2020.2.10,59.982153150172074,
champ,champ,,,,,0,47,47,47,,,,,,,,326.1590170260006,None,"['c', 'h', 'a', 'm', 'p']",1,"[0.5216789579999386, 0.6016345490006643, 0.7376950409998244, 0.8576455840002382, 1.0175722590001897]",326.1590170260006,None,326.1590707501999,326.2587362180002,,,,,,,,,,,,s180_10102022,001,2022_Oct_10_1442,test_typingtask_norepeats,2020.2.10,59.982153150172074,
theme,theme,,,,,0,48,48,48,,,,,,,,331.65889613499985,None,"['t', 'h', 'e', 'm', 'e']",1,"[0.48578143600025214, 0.5577568990001964, 0.669828938000137, 0.7738181490003626, 0.8538141019998875]",331.65889613499985,None,331.65913334020007,331.7587567170003,,,,,,,,,,,,s180_10102022,001,2022_Oct_10_1442,test_typingtask_norepeats,2020.2.10,59.982153150172074,
think,think,,,,,0,49,49,49,,,,,,,,337.159298392,None,"['t', 'h', 'i', 'n', 'k']",1,"[0.4494157010003619, 0.5214267319997816, 0.6173063300002468, 0.7134163999999146, 0.8173063379999803]",337.159298392,None,337.1594444822002,337.25888359800047,,,,,,,,,,,,s180_10102022,001,2022_Oct_10_1442,test_typingtask_norepeats,2020.2.10,59.982153150172074,
vanru,vanru,,,,,0,50,50,50,,,,,,,,342.65931980799996,None,"['v', 'a', 'n', 'r', 'u']",1,"[0.46939620899956935, 0.621358663999672, 0.7574131840001428, 0.9092895189996852, 1.0454066619995501]",342.65931980799996,None,342.6593239822003,342.75888224400023,,,,,,,,,,,,s180_10102022,001,2022_Oct_10_1442,test_typingtask_norepeats,2020.2.10,59.982153150172074,
belly,belly,,,,,0,51,51,51,,,,,,,,348.15938515200014,None,"['b', 'e', 'l', 'l', 'y']",1,"[0.47329334299956827, 0.6012220869997691, 0.7452384959997289, 0.8892784509998819, 0.9452122789998612]",348.15938515200014,None,348.1588816572001,348.2586132619999,,,,,,,,,,,,s180_10102022,001,2022_Oct_10_1442,test_typingtask_norepeats,2020.2.10,59.982153150172074,
would,would,,,,,0,52,52,52,,,,,,,,353.6588139249998,None,"['e', 'w', 'o', 'u', 'l', 'd']",0,"[0.677852324000014, 0.685796210999797, 1.1658861509995404, 1.2298177249995206, 1.3978041089994804, 1.4699054309994608]",353.6588139249998,None,353.65895850720045,353.7585696599999,,,,,,,,,,,,s180_10102022,001,2022_Oct_10_1442,test_typingtask_norepeats,2020.2.10,59.982153150172074,
cooed,cooed,,,,,0,53,53,53,,,,,,,,359.1592982000002,None,"['c', 'o', 'o', 'e', 'd']",1,"[0.5773390730000756, 0.7614670550001392, 0.8893762920006338, 0.9773514409998825, 1.1453856220005036]",359.1592982000002,None,359.1590847112,359.25885754699993,,,,,,,,,,,,s180_10102022,001,2022_Oct_10_1442,test_typingtask_norepeats,2020.2.10,59.982153150172074,
cheer,cheer,,,,,0,54,54,54,,,,,,,,364.659398068,None,"['c', 'h', 'e', 'e', 'r']",1,"[0.46931503399991925, 0.6612963859997762, 0.757267628999216, 0.9092143959996974, 0.9893205249991297]",364.659398068,None,364.6593201481999,364.75864707800065,,,,,,,,,,,,s180_10102022,001,2022_Oct_10_1442,test_typingtask_norepeats,2020.2.10,59.982153150172074,
druze,druze,,,,,0,55,55,55,,,,,,,,370.1592419939998,None,"['d', 'r', 'u', 'z', 'e']",1,"[0.41735989399967366, 0.5775274489997173, 0.6894972639993284, 0.7933520659998976, 1.0013633399994433]",370.1592419939998,None,370.1590844022001,370.25907270300013,,,,,,,,,,,,s180_10102022,001,2022_Oct_10_1442,test_typingtask_norepeats,2020.2.10,59.982153150172074,
zibja,zibja,,,,,0,56,56,56,,,,,,,,375.65928244299994,None,"['z', 'i', 'b', 'j', 'a']",1,"[0.7253143110001474, 0.8534381990002657, 0.9654298860004928, 1.1414272319998418, 1.229352014000142]",375.65928244299994,None,375.6594518922,375.7587927750001,,,,,,,,,,,,s180_10102022,001,2022_Oct_10_1442,test_typingtask_norepeats,2020.2.10,59.982153150172074,
haole,haole,,,,,0,57,57,57,,,,,,,,381.159362204,None,"['h', 'a', 'o', 'l', 'e']",1,"[0.4893694909997066, 0.5772876329992869, 0.7452302159999817, 0.9453277849997903, 1.033262690999436]",381.159362204,None,381.15939152619995,381.2590944650001,,,,,,,,,,,,s180_10102022,001,2022_Oct_10_1442,test_typingtask_norepeats,2020.2.10,59.982153150172074,
cheer,cheer,,,,,0,58,58,58,,,,,,,,386.6591624700004,None,"['c', 'h', 'e', 'e', 'r']",1,"[0.47757260900016263, 0.6055173550003019, 0.7174406590002036, 0.8616490740005247, 0.957449577999796]",386.6591624700004,None,386.6590791022007,386.75894677199994,,,,,,,,,,,,s180_10102022,001,2022_Oct_10_1442,test_typingtask_norepeats,2020.2.10,59.982153150172074,
about,about,,,,,0,59,59,59,,,,,,,,392.1592147350002,None,"['a', 'b', 'o', 'u', 't']",1,"[0.4414818139994168, 0.5614811959994768, 0.7774947799998699, 0.889513457999783, 0.9855058949997328]",392.1592147350002,None,392.15929266420045,392.25891529399996,,,,,,,,,,,,s180_10102022,001,2022_Oct_10_1442,test_typingtask_norepeats,2020.2.10,59.982153150172074,
druze,druze,,,,,0,60,60,60,,,,,,,,397.6595123289999,None,"['d', 'r', 'u', 'z', 'e']",1,"[0.4611978069997349, 0.5971733520000271, 0.7090988859999925, 1.429121527999996, 1.6532063630002085]",397.6595123289999,None,397.6594292932003,397.7590483869999,,,,,,,,,,,,s180_10102022,001,2022_Oct_10_1442,test_typingtask_norepeats,2020.2.10,59.982153150172074,
heond,heond,,,,,0,61,61,61,,,,,,,,403.1594428870003,None,"['h', 'e', 'o', 'n', 'h', 'd']",0,"[0.545260796000548, 0.6572660440006075, 0.7772558180004125, 0.9291866520006806, 0.9372667460002049, 0.985265392000656]",403.1594428870003,None,403.15941775819994,403.2588942950006,,,,,,,,,,,,s180_10102022,001,2022_Oct_10_1442,test_typingtask_norepeats,2020.2.10,59.982153150172074,
edthe,edthe,,,,,0,62,62,62,,,,,,,,408.6591541070002,None,"['e', 'd', 't', 'h', 'e']",1,"[0.6454403110001294, 0.8294696269995256, 0.9655583049998313, 1.069559302000016, 1.1254451459999473]",408.6591541070002,None,408.6591571072002,408.7587736630003,,,,,,,,,,,,s180_10102022,001,2022_Oct_10_1442,test_typingtask_norepeats,2020.2.10,59.982153150172074,
heond,heond,,,,,0,63,63,63,,,,,,,,414.15892394100047,None,"['h', 'e', 'o', 'n', 'd']",1,"[0.6418115189999298, 0.7936940750005306, 0.9296888130002117, 1.0176797930007524, 1.1138044200006334]",414.15892394100047,None,414.1590813722003,414.2587070059999,,,,,,,,,,,,s180_10102022,001,2022_Oct_10_1442,test_typingtask_norepeats,2020.2.10,59.982153150172074,
faqir,faqir,,,,,0,64,64,64,,,,,,,,419.6591133660004,None,"['f', 'a', 'q', 'i', 'r']",1,"[0.4934733899999628, 0.6536159520001092, 1.3815641700002743, 1.5416195280004104, 1.6696052450006391]",419.6591133660004,None,419.65906048820017,419.75885641400055,,,,,,,,,,,,s180_10102022,001,2022_Oct_10_1442,test_typingtask_norepeats,2020.2.10,59.982153150172074,
vanru,vanru,,,,,0,65,65,65,,,,,,,,425.159261408,None,"['v', 'a', 'n', 'r', 'u']",1,"[0.5214573670000391, 0.689374700999906, 0.8093433290005123, 0.9534212099997603, 1.057434488000581]",425.159261408,None,425.1594039772006,425.25878973100043,,,,,,,,,,,,s180_10102022,001,2022_Oct_10_1442,test_typingtask_norepeats,2020.2.10,59.982153150172074,
faqir,faqir,,,,,0,66,66,66,,,,,,,,430.6597405930006,None,"['f', 'a', 'q', 'i', 'r']",1,"[0.4768691220006076, 0.5808708439999464, 0.9809103719999257, 1.1248722099999213, 1.2528761600005964]",430.6597405930006,None,430.65947877519994,430.75876225400043,,,,,,,,,,,,s180_10102022,001,2022_Oct_10_1442,test_typingtask_norepeats,2020.2.10,59.982153150172074,
lucky,lucky,,,,,0,67,67,67,,,,,,,,436.15929397200034,None,"['l', 'u', 'c', 'k', 'y']",1,"[0.5534141320003982, 0.8014516160001222, 0.9613946980007313, 1.0733715930000471, 1.2333012910003163]",436.15929397200034,None,436.1589239792,436.25879485800033,,,,,,,,,,,,s180_10102022,001,2022_Oct_10_1442,test_typingtask_norepeats,2020.2.10,59.982153150172074,
kremp,kremp,,,,,0,68,68,68,,,,,,,,441.65931977499986,None,"['k', 'e', 'backspace', 'r', 'e', 'm', 'p']",0,"[0.5253017889999683, 0.7252892160004194, 1.1813085650001085, 1.325337256000239, 1.3733631630002492, 1.7092899600002056, 1.8854038960007529]",441.65931977499986,None,441.65895590420024,441.75896696900054,,,,,,,,,,,,s180_10102022,001,2022_Oct_10_1442,test_typingtask_norepeats,2020.2.10,59.982153150172074,
think,think,,,,,0,69,69,69,,,,,,,,447.1591254880004,None,"['t', 'h', 'i', 'n', 'k']",1,"[0.4975721529999646, 0.5535765790000369, 0.681569970000055, 0.7536335300001156, 0.881518989000142]",447.1591254880004,None,447.15901878520054,447.25876241700007,,,,,,,,,,,,s180_10102022,001,2022_Oct_10_1442,test_typingtask_norepeats,2020.2.10,59.982153150172074,
champ,champ,,,,,0,70,70,70,,,,,,,,452.6591111180005,None,"['c', 'h', 'a', 'm', 'p']",1,"[0.4935195250000106, 0.5574959049999961, 0.6776231429994368, 0.7736150659993655, 0.9174850829995194]",452.6591111180005,None,452.65927520420047,452.75886627,,,,,,,,,,,,s180_10102022,001,2022_Oct_10_1442,test_typingtask_norepeats,2020.2.10,59.982153150172074,
heond,heond,,,,,0,71,71,71,,,,,,,,458.1594536749999,None,"['h', 'e', 'o', 'n', 'd']",1,"[0.4732601559999239, 0.5932005130007383, 0.6972418390005259, 0.7692556830006652, 0.8652550169999813]",458.1594536749999,None,458.1595757521998,458.25896934400043,,,,,,,,,,,,s180_10102022,001,2022_Oct_10_1442,test_typingtask_norepeats,2020.2.10,59.982153150172074,
lucky,lucky,,,,,0,72,72,72,,,,,,,,463.6593175220005,None,"['l', 'u', 'c', 'k', 'y']",1,"[1.0853635889998259, 1.2932835199999317, 1.3812984189999042, 1.5092931849994784, 1.629322165999838]",463.6593175220005,None,463.6591579742006,463.75908556300055,,,,,,,,,,,,s180_10102022,001,2022_Oct_10_1442,test_typingtask_norepeats,2020.2.10,59.982153150172074,
champ,champ,,,,,0,73,73,73,,,,,,,,469.15960587600057,None,"['c', 'h', 'a', 'm', 'p']",1,"[0.4810478100007458, 0.5451559279999856, 1.3930497060000562, 1.497086429000774, 1.6010628980002366]",469.15960587600057,None,469.1594831832006,469.25899519700033,,,,,,,,,,,,s180_10102022,001,2022_Oct_10_1442,test_typingtask_norepeats,2020.2.10,59.982153150172074,
zibja,zibja,,,,,0,74,74,74,,,,,,,,474.65916556400043,None,"['z', 'i', 'b', 'j', 'a']",1,"[0.7014650940000138, 0.8535513489996447, 1.0375513589997354, 1.2294641079997746, 1.3094288920001418]",474.65916556400043,None,474.6593219592003,474.7590799509999,,,,,,,,,,,,s180_10102022,001,2022_Oct_10_1442,test_typingtask_norepeats,2020.2.10,59.982153150172074,
puppy,puppy,,,,,0,75,75,75,,,,,,,,480.15939234300004,None,"['p', 'u', 'p', 'p', 'y']",1,"[0.6252926690003733, 0.8972804659997564, 1.1532750320002378, 1.2972215330000836, 1.385337269000047]",480.15939234300004,None,480.15962649019986,480.2591082979998,,,,,,,,,,,,s180_10102022,001,2022_Oct_10_1442,test_typingtask_norepeats,2020.2.10,59.982153150172074,
would,would,,,,,0,76,76,76,,,,,,,,485.6589930800001,None,"['w', 'o', 'u', 'l', 'd']",1,"[0.565682483999808, 0.7417213099997753, 0.805722063999383, 0.957685864999803, 1.0537236549998852]",485.6589930800001,None,485.6591571482002,485.7588422560002,,,,,,,,,,,,s180_10102022,001,2022_Oct_10_1442,test_typingtask_norepeats,2020.2.10,59.982153150172074,
about,about,,,,,0,77,77,77,,,,,,,,491.15907852500004,None,"['a', 'b', 'o', 'u', 't']",1,"[0.4575904100001935, 0.553641460000108, 0.7775963610001781, 0.8415994800006956, 0.9456306170004609]",491.15907852500004,None,491.15909479420026,491.25892384800045,,,,,,,,,,,,s180_10102022,001,2022_Oct_10_1442,test_typingtask_norepeats,2020.2.10,59.982153150172074,
cooed,cooed,,,,,0,78,78,78,,,,,,,,496.65948357600064,None,"['c', 'o', 'o', 'e', 'd']",1,"[0.485231345000102, 0.6291932859994631, 0.7572329630002059, 0.8131787889997213, 0.9892332130002615]",496.65948357600064,None,496.6595260011998,496.75914491599997,,,,,,,,,,,,s180_10102022,001,2022_Oct_10_1442,test_typingtask_norepeats,2020.2.10,59.982153150172074,
kremp,kremp,,,,,0,79,79,79,,,,,,,,502.15927316800025,None,"['k', 'r', 'e', 'm', 'p']",1,"[0.5213308400007008, 0.6893394720000288, 0.761424693000663, 0.8413676410000335, 0.9693782069998633]",502.15927316800025,None,502.1593790292007,502.25951255200016,,,,,,,,,,,,s180_10102022,001,2022_Oct_10_1442,test_typingtask_norepeats,2020.2.10,59.982153150172074,
cooed,cooed,,,,,0,80,80,80,,,,,,,,507.6759503350004,None,"['c', 'o', 'o', 'e', 'd']",1,"[0.4846567429995048, 0.6287627149995387, 0.7647501669998746, 0.8447443769991878, 1.0126611169998796]",507.6759503350004,None,507.6760248812005,507.7762472149998,,,,,,,,,,,,s180_10102022,001,2022_Oct_10_1442,test_typingtask_norepeats,2020.2.10,59.982153150172074,
would,would,,,,,0,81,81,81,,,,,,,,513.1759489710003,None,"['w', 'o', 'u', 'l', 'd']",1,"[0.5207319040000584, 0.6647279380003965, 0.75277658899995, 0.9048103210006957, 0.9766550940003071]",513.1759489710003,None,513.1769334812004,None,,,,,,,,,,,,s180_10102022,001,2022_Oct_10_1442,test_typingtask_norepeats,2020.2.10,59.982153150172074,
haole,haole,,,,,0,82,82,82,,,,,,,,518.6761845420006,None,"['h', 'q', 'a', 'o', 'l', 'e']",0,"[0.5164613739998458, 0.8924332039996443, 1.492432215000008, 1.6365333639996607, 1.812467364999975, 1.8684907440001552]",518.6761845420006,None,518.6764472071998,518.776160251,,,,,,,,,,,,s180_10102022,001,2022_Oct_10_1442,test_typingtask_norepeats,2020.2.10,59.982153150172074,
champ,champ,,,,,0,83,83,83,,,,,,,,524.1762211980003,None,"['c', 'h', 'a', 'm', 'p']",1,"[0.5923720850005338, 0.6804615840001134, 1.0085198450005919, 1.112452991000282, 1.240386655000293]",524.1762211980003,None,524.1760651242,524.2764619600002,,,,,,,,,,,,s180_10102022,001,2022_Oct_10_1442,test_typingtask_norepeats,2020.2.10,59.982153150172074,
would,would,,,,,0,84,84,84,,,,,,,,529.6756897470004,None,"['w', 'o', 'u', 'l', 'd']",1,"[0.5730069400005959, 0.7169069650008169, 0.7729048310002327, 0.9729240270007722, 1.068896637000762]",529.6756897470004,None,529.6759935632006,529.7763844030005,,,,,,,,,,,,s180_10102022,001,2022_Oct_10_1442,test_typingtask_norepeats,2020.2.10,59.982153150172074,
faqir,faqir,,,,,0,85,85,85,,,,,,,,535.1761938090003,None,"['f', 'a', 'q', 'i', 'r']",1,"[0.5604132150001533, 0.8004112090002309, 1.1924069000006057, 1.448513868000191, 1.5764213270003893]",535.1761938090003,None,535.1763190902,535.276159039,,,,,,,,,,,,s180_10102022,001,2022_Oct_10_1442,test_typingtask_norepeats,2020.2.10,59.982153150172074,
tithe,tithe,,,,,0,86,86,86,,,,,,,,540.6761416320005,None,"['t', 'i', 't', 'h', 'e']",1,"[0.4844886119999501, 0.6525773399998798, 0.7885311529998944, 0.8525797820002481, 0.9325331239997467]",540.6761416320005,None,540.6766106091998,540.7762286730003,,,,,,,,,,,,s180_10102022,001,2022_Oct_10_1442,test_typingtask_norepeats,2020.2.10,59.982153150172074,
think,think,,,,,0,87,87,87,,,,,,,,546.1757670659999,None,"['t', 'h', 'i', 'n', 'k']",1,"[0.4489437230004114, 0.5049599040003159, 0.6008375560004424, 0.6969429450000462, 0.792842974999985]",546.1757670659999,None,546.1758904032001,546.275952643,,,,,,,,,,,,s180_10102022,001,2022_Oct_10_1442,test_typingtask_norepeats,2020.2.10,59.982153150172074,
tithe,tithe,,,,,0,88,88,88,,,,,,,,551.6758088309998,None,"['t', 'i', 't', 'h', 'e']",1,"[0.4529065080005239, 0.5167949779997798, 0.6528815990004659, 0.7007977769999343, 0.7648136030002206]",551.6758088309998,None,551.6759751072002,551.7762923440005,,,,,,,,,,,,s180_10102022,001,2022_Oct_10_1442,test_typingtask_norepeats,2020.2.10,59.982153150172074,
about,about,,,,,0,89,89,89,,,,,,,,557.1759327110003,None,"['a', 'b', 'o', 'u', 't']",1,"[0.4807924369997636, 0.5527903450001759, 0.744768352000392, 0.8407049309998911, 0.9047829070004809]",557.1759327110003,None,557.1763673002004,557.2758640379998,,,,,,,,,,,,s180_10102022,001,2022_Oct_10_1442,test_typingtask_norepeats,2020.2.10,59.982153150172074,
druze,druze,,,,,0,90,90,90,,,,,,,,562.6762142130001,None,"['d', 'r', 'u', 'z', 'e']",1,"[0.46848184400005266, 0.6284932030002892, 0.7003916289995686, 0.8604591280000022, 1.1003923150001356]",562.6762142130001,None,562.6758233222006,562.7763053469998,,,,,,,,,,,,s180_10102022,001,2022_Oct_10_1442,test_typingtask_norepeats,2020.2.10,59.982153150172074,
theme,theme,,,,,0,91,91,91,,,,,,,,568.1764129990006,None,"['t', 'h', 'e', 'm', 'e']",1,"[0.480305433000467, 0.5683035370002472, 0.6722055110003566, 0.7762016690003293, 0.8642425530006221]",568.1764129990006,None,568.1762343391999,568.2763257329998,,,,,,,,,,,,s180_10102022,001,2022_Oct_10_1442,test_typingtask_norepeats,2020.2.10,59.982153150172074,
vodka,vodka,,,,,0,92,92,92,,,,,,,,573.6761627550004,None,"['v', 'o', 'd', 'k', 'a']",1,"[0.5725193300004321, 0.7565477469997859, 0.9485013960002107, 1.0685512720001498, 1.1484994169995844]",573.6761627550004,None,573.6758745832001,573.7769338640001,,,,,,,,,,,,s180_10102022,001,2022_Oct_10_1442,test_typingtask_norepeats,2020.2.10,59.982153150172074,
lucky,lucky,,,,,0,93,93,93,,,,,,,,579.1759063290001,None,"['l', 'u', 'c', 'k', 'y']",1,"[0.5847022039997682, 0.8006986139998844, 0.9368153960003838, 1.048774326000057, 1.18469489600011]",579.1759063290001,None,579.1760105722003,579.2760917989999,,,,,,,,,,,,s180_10102022,001,2022_Oct_10_1442,test_typingtask_norepeats,2020.2.10,59.982153150172074,
belly,belly,,,,,0,94,94,94,,,,,,,,584.6760392650003,None,"['b', 'e', 'l', 'l', 'y']",1,"[0.5246883310001067, 0.684578672000498, 0.8206930650003414, 0.9726274560007369, 1.028712397000163]",584.6760392650003,None,584.6760893932003,584.776144206,,,,,,,,,,,,s180_10102022,001,2022_Oct_10_1442,test_typingtask_norepeats,2020.2.10,59.982153150172074,
about,about,,,,,0,95,95,95,,,,,,,,590.1762485690006,None,"['a', 'b', 'o', 'u', 't']",1,"[0.4883508040002198, 0.6244884119996641, 0.8003587260000131, 0.9123860429999695, 0.9763733359995967]",590.1762485690006,None,590.1765216482006,590.2764617250004,,,,,,,,,,,,s180_10102022,001,2022_Oct_10_1442,test_typingtask_norepeats,2020.2.10,59.982153150172074,
zibja,zibja,,,,,0,96,96,96,,,,,,,,595.6758637930006,None,"['z', 'i', 'b', 'j', 'a']",1,"[0.5968511020000733, 0.75686997000048, 0.9248513980001007, 1.0767487090006398, 1.1407368620002671]",595.6758637930006,None,595.6760456902,595.7762807280005,,,,,,,,,,,,s180_10102022,001,2022_Oct_10_1442,test_typingtask_norepeats,2020.2.10,59.982153150172074,
kremp,kremp,,,,,0,97,97,97,,,,,,,,601.1760852010002,None,"['k', 'r', 'e', 'm', 'p']",1,"[0.5206007899996621, 0.6565676190002705, 0.7286510410003757, 0.808675256999777, 0.9365907589999551]",601.1760852010002,None,601.1760806902,601.276097164,,,,,,,,,,,,s180_10102022,001,2022_Oct_10_1442,test_typingtask_norepeats,2020.2.10,59.982153150172074,
pykka,pykka,,,,,0,98,98,98,,,,,,,,606.6764547170005,None,"['p', 'y', 'k', 'k', 'a']",1,"[0.5482086049996724, 0.740138088999629, 0.8841414429998622, 1.036249626999961, 1.0841423920001034]",606.6764547170005,None,606.6765164482001,606.776588228,,,,,,,,,,,,s180_10102022,001,2022_Oct_10_1442,test_typingtask_norepeats,2020.2.10,59.982153150172074,
puppy,puppy,,,,,0,99,99,99,,,,,,,,612.1763688770006,None,"['p', 'u', 'p', 'p', 'y']",1,"[0.5122858830000041, 0.8163849469992783, 0.9204265699991083, 1.0563205059997927, 1.208223258999169]",612.1763688770006,None,612.1765941172005,612.2762997480004,,,,,,,,,,,,s180_10102022,001,2022_Oct_10_1442,test_typingtask_norepeats,2020.2.10,59.982153150172074,
buddy,buddy,,,,,0,100,100,100,,,,,,,,617.6759357259998,None,"['b', 'u', 'd', 'd', 'y']",1,"[0.5407781450003313, 0.6846730430006573, 0.8207358460003888, 0.972792109000693, 0.9807842830005029]",617.6759357259998,None,617.6759714502002,617.7761725300006,,,,,,,,,,,,s180_10102022,001,2022_Oct_10_1442,test_typingtask_norepeats,2020.2.10,59.982153150172074,
belly,belly,,,,,0,101,101,101,,,,,,,,623.1762322330005,None,"['b', 'e', 'l', 'l', 'y']",1,"[0.4724405150000166, 0.5763870509999833, 0.7124161780002396, 0.856497787999615, 0.9043681430002835]",623.1762322330005,None,623.1763164532001,623.276144126,,,,,,,,,,,,s180_10102022,001,2022_Oct_10_1442,test_typingtask_norepeats,2020.2.10,59.982153150172074,
there,there,,,,,0,102,102,102,,,,,,,,628.6762623720006,None,"['t', 'h', 'e', 'r', 'e']",1,"[0.48434706699936214, 0.5564037269996334, 0.6524104390000502, 0.7003436029999648, 0.796503744999427]",628.6762623720006,None,628.6764628012004,628.7764270360003,,,,,,,,,,,,s180_10102022,001,2022_Oct_10_1442,test_typingtask_norepeats,2020.2.10,59.982153150172074,
pykka,pykka,,,,,0,103,103,103,,,,,,,,634.1762057860005,None,"['p', 'y', 'k', 'k', 'a']",1,"[0.5364874159995452, 0.7124308630000087, 0.8485071309996783, 0.984415701999751, 1.0644455860001472]",634.1762057860005,None,634.1759418822,634.2763892330004,,,,,,,,,,,,s180_10102022,001,2022_Oct_10_1442,test_typingtask_norepeats,2020.2.10,59.982153150172074,
heond,heond,,,,,0,104,104,104,,,,,,,,639.6761689519999,None,"['h', 'e', 'o', 'n', 'd']",1,"[0.48443933199996536, 0.580505574000199, 0.6924259269999311, 0.7805466999998316, 0.8764469119996647]",639.6761689519999,None,639.6760239481998,639.7762889229998,,,,,,,,,,,,s180_10102022,001,2022_Oct_10_1442,test_typingtask_norepeats,2020.2.10,59.982153150172074,
puppy,puppy,,,,,0,105,105,105,,,,,,,,645.1761741990003,None,"['p', 'u', 'p', 'p', 'y']",1,"[0.4965405010007089, 0.8165027780005403, 1.0086019530008343, 1.1604263700000956, 1.224417671000083]",645.1761741990003,None,645.1760275362001,645.2763472630004,,,,,,,,,,,,s180_10102022,001,2022_Oct_10_1442,test_typingtask_norepeats,2020.2.10,59.982153150172074,
therm,therm,,,,,0,106,106,106,,,,,,,,650.6760875489999,None,"['t', 'h', 'e', 'r', 'm']",1,"[0.4846163849997538, 0.5485763279993989, 0.6605137249998734, 0.7245172949997141, 0.8286371579997649]",650.6760875489999,None,650.6761621772,650.7761073850006,,,,,,,,,,,,s180_10102022,001,2022_Oct_10_1442,test_typingtask_norepeats,2020.2.10,59.982153150172074,
faqir,faqir,,,,,0,107,107,107,,,,,,,,656.176226005,None,"['f', 'a', 'q', 'i', 'r']",1,"[0.5364378630001738, 0.696512870999868, 1.0965030120005395, 1.2484465810002803, 1.3444672129999162]",656.176226005,None,656.1760880792006,656.2764391210003,,,,,,,,,,,,s180_10102022,001,2022_Oct_10_1442,test_typingtask_norepeats,2020.2.10,59.982153150172074,
edthe,edthe,,,,,0,108,108,108,,,,,,,,661.6762218760005,None,"['e', 'd', 't', 'h', 'e']",1,"[0.5083832060008717, 0.7085338260003482, 0.8123728880000272, 0.9083767860001899, 0.9804749080003603]",661.6762218760005,None,661.6762557922,661.776180504,,,,,,,,,,,,s180_10102022,001,2022_Oct_10_1442,test_typingtask_norepeats,2020.2.10,59.982153150172074,
vodka,vodka,,,,,0,109,109,109,,,,,,,,667.1762438340002,None,"['v', 'o', 'd', 'k', 'a']",1,"[0.5284284140007003, 0.6484667970007649, 0.7683640109999033, 0.9044815320003181, 0.9843604289999348]",667.1762438340002,None,667.1760956802007,667.2765463800006,,,,,,,,,,,,s180_10102022,001,2022_Oct_10_1442,test_typingtask_norepeats,2020.2.10,59.982153150172074,
theme,theme,,,,,0,110,110,110,,,,,,,,672.6766010810006,None,"['t', 'h', 'e', 'm', 'e']",1,"[0.47601099199982855, 0.5720546459997422, 0.7321133909999844, 0.8760119709995706, 1.0041676659993755]",672.6766010810006,None,672.6765347482003,672.7765067950004,,,,,,,,,,,,s180_10102022,001,2022_Oct_10_1442,test_typingtask_norepeats,2020.2.10,59.982153150172074,
pykka,pykka,,,,,0,111,111,111,,,,,,,,678.1767038110002,None,"['p', 'y', 'k', 'k', 'a']",1,"[0.5599214260000736, 0.7040097899998727, 0.856060707999859, 1.0159428639999533, 1.0560265309995884]",678.1767038110002,None,678.1764993672002,678.2765672810001,,,,,,,,,,,,s180_10102022,001,2022_Oct_10_1442,test_typingtask_norepeats,2020.2.10,59.982153150172074,
theme,theme,,,,,0,112,112,112,,,,,,,,683.6764433570006,None,"['t', 'h', 'e', 'm', 'e']",1,"[0.4362884460006171, 0.5322593470000356, 0.6202723630003675, 0.7402841439998156, 0.8122285460003695]",683.6764433570006,None,683.6764452262003,683.7763132690006,,,,,,,,,,,,s180_10102022,001,2022_Oct_10_1442,test_typingtask_norepeats,2020.2.10,59.982153150172074,
lucky,lucky,,,,,0,113,113,113,,,,,,,,689.1760138150003,None,"['l', 'u', 'c', 'k', 'y']",1,"[0.5206880879995879, 0.6966790910000782, 0.8006124929997895, 0.9527062789993579, 1.024654637999447]",689.1760138150003,None,689.1760953592,689.2760674030005,,,,,,,,,,,,s180_10102022,001,2022_Oct_10_1442,test_typingtask_norepeats,2020.2.10,59.982153150172074,
edthe,edthe,,,,,0,114,114,114,,,,,,,,694.6764111950006,None,"['e', 'd', 't', 'h', 'e']",1,"[0.540265257000101, 0.7403180740002426, 0.852277721000064, 0.9403169759998491, 0.9963146730005974]",694.6764111950006,None,694.6765478661998,694.7766097949998,,,,,,,,,,,,s180_10102022,001,2022_Oct_10_1442,test_typingtask_norepeats,2020.2.10,59.982153150172074,
would,would,,,,,0,115,115,115,,,,,,,,700.1760853550004,None,"['w', 'o', 'u', 'l', 'd']",1,"[0.5605091340003128, 0.7046114759996271, 0.7845230319999246, 0.9446044859996618, 0.9925501739999163]",700.1760853550004,None,700.1762123661999,700.276370175,,,,,,,,,,,,s180_10102022,001,2022_Oct_10_1442,test_typingtask_norepeats,2020.2.10,59.982153150172074,
vanru,vanru,,,,,0,116,116,116,,,,,,,,705.6762813450005,None,"['v', 'a', 'n', 'r']",0,"[0.5003247029999329, 0.6364201920005144, 0.748462550000113, 0.8603637280002658]",705.6762813450005,None,705.6761586772006,705.776467529,,,,,,,,,,,,s180_10102022,001,2022_Oct_10_1442,test_typingtask_norepeats,2020.2.10,59.982153150172074,
vodka,vodka,,,,,0,117,117,117,,,,,,,,711.1762627779999,None,"['v', 'o', 'd', 'k', 'a']",1,"[0.48850094099998387, 0.6003274019994933, 0.7123727560001498, 0.8643508710001697, 0.9284968249994563]",711.1762627779999,None,711.1764216562003,711.2766570020003,,,,,,,,,,,,s180_10102022,001,2022_Oct_10_1442,test_typingtask_norepeats,2020.2.10,59.982153150172074,
tithe,tithe,,,,,0,118,118,118,,,,,,,,716.6762533450001,None,"['t', 'i', 't', 'h', 'e']",1,"[0.5003526090004016, 0.6123412420001841, 0.6843510660000902, 0.7884605560002456, 0.836462510000274]",716.6762533450001,None,716.6761653292003,716.7764630440006,,,,,,,,,,,,s180_10102022,001,2022_Oct_10_1442,test_typingtask_norepeats,2020.2.10,59.982153150172074,
think,think,,,,,0,119,119,119,,,,,,,,722.1762645630006,None,"['t', 'h', 'i', 'n', 'k']",1,"[0.4804529189996174, 0.5603323349996572, 0.6884524019997116, 0.7524616780001452, 0.8643403200003377]",722.1762645630006,None,722.1764981662006,722.2764910650003,,,,,,,,,,,,s180_10102022,001,2022_Oct_10_1442,test_typingtask_norepeats,2020.2.10,59.982153150172074,
puppy,puppy,,,,,,,,,0,0,0,0,,,,,,,,,,,,,727.6762322320001,None,765.0325955710005,None,"['p', 'u', 'p', 'p', 'y']",1,"[0.8481332409992319, 1.0641261439996015, 1.672147307999694, 1.8080587710001055, 1.8721047139997609]",765.0325955710005,None,765.0263763062001,765.1262325120006,s180_10102022,001,2022_Oct_10_1442,test_typingtask_norepeats,2020.2.10,59.982153150172074,
cheer,cheer,,,,,,,,,0,1,1,1,,,,,,,,,,,,,,,770.5429824510002,None,"['c', 'h', 'e', 'e', 'r']",1,"[0.4817056069996397, 0.5857313050000812, 0.6577448109992474, 0.8017314139997325, 0.8897068930000387]",770.5429824510002,None,770.5429653181998,770.6429704800003,s180_10102022,001,2022_Oct_10_1442,test_typingtask_norepeats,2020.2.10,59.982153150172074,
would,would,,,,,,,,,0,2,2,2,,,,,,,,,,,,,,,776.043029642,None,"['w', 'o', 'u', 'l', 'd']",1,"[0.5095823870005916, 0.6456683100004739, 0.7175759850006216, 0.8696940919999179, 0.9496844960003727]",776.043029642,None,776.0430122712003,776.142727806,s180_10102022,001,2022_Oct_10_1442,test_typingtask_norepeats,2020.2.10,59.982153150172074,
edthe,edthe,,,,,,,,,0,3,3,3,,,,,,,,,,,,,,,781.5433859350005,None,"['e', 'd', 't', 'h', 'e']",1,"[0.5052865790003125, 0.6972710510008255, 0.7852022090000901, 0.8893416210003124, 0.9532881420000194]",781.5433859350005,None,781.5433038302006,781.6431911850004,s180_10102022,001,2022_Oct_10_1442,test_typingtask_norepeats,2020.2.10,59.982153150172074,
vodka,vodka,,,,,,,,,0,4,4,4,,,,,,,,,,,,,,,787.042922693,None,"['v', 'o', 'd', 'k', 'a']",1,"[0.6617883620001521, 0.7817707059994063, 1.0137181959998998, 1.1577638210001169, 1.2456772349996754]",787.042922693,None,787.0430099062003,787.1426513289998,s180_10102022,001,2022_Oct_10_1442,test_typingtask_norepeats,2020.2.10,59.982153150172074,
belly,belly,,,,,,,,,0,5,5,5,,,,,,,,,,,,,,,792.5430502300005,None,"['b', 'e', 'l', 'l', 'y']",1,"[0.48165809599959175, 0.5936160579994976, 0.7376220899996042, 0.8736328389995833, 0.9295768430001772]",792.5430502300005,None,792.5430189032002,792.6432149880002,s180_10102022,001,2022_Oct_10_1442,test_typingtask_norepeats,2020.2.10,59.982153150172074,
vanru,vanru,,,,,,,,,0,6,6,6,,,,,,,,,,,,,,,798.0434752640003,None,"['v', 'a', 'n', 'r', 'u']",1,"[0.4691900580000947, 0.6051206299998739, 0.7331169260005481, 0.8532332620006855, 0.9412235059999148]",798.0434752640003,None,798.0430029682,798.1426328100006,s180_10102022,001,2022_Oct_10_1442,test_typingtask_norepeats,2020.2.10,59.982153150172074,
lucky,lucky,,,,,,,,,0,7,7,7,,,,,,,,,,,,,,,803.5428183620006,None,"['l', 'u', 'c', 'k', 'y']",1,"[0.5059089939995829, 0.6977900259998933, 0.793779394000012, 0.9298823199997059, 1.0419077219994506]",803.5428183620006,None,803.5429025602004,803.6430582250005,s180_10102022,001,2022_Oct_10_1442,test_typingtask_norepeats,2020.2.10,59.982153150172074,
would,would,,,,,,,,,0,8,8,8,,,,,,,,,,,,,,,809.0428636639999,None,"['w', 'o', 'u', 'l', 'd']",1,"[0.5898621629994523, 0.7658104879992607, 0.8138492279995262, 0.9578647789994648, 1.0138488239999788]",809.0428636639999,None,809.0429948772005,809.1434092790005,s180_10102022,001,2022_Oct_10_1442,test_typingtask_norepeats,2020.2.10,59.982153150172074,
cooed,cooed,,,,,,,,,0,9,9,9,,,,,,,,,,,,,,,814.5433139980005,None,"['c', 'o', 'o', 'e', 'd']",1,"[0.5453698519995669, 0.7054117730003782, 0.8573675159996128, 0.9134007049997308, 1.0973268030002146]",814.5433139980005,None,814.5431929302001,814.6433882430001,s180_10102022,001,2022_Oct_10_1442,test_typingtask_norepeats,2020.2.10,59.982153150172074,
tithe,tithe,,,,,,,,,0,10,10,10,,,,,,,,,,,,,,,820.0430248090006,None,"['t', 'i', 't', 'h', 'e']",1,"[0.4856919710000511, 0.6055930970005647, 0.7016873729999134, 0.797575665000295, 0.88568926500011]",820.0430248090006,None,820.0429219291998,820.142922082,s180_10102022,001,2022_Oct_10_1442,test_typingtask_norepeats,2020.2.10,59.982153150172074,
puppy,puppy,,,,,,,,,0,11,11,11,,,,,,,,,,,,,,,825.5430722520005,None,"['p', 'u', 'p', 'p', 'y']",1,"[0.5215477149995422, 0.7696453079997809, 1.0175341710000794, 1.1775565139996615, 1.2576595170003202]",825.5430722520005,None,825.5430477092002,825.643293866,s180_10102022,001,2022_Oct_10_1442,test_typingtask_norepeats,2020.2.10,59.982153150172074,
pykka,pykka,,,,,,,,,0,12,12,12,,,,,,,,,,,,,,,831.0432998189999,None,"['p', 'y', 'k', 'k', 'a']",1,"[0.53334200900008, 0.7894182909994925, 1.0773882299999968, 1.2933120339994275, 1.4534060879996105]",831.0432998189999,None,831.0432710352004,831.1432474120002,s180_10102022,001,2022_Oct_10_1442,test_typingtask_norepeats,2020.2.10,59.982153150172074,
puppy,puppy,,,,,,,,,0,13,13,13,,,,,,,,,,,,,,,836.543004092,None,"['p', 'u', 'p', 'p', 'y']",1,"[0.537642675000825, 0.769654169000205, 1.0016406520007877, 1.1376338860000033, 1.2175794060003682]",836.543004092,None,836.5430521222004,836.6429012480003,s180_10102022,001,2022_Oct_10_1442,test_typingtask_norepeats,2020.2.10,59.982153150172074,
edthe,edthe,,,,,,,,,0,14,14,14,,,,,,,,,,,,,,,842.0430450690001,None,"['e', 'd', 't', 'h', 'e']",1,"[0.4698198069991122, 0.6616591009997137, 0.7816281649993471, 0.869672317999175, 0.9496590819999255]",842.0430450690001,None,842.0432491952004,842.14327357,s180_10102022,001,2022_Oct_10_1442,test_typingtask_norepeats,2020.2.10,59.982153150172074,
buddy,buddy,,,,,,,,,0,15,15,15,,,,,,,,,,,,,,,847.5432421229998,None,"['b', 'u', 'd', 'd', 'y']",1,"[0.5054122090004967, 0.6494706160001442, 0.7854721240000799, 0.9053565519998301, 0.9774332610004421]",847.5432421229998,None,847.5431377772,847.6430101229998,s180_10102022,001,2022_Oct_10_1442,test_typingtask_norepeats,2020.2.10,59.982153150172074,
cheer,cheer,,,,,,,,,0,16,16,16,,,,,,,,,,,,,,,853.0435297280001,None,"['c', 'h', 'e', 'e', 'r']",1,"[0.509077009000066, 0.6291047159993468, 0.71738792799988, 0.8451015619993996, 0.9331518219996724]",853.0435297280001,None,853.0433325862002,853.1433707630003,s180_10102022,001,2022_Oct_10_1442,test_typingtask_norepeats,2020.2.10,59.982153150172074,
pykka,pykka,,,,,,,,,0,17,17,17,,,,,,,,,,,,,,,858.5430492270007,None,"['p', 'u', 'k', 'k', 'a']",0,"[0.5216783019996001, 0.745684595000057, 1.2736319509995155, 1.401643442999557, 1.465663391999442]",858.5430492270007,None,858.5433629801998,858.6434619970005,s180_10102022,001,2022_Oct_10_1442,test_typingtask_norepeats,2020.2.10,59.982153150172074,
cheer,cheer,,,,,,,,,0,18,18,18,,,,,,,,,,,,,,,864.0430058150005,None,"['c', 'h', 'e', 'e', 'r']",1,"[0.4935901090002517, 0.6137182480006231, 0.7176173960006054, 0.8456080619998829, 0.9417087319998245]",864.0430058150005,None,864.0432172652006,864.1434345020007,s180_10102022,001,2022_Oct_10_1442,test_typingtask_norepeats,2020.2.10,59.982153150172074,
heond,heond,,,,,,,,,0,19,19,19,,,,,,,,,,,,,,,869.5432837950002,None,"['h', 'e', 'o', 'n', 'd']",1,"[0.5293840080003065, 0.6173244080000586, 0.7134098770002311, 0.801435235000099, 0.8893229690002045]",869.5432837950002,None,869.5435153432006,869.6432074080003,s180_10102022,001,2022_Oct_10_1442,test_typingtask_norepeats,2020.2.10,59.982153150172074,
druze,druze,,,,,,,,,0,20,20,20,,,,,,,,,,,,,,,875.0432040679998,None,"['d', 'r', 'u', 'z', 'e']",1,"[0.46149671400053194, 0.5974497570005042, 0.7014032540000699, 0.8375089990004199, 1.1654698339998504]",875.0432040679998,None,875.0433885452001,875.1433148659999,s180_10102022,001,2022_Oct_10_1442,test_typingtask_norepeats,2020.2.10,59.982153150172074,
cooed,cooed,,,,,,,,,0,21,21,21,,,,,,,,,,,,,,,880.5431864829998,None,"['c', 'o', 'o', 'e', 'd']",1,"[0.44952374499916914, 0.6014226609995603, 0.745515295999212, 0.793419193999398, 0.9695798799994009]",880.5431864829998,None,880.5435422132002,880.6434822689998,s180_10102022,001,2022_Oct_10_1442,test_typingtask_norepeats,2020.2.10,59.982153150172074,
would,would,,,,,,,,,0,22,22,22,,,,,,,,,,,,,,,886.0431005970004,None,"['w', 'o', 'u', 'l', 'd']",1,"[0.5255583690004642, 0.6295765559998472, 0.7015764590005347, 0.8295280009997441, 0.8934951090004688]",886.0431005970004,None,886.0430384932004,886.1430627549998,s180_10102022,001,2022_Oct_10_1442,test_typingtask_norepeats,2020.2.10,59.982153150172074,
about,about,,,,,,,,,0,23,23,23,,,,,,,,,,,,,,,891.5431530790001,None,"['a', 'b', 'o', 'u', 't']",1,"[0.6415824539999448, 0.7374864699995669, 0.9135516249998545, 0.9695648199995048, 1.0335469679994276]",891.5431530790001,None,891.5430278682004,891.6429893840004,s180_10102022,001,2022_Oct_10_1442,test_typingtask_norepeats,2020.2.10,59.982153150172074,
vanru,vanru,,,,,,,,,0,24,24,24,,,,,,,,,,,,,,,897.0436516420004,None,"['v', 'a', 'n', 'r', 'u']",1,"[0.5411134249998213, 0.6690253749993644, 0.7730352439994022, 0.9009587619993908, 0.9809613389998049]",897.0436516420004,None,897.0433464572004,897.1433336260006,s180_10102022,001,2022_Oct_10_1442,test_typingtask_norepeats,2020.2.10,59.982153150172074,
champ,champ,,,,,,,,,0,25,25,25,,,,,,,,,,,,,,,902.5432352369999,None,"['c', 'h', 'a', 'm', 'p']",1,"[0.4654413320004096, 0.5614872480000486, 0.6654742320006335, 0.7933611620001102, 0.9294005230003677]",902.5432352369999,None,902.5430297241999,902.6429934420003,s180_10102022,001,2022_Oct_10_1442,test_typingtask_norepeats,2020.2.10,59.982153150172074,
buddy,buddy,,,,,,,,,0,26,26,26,,,,,,,,,,,,,,,908.0430182150003,None,"['b', 'i', 'u', 'd', 'd', 'y']",0,"[0.46969728899966867, 0.6456810370000312, 0.6456810370000312, 0.7496640179997485, 0.8856935679996241, 0.9336606280003252]",908.0430182150003,None,908.0431763122003,908.1429126399998,s180_10102022,001,2022_Oct_10_1442,test_typingtask_norepeats,2020.2.10,59.982153150172074,
about,about,,,,,,,,,0,27,27,27,,,,,,,,,,,,,,,913.5431403590001,None,"['a', 'b', 'o', 'u', 't']",1,"[0.5055275409995375, 0.6255012579995309, 0.8255390140002419, 0.8734769639995648, 0.969576927000162]",913.5431403590001,None,913.5432874772002,913.6430468100007,s180_10102022,001,2022_Oct_10_1442,test_typingtask_norepeats,2020.2.10,59.982153150172074,
think,think,,,,,,,,,0,28,28,28,,,,,,,,,,,,,,,919.0435736240006,None,"['t', 'h', 'i', 'n', 'k']",1,"[0.5250157939999553, 0.5971345520001705, 0.7090189770005964, 0.7890433150005265, 0.9010315229998014]",919.0435736240006,None,919.0434675552003,919.1433696889999,s180_10102022,001,2022_Oct_10_1442,test_typingtask_norepeats,2020.2.10,59.982153150172074,
haole,haole,,,,,,,,,0,29,29,29,,,,,,,,,,,,,,,924.5435099860006,None,"['h', 'a', 'o', 'l', 'e']",1,"[0.5532033180006692, 0.6571813360005763, 0.7691344830000162, 0.9452499930002887, 1.025126051999905]",924.5435099860006,None,924.5434859322002,924.6436336930001,s180_10102022,001,2022_Oct_10_1442,test_typingtask_norepeats,2020.2.10,59.982153150172074,
think,think,,,,,,,,,0,30,30,30,,,,,,,,,,,,,,,930.0430916470004,None,"['t', 'h', 'i', 'n', 'k']",1,"[0.49350684199998796, 0.5655974359997344, 0.6935623019999184, 0.7656178440001895, 0.8775412040004085]",930.0430916470004,None,930.0433283492,930.1431178560006,s180_10102022,001,2022_Oct_10_1442,test_typingtask_norepeats,2020.2.10,59.982153150172074,
therm,therm,,,,,,,,,0,31,31,31,,,,,,,,,,,,,,,935.5432078130007,None,"['t', 'h', 'e', 'r', 'm']",1,"[0.46547658700001193, 0.5774519030001102, 0.6735189209994132, 0.74547086199982, 0.8495089709995227]",935.5432078130007,None,935.5432685332005,935.6435366550004,s180_10102022,001,2022_Oct_10_1442,test_typingtask_norepeats,2020.2.10,59.982153150172074,
would,would,,,,,,,,,0,32,32,32,,,,,,,,,,,,,,,941.0432978730005,None,"['w', 'o', 'u', 'l', 'd']",1,"[0.7093682210006591, 0.9173103120001542, 0.9733250899998893, 1.1253826640004263, 1.1893830190001609]",941.0432978730005,None,941.0437432872002,941.1434648180002,s180_10102022,001,2022_Oct_10_1442,test_typingtask_norepeats,2020.2.10,59.982153150172074,
buddy,buddy,,,,,,,,,0,33,33,33,,,,,,,,,,,,,,,946.5429570719998,None,"['b', 'u', 'd', 'd', 'y']",1,"[0.5137648560003072, 0.6417218610004056, 0.7537235300005705, 0.8817158970005039, 0.9217503970003236]",946.5429570719998,None,946.5430430782005,946.6432168990004,s180_10102022,001,2022_Oct_10_1442,test_typingtask_norepeats,2020.2.10,59.982153150172074,
pykka,pykka,,,,,,,,,0,34,34,34,,,,,,,,,,,,,,,952.04309491,None,"['p', 'y', 'k', 'k', 'w']",0,"[0.6935467349994724, 0.965616542999669, 1.133578474999922, 1.2856267779998234, 1.4056333759999688]",952.04309491,None,952.0432376642,952.1432168649999,s180_10102022,001,2022_Oct_10_1442,test_typingtask_norepeats,2020.2.10,59.982153150172074,
therm,therm,,,,,,,,,0,35,35,35,,,,,,,,,,,,,,,957.5431665180004,None,"['t', 'h', 'e', 'r', 'm']",1,"[0.44954033400063054, 0.553556899000796, 0.6415615660007461, 0.7136165990004883, 0.8174350090002918]",957.5431665180004,None,957.5429963162003,957.6435460250004,s180_10102022,001,2022_Oct_10_1442,test_typingtask_norepeats,2020.2.10,59.982153150172074,
kremp,kremp,,,,,,,,,0,36,36,36,,,,,,,,,,,,,,,963.0434285299998,None,"['k', 'r', 'e', 'm', 'p']",1,"[0.517171468000015, 0.6612613190000047, 0.733281884000462, 0.8292385149998154, 0.9412977419997333]",963.0434285299998,None,963.0435118541998,963.1435819670005,s180_10102022,001,2022_Oct_10_1442,test_typingtask_norepeats,2020.2.10,59.982153150172074,
druze,druze,,,,,,,,,0,37,37,37,,,,,,,,,,,,,,,968.5432488850001,None,"['d', 'r', 'u', 'z', 'e']",1,"[0.47348313400016195, 0.6334550540004784, 0.7614465779997772, 0.8814366710003014, 1.1454582180003854]",968.5432488850001,None,968.5429896532003,968.643460538,s180_10102022,001,2022_Oct_10_1442,test_typingtask_norepeats,2020.2.10,59.982153150172074,
kremp,kremp,,,,,,,,,0,38,38,38,,,,,,,,,,,,,,,974.0435515930003,None,"['k', 'r', 'e', 'm', 'p']",1,"[0.5251458390002881, 0.685047931000554, 0.7331259410002531, 0.8291039420000743, 0.9571293349999905]",974.0435515930003,None,974.0430441892001,974.1428206330002,s180_10102022,001,2022_Oct_10_1442,test_typingtask_norepeats,2020.2.10,59.982153150172074,
vodka,vodka,,,,,,,,,0,39,39,39,,,,,,,,,,,,,,,979.5433613710002,None,"['v', 'o', 'd', 'k', 'a']",1,"[0.5132890800005043, 0.6493374840001707, 0.7853512940000655, 0.9053106280007341, 1.0012426400007826]",979.5433613710002,None,979.5435241232005,979.6430170820004,s180_10102022,001,2022_Oct_10_1442,test_typingtask_norepeats,2020.2.10,59.982153150172074,
therm,therm,,,,,,,,,0,40,40,40,,,,,,,,,,,,,,,985.0434931079999,None,"['t', 'h', 'e', 'r', 'm']",1,"[0.5010928850006167, 0.6211745179998616, 0.7171098839999104, 0.7652176850006072, 0.8771438300000227]",985.0434931079999,None,985.0437267681998,985.1435333420004,s180_10102022,001,2022_Oct_10_1442,test_typingtask_norepeats,2020.2.10,59.982153150172074,
haole,haole,,,,,,,,,0,41,41,41,,,,,,,,,,,,,,,990.5433511729998,None,"['h', 'a', 'o', 'l', 'e']",1,"[0.5213805249995858, 0.6253618459995778, 0.7214119129994288, 0.9133479139991323, 0.9613381789995401]",990.5433511729998,None,990.5433378552004,990.643484618,s180_10102022,001,2022_Oct_10_1442,test_typingtask_norepeats,2020.2.10,59.982153150172074,
about,about,,,,,,,,,0,42,42,42,,,,,,,,,,,,,,,996.0435956390002,None,"['a', 'b', 'o', 'u', 't']",1,"[0.4211210149996987, 0.5331202849993133, 0.7090157859993269, 0.7810755079999581, 0.8850899059998483]",996.0435956390002,None,996.0433206962005,996.1434893650003,s180_10102022,001,2022_Oct_10_1442,test_typingtask_norepeats,2020.2.10,59.982153150172074,
theme,theme,,,,,,,,,0,43,43,43,,,,,,,,,,,,,,,1001.5437280980004,None,"['t', 'h', 'e', 'm', 'e']",1,"[0.4649358500000744, 0.5848803230001067, 0.6730125600006431, 0.7928823250003916, 1.3289231670005393]",1001.5437280980004,None,1001.5436238671998,1001.6435875520001,s180_10102022,001,2022_Oct_10_1442,test_typingtask_norepeats,2020.2.10,59.982153150172074,
edthe,edthe,,,,,,,,,0,44,44,44,,,,,,,,,,,,,,,1007.043110007,None,"['e', 'd', 't', 'h', 'e']",1,"[0.5016066140005933, 0.6615879569999379, 0.7656040190004205, 0.8455459289998544, 0.9174992289999864]",1007.043110007,None,1007.0432267621998,1007.1431868560003,s180_10102022,001,2022_Oct_10_1442,test_typingtask_norepeats,2020.2.10,59.982153150172074,
kremp,kremp,,,,,,,,,0,45,45,45,,,,,,,,,,,,,,,1012.5433538530006,None,"['k', 'r', 'e', 'm', 'p']",1,"[0.4573656229995322, 0.5773169459998826, 0.625265085999672, 0.7292959970000084, 0.849364324999442]",1012.5433538530006,None,1012.5435754302005,1012.6433488869998,s180_10102022,001,2022_Oct_10_1442,test_typingtask_norepeats,2020.2.10,59.982153150172074,
think,think,,,,,,,,,0,46,46,46,,,,,,,,,,,,,,,1018.0434225919998,None,"['t', 'h', 'i', 'n', 'k']",1,"[0.509175872999549, 0.5732894200000374, 0.7091718179999589, 0.7573023439999815, 0.8692256499998621]",1018.0434225919998,None,1018.0435367081998,1018.143451291,s180_10102022,001,2022_Oct_10_1442,test_typingtask_norepeats,2020.2.10,59.982153150172074,
druze,druze,,,,,,,,,0,47,47,47,,,,,,,,,,,,,,,1023.5434178340001,None,"['d', 'u', 'r', 'z', 'e']",0,"[0.44126029900053254, 0.6572009760002402, 0.7212103470001239, 0.9612735079999766, 1.1213059080000676]",1023.5434178340001,None,1023.5436209922007,1023.6436383850005,s180_10102022,001,2022_Oct_10_1442,test_typingtask_norepeats,2020.2.10,59.982153150172074,
tithe,tithe,,,,,,,,,0,48,48,48,,,,,,,,,,,,,,,1029.0434064460005,None,"['t', 'i', 't', 'h', 'e']",1,"[0.445301001000189, 0.5572757469999488, 0.6533104010004536, 0.7493176660000245, 0.845314228999996]",1029.0434064460005,None,1029.0437788351999,1029.1437267210003,s180_10102022,001,2022_Oct_10_1442,test_typingtask_norepeats,2020.2.10,59.982153150172074,
theme,theme,,,,,,,,,0,49,49,49,,,,,,,,,,,,,,,1034.5433244280002,None,"['t', 'h', 'e', 'm', 'e']",1,"[0.43335240299984434, 0.5614317910003592, 0.6333890180003436, 0.7693878959998983, 0.8254393670003992]",1034.5433244280002,None,1034.5431894782002,1034.6432071790005,s180_10102022,001,2022_Oct_10_1442,test_typingtask_norepeats,2020.2.10,59.982153150172074,
haole,haole,,,,,,,,,0,50,50,50,,,,,,,,,,,,,,,1040.0433140240002,None,"['h', 'a', 'o', 'l', 'e']",1,"[0.5334612910000942, 1.0853860279994478, 1.533381504999852, 1.701332908999575, 1.74930186399979]",1040.0433140240002,None,1040.0431636102,1040.1431759369998,s180_10102022,001,2022_Oct_10_1442,test_typingtask_norepeats,2020.2.10,59.982153150172074,
belly,belly,,,,,,,,,0,51,51,51,,,,,,,,,,,,,,,1045.544260216,None,"['b', 'e', 'l', 'l', 'y']",1,"[0.5044132479997643, 0.592382877000091, 0.7923705599996538, 0.9524558839993915, 1.0083435739998095]",1045.544260216,None,1045.5435961882001,1045.643618473,s180_10102022,001,2022_Oct_10_1442,test_typingtask_norepeats,2020.2.10,59.982153150172074,
there,there,,,,,,,,,0,52,52,52,,,,,,,,,,,,,,,1051.0436598550004,None,"['t', 'h', 'e', 'r', 'e']",1,"[0.42900716599979205, 0.5490153219998319, 0.6050703769997199, 0.6929484289994434, 0.7650550520002071]",1051.0436598550004,None,1051.0436035632,1051.143431687,s180_10102022,001,2022_Oct_10_1442,test_typingtask_norepeats,2020.2.10,59.982153150172074,
theme,theme,,,,,,,,,0,53,53,53,,,,,,,,,,,,,,,1056.5433773960003,None,"['t', 'h', 'e', 'm', 'e']",1,"[0.45735595200039825, 0.5693241760000092, 0.6412933820001854, 0.8013160640002752, 0.881239313000151]",1056.5433773960003,None,1056.5434126222005,1056.6432222230005,s180_10102022,001,2022_Oct_10_1442,test_typingtask_norepeats,2020.2.10,59.982153150172074,
champ,champ,,,,,,,,,0,54,54,54,,,,,,,,,,,,,,,1062.0437212739998,None,"['c', 'h', 'a', 'm', 'p']",1,"[0.5008813610002107, 0.6288891940002941, 0.7569036160002725, 0.8768784029998642, 1.0050031649998346]",1062.0437212739998,None,1062.0437517511998,1062.143487419,s180_10102022,001,2022_Oct_10_1442,test_typingtask_norepeats,2020.2.10,59.982153150172074,
belly,belly,,,,,,,,,0,55,55,55,,,,,,,,,,,,,,,1067.543638272,None,"['b', 'e', 'l', 'l', 'y']",1,"[0.46507203100009065, 0.5450581189998047, 0.704985170999862, 0.8410390349999943, 0.905087743999502]",1067.543638272,None,1067.5437161462003,1067.6437337240004,s180_10102022,001,2022_Oct_10_1442,test_typingtask_norepeats,2020.2.10,59.982153150172074,
faqir,faqir,,,,,,,,,0,56,56,56,,,,,,,,,,,,,,,1073.0432296950003,None,"['f', 'a', 'q', 'i', 'r']",1,"[0.581430119000288, 0.6773654509997868, 1.0053593590000673, 1.1574346340003103, 1.2454822500003502]",1073.0432296950003,None,1073.0434238102005,1073.1432891200002,s180_10102022,001,2022_Oct_10_1442,test_typingtask_norepeats,2020.2.10,59.982153150172074,
cheer,cheer,,,,,,,,,0,57,57,57,,,,,,,,,,,,,,,1078.543726295,None,"['c', 'h', 'e', 'e', 'r']",1,"[0.5289473009997891, 0.6489781959999164, 0.7449543779994201, 0.8889388279994819, 0.9768688679996558]",1078.543726295,None,1078.5436033171998,1078.6437097449998,s180_10102022,001,2022_Oct_10_1442,test_typingtask_norepeats,2020.2.10,59.982153150172074,
puppy,puppy,,,,,,,,,0,58,58,58,,,,,,,,,,,,,,,1084.0431765390003,None,"['p', 'u', 'p', 'p', 'y']",1,"[0.5415575790002549, 0.7814830670004085, 1.0135429250003654, 1.157551524000155, 1.2615214120005476]",1084.0431765390003,None,1084.0433447871999,1084.1435106010003,s180_10102022,001,2022_Oct_10_1442,test_typingtask_norepeats,2020.2.10,59.982153150172074,
faqir,faqir,,,,,,,,,0,59,59,59,,,,,,,,,,,,,,,1089.543319753,None,"['f', 'a', 'q', 'i', 'r']",1,"[0.5773329109997576, 0.7693953549996877, 1.0733996499993737, 1.22541919699961, 1.313424610999391]",1089.543319753,None,1089.5435140702,1089.643461918,s180_10102022,001,2022_Oct_10_1442,test_typingtask_norepeats,2020.2.10,59.982153150172074,
heond,heond,,,,,,,,,0,60,60,60,,,,,,,,,,,,,,,1095.0432773740004,None,"['h', 'e', 'o', 'n', 'd']",1,"[0.565393187999689, 0.6854359439994369, 0.8054347999996025, 0.8773141699994085, 0.9734120019993497]",1095.0432773740004,None,1095.0432721932,1095.1432698520002,s180_10102022,001,2022_Oct_10_1442,test_typingtask_norepeats,2020.2.10,59.982153150172074,
there,there,,,,,,,,,0,61,61,61,,,,,,,,,,,,,,,1100.5434952040005,None,"['t', 'h', 'e', 'r', 'e']",1,"[0.5211053860002721, 0.6251299440000366, 0.697213063000163, 0.7771046389998446, 0.86521779099985]",1100.5434952040005,None,1100.5436644042,1100.6441210720004,s180_10102022,001,2022_Oct_10_1442,test_typingtask_norepeats,2020.2.10,59.982153150172074,
faqir,faqir,,,,,,,,,0,62,62,62,,,,,,,,,,,,,,,1106.0433632049999,None,"['f', 'a', 'q', 'i', 'r']",1,"[0.5094100119995346, 0.7973745029994461, 1.1413078569994468, 1.269348844999513, 1.3653485109998655]",1106.0433632049999,None,1106.0433221292003,1106.1433008060003,s180_10102022,001,2022_Oct_10_1442,test_typingtask_norepeats,2020.2.10,59.982153150172074,
buddy,buddy,,,,,,,,,0,63,63,63,,,,,,,,,,,,,,,1111.5433623520003,None,"['b', 'u', 'd', 'd', 'y']",1,"[0.5212314820000756, 0.6573656849996041, 0.7932512340003086, 0.9373622670000259, 1.0172561560002578]",1111.5433623520003,None,1111.5431971862006,1111.643304755,s180_10102022,001,2022_Oct_10_1442,test_typingtask_norepeats,2020.2.10,59.982153150172074,
kremp,kremp,,,,,,,,,0,64,64,64,,,,,,,,,,,,,,,1117.0435559389998,None,"['k', 'r', 'e', 'm', 'p']",1,"[0.5091963300001225, 0.6290791519995764, 0.6930605809993722, 0.7971820610000577, 0.9091161090000242]",1117.0435559389998,None,1117.0432396022004,1117.1434890199998,s180_10102022,001,2022_Oct_10_1442,test_typingtask_norepeats,2020.2.10,59.982153150172074,
tithe,tithe,,,,,,,,,0,65,65,65,,,,,,,,,,,,,,,1122.5434569220006,None,"['t', 'i', 't', 'h', 'e']",1,"[0.4972545529999479, 0.6572699409998677, 0.7451962369996181, 0.8332504499994684, 0.8972139839997908]",1122.5434569220006,None,1122.5434561142,1122.6434253770003,s180_10102022,001,2022_Oct_10_1442,test_typingtask_norepeats,2020.2.10,59.982153150172074,
about,about,,,,,,,,,0,66,66,66,,,,,,,,,,,,,,,1128.0433644840004,None,"['a', 'b', 'o', 'u', 't']",1,"[0.7013720430004469, 0.8133637139999337, 0.9892576820002432, 1.0613704170000346, 1.1333473220001906]",1128.0433644840004,None,1128.0435388022004,1128.143251898,s180_10102022,001,2022_Oct_10_1442,test_typingtask_norepeats,2020.2.10,59.982153150172074,
vodka,vodka,,,,,,,,,0,67,67,67,,,,,,,,,,,,,,,1133.5435223069999,None,"['v', 'o', 'd', 'k', 'a']",1,"[0.513134361000084, 0.6731048089995966, 0.7611575900000389, 0.9131115700001828, 1.065188630999728]",1133.5435223069999,None,1133.5434654812004,1133.6435253460004,s180_10102022,001,2022_Oct_10_1442,test_typingtask_norepeats,2020.2.10,59.982153150172074,
zibja,zibja,,,,,,,,,0,68,68,68,,,,,,,,,,,,,,,1139.043602539,None,"['z', 'i', 'b', 'j', 'a']",1,"[0.5971139590001258, 0.7570762639998065, 0.9490707569993901, 1.1251528539996798, 1.2130944290001935]",1139.043602539,None,1139.0433963512003,1139.143184523,s180_10102022,001,2022_Oct_10_1442,test_typingtask_norepeats,2020.2.10,59.982153150172074,
there,there,,,,,,,,,0,69,69,69,,,,,,,,,,,,,,,1144.5433447200003,None,"['t', 'h', 'e', 'r', 'e']",1,"[0.4573410190005234, 0.5613439670005391, 0.6493699310003649, 0.7133716650005226, 0.7932631180001408]",1144.5433447200003,None,1144.5434382482006,1144.6436041320003,s180_10102022,001,2022_Oct_10_1442,test_typingtask_norepeats,2020.2.10,59.982153150172074,
heond,heond,,,,,,,,,0,70,70,70,,,,,,,,,,,,,,,1150.0437165950007,None,"['h', 'e', 'o', 'n', 'd']",1,"[0.5329639120000138, 0.6610384079995129, 0.8048555509994912, 0.8529356629996983, 0.9329278679997515]",1150.0437165950007,None,1150.0436684792,1150.1432727760002,s180_10102022,001,2022_Oct_10_1442,test_typingtask_norepeats,2020.2.10,59.982153150172074,
cooed,cooed,,,,,,,,,0,71,71,71,,,,,,,,,,,,,,,1155.5434165420002,None,"['c', 'o', 'o', 'e', 'd']",1,"[0.4893003460001637, 0.6571870050001962, 0.7931924600006823, 0.8572551460001705, 1.033302697000181]",1155.5434165420002,None,1155.5434810962004,1155.6442501230003,s180_10102022,001,2022_Oct_10_1442,test_typingtask_norepeats,2020.2.10,59.982153150172074,
vanru,vanru,,,,,,,,,0,72,72,72,,,,,,,,,,,,,,,1161.0433907100005,None,"['v', 'a', 'n', 'r', 'u']",1,"[0.5493958380002368, 0.8453691610002352, 1.0292851029998928, 1.1413345170003595, 1.2613219080003546]",1161.0433907100005,None,1161.0433211052002,1161.143439761,s180_10102022,001,2022_Oct_10_1442,test_typingtask_norepeats,2020.2.10,59.982153150172074,
heond,heond,,,,,,,,,0,73,73,73,,,,,,,,,,,,,,,1166.5602722570002,None,"['h', 'e', 'o', 'n', 'd']",1,"[0.5123165029999655, 0.6083330040000874, 0.7363953759995638, 0.7763424899994789, 0.8804449849994853]",1166.5602722570002,None,1166.5600534342,1166.660085394,s180_10102022,001,2022_Oct_10_1442,test_typingtask_norepeats,2020.2.10,59.982153150172074,
zibja,zibja,,,,,,,,,0,74,74,74,,,,,,,,,,,,,,,1172.0433991600003,None,"['a', 'i', 'b', 'j', 'a']",0,"[0.813373945999956, 1.045305162000659, 1.1012150370006566, 1.3973212670007342, 1.5333184820001406]",1172.0433991600003,None,1172.0436941992,1172.1438856450004,s180_10102022,001,2022_Oct_10_1442,test_typingtask_norepeats,2020.2.10,59.982153150172074,
druze,druze,,,,,,,,,0,75,75,75,,,,,,,,,,,,,,,1177.543499593,None,"['d', 'r', 'u', 'z', 'e']",1,"[0.5931159150004532, 0.8170872959999542, 0.921225539000261, 1.057228652000049, 1.3132481900001949]",1177.543499593,None,1177.5435552582,1177.6438176380007,s180_10102022,001,2022_Oct_10_1442,test_typingtask_norepeats,2020.2.10,59.982153150172074,
buddy,buddy,,,,,,,,,0,76,76,76,,,,,,,,,,,,,,,1183.0436822740003,None,"['b', 'u', 'd', 'd', 'y']",1,"[0.5009074390000023, 0.6289924989996507, 0.7889239100004488, 0.916901806000169, 0.9809679589998268]",1183.0436822740003,None,1183.0436915121998,1183.143640247,s180_10102022,001,2022_Oct_10_1442,test_typingtask_norepeats,2020.2.10,59.982153150172074,
champ,champ,,,,,,,,,0,77,77,77,,,,,,,,,,,,,,,1188.543662262,None,"['c', 'h', 'a', 'm', 'p']",1,"[0.4890699229999882, 0.609072438000112, 0.7450304720005079, 0.8969745430003968, 1.0089540150001994]",1188.543662262,None,1188.5434049902003,1188.6435595430003,s180_10102022,001,2022_Oct_10_1442,test_typingtask_norepeats,2020.2.10,59.982153150172074,
puppy,puppy,,,,,,,,,0,78,78,78,,,,,,,,,,,,,,,1194.0436705910006,None,"['p', 'u', 'p', 'p', 'y']",1,"[0.5410173100008251, 0.8050581290008267, 1.0130526010007088, 1.1569805120007004, 1.2130648010006553]",1194.0436705910006,None,1194.0434433362004,1194.1432845549998,s180_10102022,001,2022_Oct_10_1442,test_typingtask_norepeats,2020.2.10,59.982153150172074,
think,think,,,,,,,,,0,79,79,79,,,,,,,,,,,,,,,1199.5435012730004,None,"['t', 'h', 'i', 'n', 'k']",1,"[0.45717201299976296, 0.5451559169996472, 0.6652057419996709, 0.7290811869997924, 0.8411229169996659]",1199.5435012730004,None,1199.5436591352006,1199.6434833029998,s180_10102022,001,2022_Oct_10_1442,test_typingtask_norepeats,2020.2.10,59.982153150172074,
pykka,pykka,,,,,,,,,0,80,80,80,,,,,,,,,,,,,,,1205.0438256910002,None,"['p', 'y', 'k', 'k', 'a']",1,"[0.5887565819994052, 0.788785837999967, 0.964878568000131, 1.0767667079999228, 1.1648792300002242]",1205.0438256910002,None,1205.0438628591999,1205.1438097640003,s180_10102022,001,2022_Oct_10_1442,test_typingtask_norepeats,2020.2.10,59.982153150172074,
zibja,zibja,,,,,,,,,0,81,81,81,,,,,,,,,,,,,,,1210.5437293470004,None,"['z', 'i', 'b', 'j', 'a']",1,"[0.6089138469997124, 0.7609245690000535, 0.8569857470001807, 1.0089642089997142, 1.1049986500001978]",1210.5437293470004,None,1210.5439979912005,1210.6439631860003,s180_10102022,001,2022_Oct_10_1442,test_typingtask_norepeats,2020.2.10,59.982153150172074,
kremp,kremp,,,,,,,,,0,82,82,82,,,,,,,,,,,,,,,1216.0435752190006,None,"['k', 'r', 'e', 'm', 'p']",1,"[0.5410833559999446, 0.7010376409998571, 0.7730222810005216, 0.877014390000113, 0.9971262730005037]",1216.0435752190006,None,1216.0435501992004,1216.1435224799998,s180_10102022,001,2022_Oct_10_1442,test_typingtask_norepeats,2020.2.10,59.982153150172074,
pykka,pykka,,,,,,,,,0,83,83,83,,,,,,,,,,,,,,,1221.543655898,None,"['p', 'y', 'k', 'k', 'a']",1,"[0.6490502269998615, 0.8090128149997327, 0.9450356399993325, 1.0809932490001302, 1.1210092450000957]",1221.543655898,None,1221.5435796032004,1221.6435276270004,s180_10102022,001,2022_Oct_10_1442,test_typingtask_norepeats,2020.2.10,59.982153150172074,
lucky,lucky,,,,,,,,,0,84,84,84,,,,,,,,,,,,,,,1227.0435723010005,None,"['l', 'u', 'c', 'k', 'y']",1,"[0.5891533680005523, 0.8211081899999044, 0.9650970499997129, 1.0770242630005669, 1.2210981730004278]",1227.0435723010005,None,1227.0436462271998,1227.1437750760006,s180_10102022,001,2022_Oct_10_1442,test_typingtask_norepeats,2020.2.10,59.982153150172074,
cheer,cheer,,,,,,,,,0,85,85,85,,,,,,,,,,,,,,,1232.5435273120002,None,"['c', 'h', 'e', 'e', 'r']",1,"[0.6090752000000066, 0.6891022509998947, 0.7770780979999472, 0.9210895179994623, 0.9930891919993883]",1232.5435273120002,None,1232.5436216761998,1232.6436258439999,s180_10102022,001,2022_Oct_10_1442,test_typingtask_norepeats,2020.2.10,59.982153150172074,
edthe,edthe,,,,,,,,,0,86,86,86,,,,,,,,,,,,,,,1238.0437492460005,None,"['e', 'd', 't', 'h', 'e']",1,"[0.5008759930005908, 0.6849578460005432, 0.8369758180006102, 0.9329569880001145, 1.0129611130005287]",1238.0437492460005,None,1238.0438785712001,1238.1438144720005,s180_10102022,001,2022_Oct_10_1442,test_typingtask_norepeats,2020.2.10,59.982153150172074,
therm,therm,,,,,,,,,0,87,87,87,,,,,,,,,,,,,,,1243.5437072310006,None,"['t', 'h', 'e', 'r', 'm']",1,"[0.47302270300042437, 0.6009036149998792, 0.6730060110003251, 0.7529413789998216, 0.8650071900001421]",1243.5437072310006,None,1243.5437941802,1243.643863358,s180_10102022,001,2022_Oct_10_1442,test_typingtask_norepeats,2020.2.10,59.982153150172074,
there,there,,,,,,,,,0,88,88,88,,,,,,,,,,,,,,,1249.043723238,None,"['t', 'h', 'e', 'r', 'e']",1,"[0.47688492799989035, 0.6049110539997855, 0.6529940919999717, 0.7330381550000311, 0.812963598999886]",1249.043723238,None,1249.0439596432004,1249.143776672,s180_10102022,001,2022_Oct_10_1442,test_typingtask_norepeats,2020.2.10,59.982153150172074,
heond,heond,,,,,,,,,0,89,89,89,,,,,,,,,,,,,,,1254.5436162960004,None,"['h', 'e', 'o', 'n', 'd']",1,"[0.5050634099998206, 0.5850998539999637, 0.7289964820001842, 0.7929934410003625, 0.889109112999904]",1254.5436162960004,None,1254.5435198432003,1254.6439943430005,s180_10102022,001,2022_Oct_10_1442,test_typingtask_norepeats,2020.2.10,59.982153150172074,
champ,champ,,,,,,,,,0,90,90,90,,,,,,,,,,,,,,,1260.0438732450002,None,"['c', 'h', 'a', 'm', 'p']",1,"[0.46882605199971294, 0.5647580429995287, 0.6608991149996655, 0.8048108140001204, 0.932841155999995]",1260.0438732450002,None,1260.0436506892,1260.143854631,s180_10102022,001,2022_Oct_10_1442,test_typingtask_norepeats,2020.2.10,59.982153150172074,
theme,theme,,,,,,,,,0,91,91,91,,,,,,,,,,,,,,,1265.543743053,None,"['t', 'h', 'e', 'm', 'e']",1,"[0.4889822909999566, 0.5768480899996575, 0.6569862669994109, 0.7688916079996488, 0.8329670319999423]",1265.543743053,None,1265.5434978412002,1265.643670456,s180_10102022,001,2022_Oct_10_1442,test_typingtask_norepeats,2020.2.10,59.982153150172074,
lucky,lucky,,,,,,,,,0,92,92,92,,,,,,,,,,,,,,,1271.043735698,None,"['l', 'u', 'c', 'k', 'y']",1,"[0.5088617439996597, 0.7489371860001484, 0.8369364419995691, 0.9649708059996556, 1.0928738410002552]",1271.043735698,None,1271.0438997902,1271.1438609650004,s180_10102022,001,2022_Oct_10_1442,test_typingtask_norepeats,2020.2.10,59.982153150172074,
haole,haole,,,,,,,,,0,93,93,93,,,,,,,,,,,,,,,1276.543995825,None,"['h', 'a', 'o', 'l', 'e']",1,"[0.46471460399970965, 0.568649533000098, 0.6886815890002254, 0.8567218360003608, 0.9207233710003493]",1276.543995825,None,1276.5440355092003,1276.6436856710006,s180_10102022,001,2022_Oct_10_1442,test_typingtask_norepeats,2020.2.10,59.982153150172074,
zibja,zibja,,,,,,,,,0,94,94,94,,,,,,,,,,,,,,,1282.043850655,None,"['z', 'i', 'b', 'j', 'a']",1,"[1.5248747749992617, 1.676745762999417, 1.7488264379999237, 1.8848440809997555, 1.9728757200000473]",1282.043850655,None,1282.0439865291999,1282.1439180520001,s180_10102022,001,2022_Oct_10_1442,test_typingtask_norepeats,2020.2.10,59.982153150172074,
lucky,lucky,,,,,,,,,0,95,95,95,,,,,,,,,,,,,,,1287.5439407200001,None,"['l', 'u', 'c', 'k', 'y']",1,"[0.5367828170001303, 0.7127129990003596, 0.8407432559997687, 0.9766549860005398, 1.1047291880004195]",1287.5439407200001,None,1287.5440295252,1287.6439633010004,s180_10102022,001,2022_Oct_10_1442,test_typingtask_norepeats,2020.2.10,59.982153150172074,
cooed,cooed,,,,,,,,,0,96,96,96,,,,,,,,,,,,,,,1293.0436164620005,None,"['c', 'o', 'o', 'e', 'd']",1,"[0.5251067240005796, 0.6371057800006383, 0.7731022090001716, 0.8451442670002507, 1.013078293000035]",1293.0436164620005,None,1293.0436436941998,1293.1437510120004,s180_10102022,001,2022_Oct_10_1442,test_typingtask_norepeats,2020.2.10,59.982153150172074,
champ,champ,,,,,,,,,0,97,97,97,,,,,,,,,,,,,,,1298.5440820980002,None,"['c', 'h', 'a', 'm', 'p']",1,"[0.4085360250001031, 0.5125210389996937, 0.6326279679997242, 0.7605510339999455, 0.880602424999779]",1298.5440820980002,None,1298.5439506241999,1298.6440011940003,s180_10102022,001,2022_Oct_10_1442,test_typingtask_norepeats,2020.2.10,59.982153150172074,
edthe,edthe,,,,,,,,,0,98,98,98,,,,,,,,,,,,,,,1304.043623169,None,"['e', 'd', 't', 'h', 'e']",1,"[0.4929888709993975, 0.8370857979998618, 0.9571038079993741, 1.0530925339999158, 1.1330605429993739]",1304.043623169,None,1304.0436180722006,1304.1435708660001,s180_10102022,001,2022_Oct_10_1442,test_typingtask_norepeats,2020.2.10,59.982153150172074,
tithe,tithe,,,,,,,,,0,99,99,99,,,,,,,,,,,,,,,1309.5435295770003,None,"['t', 'i', 't', 'h', 'e']",1,"[0.5131447329995353, 0.6010784879999846, 0.7131890079999721, 0.7851864479998767, 0.857159283999863]",1309.5435295770003,None,1309.5435874022003,1309.6433552970002,s180_10102022,001,2022_Oct_10_1442,test_typingtask_norepeats,2020.2.10,59.982153150172074,
haole,haole,,,,,,,,,0,100,100,100,,,,,,,,,,,,,,,1315.0436284980005,None,"['h', 'a', 'p', 'l', 'e']",0,"[0.5490475910000896, 0.6611492989995895, 0.8210898299994369, 1.12496819900025, 1.1970379079994018]",1315.0436284980005,None,1315.0436902722001,1315.144080983,s180_10102022,001,2022_Oct_10_1442,test_typingtask_norepeats,2020.2.10,59.982153150172074,
vodka,vodka,,,,,,,,,0,101,101,101,,,,,,,,,,,,,,,1320.5435064020003,None,"['c', 'o', 'd', 'k', 'a']",0,"[0.5771047639991593, 0.7051188999994338, 0.8332071229997382, 0.9612548349996359, 1.0891647439993903]",1320.5435064020003,None,1320.5437264292002,1320.64381478,s180_10102022,001,2022_Oct_10_1442,test_typingtask_norepeats,2020.2.10,59.982153150172074,
faqir,faqir,,,,,,,,,0,102,102,102,,,,,,,,,,,,,,,1326.043594922,None,"['f', 'a', 'q', 'i', 'r']",1,"[0.5010124559994438, 0.6451045489993703, 0.9890773679999256, 1.1411287769997216, 1.245101373999205]",1326.043594922,None,1326.0436217882004,1326.1435975559998,s180_10102022,001,2022_Oct_10_1442,test_typingtask_norepeats,2020.2.10,59.982153150172074,
druze,druze,,,,,,,,,0,103,103,103,,,,,,,,,,,,,,,1331.543852242,None,"['d', 'r', 'u', 'z', 'e']",1,"[0.5368219179999869, 0.7288374219997422, 0.84885996399953, 0.9608238359996903, 1.248854986999504]",1331.543852242,None,1331.5435290102002,1331.6437304660003,s180_10102022,001,2022_Oct_10_1442,test_typingtask_norepeats,2020.2.10,59.982153150172074,
there,there,,,,,,,,,0,104,104,104,,,,,,,,,,,,,,,1337.043885917,None,"['t', 'h', 'e', 'r', 'e']",1,"[0.4367950980004025, 0.540783532000205, 0.6127887239999836, 0.6767076320002161, 0.7728309100002662]",1337.043885917,None,1337.0436336582004,1337.1436433890003,s180_10102022,001,2022_Oct_10_1442,test_typingtask_norepeats,2020.2.10,59.982153150172074,
belly,belly,,,,,,,,,0,105,105,105,,,,,,,,,,,,,,,1342.5441967739998,None,"['b', 'e', 'l', 'l', 'y']",1,"[0.49652369800060114, 0.6163948530002017, 0.7604793400005292, 0.9124255510005241, 0.9525068250004551]",1342.5441967739998,None,1342.5437858332004,1342.6436280380003,s180_10102022,001,2022_Oct_10_1442,test_typingtask_norepeats,2020.2.10,59.982153150172074,
about,about,,,,,,,,,0,106,106,106,,,,,,,,,,,,,,,1348.0437626740004,None,"['a', 'b', 'o', 'u', 't']",1,"[0.4449433580002733, 0.5728748350002206, 0.7808704019998913, 0.8608759550006653, 0.9488834390003831]",1348.0437626740004,None,1348.0439132752006,1348.1436320070006,s180_10102022,001,2022_Oct_10_1442,test_typingtask_norepeats,2020.2.10,59.982153150172074,
tithe,tithe,,,,,,,,,0,107,107,107,,,,,,,,,,,,,,,1353.543874076,None,"['t', 'i', 't', 'h', 'e']",1,"[0.4407533379999222, 0.512757980999595, 0.6247978239998702, 0.7048591729999316, 0.7767910920001668]",1353.543874076,None,1353.5441662711999,1353.6439370480002,s180_10102022,001,2022_Oct_10_1442,test_typingtask_norepeats,2020.2.10,59.982153150172074,
think,think,,,,,,,,,0,108,108,108,,,,,,,,,,,,,,,1359.0440743520003,None,"['t', 'h', 'i', 'n', 'k']",1,"[0.5085161750002953, 0.5725839289998476, 0.7005564080000113, 0.7725268080002934, 0.8845647759999338]",1359.0440743520003,None,1359.0439930241998,1359.1440015140006,s180_10102022,001,2022_Oct_10_1442,test_typingtask_norepeats,2020.2.10,59.982153150172074,
would,would,,,,,,,,,0,109,109,109,,,,,,,,,,,,,,,1364.5439194500004,None,"['w', 'o', 'u', 'l', 'd']",1,"[0.6807284759997856, 0.8566999409995333, 1.0488231679992168, 1.2727987169992048, 1.4087108309995529]",1364.5439194500004,None,1364.5437794132001,1364.6438063730002,s180_10102022,001,2022_Oct_10_1442,test_typingtask_norepeats,2020.2.10,59.982153150172074,
theme,theme,,,,,,,,,0,110,110,110,,,,,,,,,,,,,,,1370.043700524,None,"['t', 'h', 'e', 'm', 'e']",1,"[0.4210052859998541, 0.5009045879996847, 0.5970161810000718, 0.732972248999431, 0.789029486999425]",1370.043700524,None,1370.0438985072003,1370.1441017349998,s180_10102022,001,2022_Oct_10_1442,test_typingtask_norepeats,2020.2.10,59.982153150172074,
vodka,vodka,,,,,,,,,0,111,111,111,,,,,,,,,,,,,,,1375.543857613,None,"['v', 'o', 'd', 'k', 'a']",1,"[0.5688167409998641, 0.7688520740002787, 0.8807790370001385, 1.008760489999986, 1.0968559639995874]",1375.543857613,None,1375.5438143852004,1375.6441026290004,s180_10102022,001,2022_Oct_10_1442,test_typingtask_norepeats,2020.2.10,59.982153150172074,
lucky,lucky,,,,,,,,,0,112,112,112,,,,,,,,,,,,,,,1381.0436222120006,None,"['l', 'u', 'c', 'k', 'y']",1,"[0.5571040799995899, 0.805003915999805, 0.9170557569996163, 1.045073610000145, 1.1649817830002576]",1381.0436222120006,None,1381.0437606752,1381.1437660749998,s180_10102022,001,2022_Oct_10_1442,test_typingtask_norepeats,2020.2.10,59.982153150172074,
cooed,cooed,,,,,,,,,0,113,113,113,,,,,,,,,,,,,,,1386.5437216400005,None,"['c', 'o', 'o', 'e', 'd']",1,"[0.4888911170000938, 0.6169774399995731, 0.7609525930001837, 0.8169319809994704, 1.0008906399998523]",1386.5437216400005,None,1386.5436412972,1386.643749422,s180_10102022,001,2022_Oct_10_1442,test_typingtask_norepeats,2020.2.10,59.982153150172074,
faqir,faqir,,,,,,,,,0,114,114,114,,,,,,,,,,,,,,,1392.0435787390006,None,"['f', 'a', 'q', 'i', 'r']",1,"[0.4850780479991954, 0.613052479999169, 0.8930271209992497, 0.997148919999745, 1.1091029639992485]",1392.0435787390006,None,1392.0437867972003,1392.143717684,s180_10102022,001,2022_Oct_10_1442,test_typingtask_norepeats,2020.2.10,59.982153150172074,
vanru,vanru,,,,,,,,,0,115,115,115,,,,,,,,,,,,,,,1397.5437833160004,None,"['v', 'a', 'n', 'r', 'u']",1,"[0.528884012999697, 0.7049058809998314, 0.8169062150000173, 0.9529269439999553, 1.0408352320000631]",1397.5437833160004,None,1397.5436364732002,1397.643688129,s180_10102022,001,2022_Oct_10_1442,test_typingtask_norepeats,2020.2.10,59.982153150172074,
belly,belly,,,,,,,,,0,116,116,116,,,,,,,,,,,,,,,1403.0438813050005,None,"['b', 'e', 'l', 'l', 'y']",1,"[0.5408126149995951, 0.6688283619996582, 0.8048489449993212, 0.9328303140000571, 1.0288587699997152]",1403.0438813050005,None,1403.0437856222004,1403.143746142,s180_10102022,001,2022_Oct_10_1442,test_typingtask_norepeats,2020.2.10,59.982153150172074,
vanru,vanru,,,,,,,,,0,117,117,117,,,,,,,,,,,,,,,1408.5438788330002,None,"['v', 'a', 'n', 'r', 'u']",1,"[0.48072544099977677, 0.6248520990002362, 0.7528375849997246, 0.8648244980004165, 0.9927334499998324]",1408.5438788330002,None,1408.5436155291998,1408.644123856,s180_10102022,001,2022_Oct_10_1442,test_typingtask_norepeats,2020.2.10,59.982153150172074,
therm,therm,,,,,,,,,0,118,118,118,,,,,,,,,,,,,,,1414.044061355,None,"['t', 'h', 'e', 'r', 'm']",1,"[0.4686479740003051, 0.5885900479997872, 0.6925600229997144, 0.7885584710002149, 0.9085666480004875]",1414.044061355,None,1414.0441474812003,1414.143994776,s180_10102022,001,2022_Oct_10_1442,test_typingtask_norepeats,2020.2.10,59.982153150172074,
zibja,zibja,,,,,,,,,0,119,119,119,,,,,,,,,,,,,,,1419.5441532960003,None,"['a', 'i', 'b', 'j', 'a']",0,"[0.6165218470005129, 0.8485265560002517, 0.9924416430003475, 1.1525215760002538, 1.304586475999713]",1419.5441532960003,None,1419.5441441612,1419.6439237220002,s180_10102022,001,2022_Oct_10_1442,test_typingtask_norepeats,2020.2.10,59.982153150172074,
