string,corrAns,practice_trials.thisRepN,practice_trials.thisTrialN,practice_trials.thisN,practice_trials.thisIndex,trials_1.thisRepN,trials_1.thisTrialN,trials_1.thisN,trials_1.thisIndex,trials_2.thisRepN,trials_2.thisTrialN,trials_2.thisN,trials_2.thisIndex,key_resp_0.keys,key_resp_0.corr,key_resp_0.rt,text_1.started,text_1.stopped,key_resp_1.keys,key_resp_1.corr,key_resp_1.rt,key_resp_1.started,key_resp_1.stopped,sound_1A_1.started,sound_1A_1.stopped,break_time.started,break_time.stopped,text_2.started,text_2.stopped,key_resp_2.keys,key_resp_2.corr,key_resp_2.rt,key_resp_2.started,key_resp_2.stopped,sound_1A_2.started,sound_1A_2.stopped,participant,session,date,expName,psychopyVersion,frameRate,
fresh,fresh,0,0,0,0,,,,,,,,,"['f', 'r', 'e', 's', 'h']",1,"[0.9647224589716643, 1.1166236869757995, 1.196701809996739, 1.2686767549603246, 1.4047375429654494]",,,,,,,,,,,,,,,,,,,,,s181_10132022,001,2022_Oct_13_1535,test_typingtask_norepeats,2020.2.10,59.74914166635238,
dream,dream,0,1,1,1,,,,,,,,,"['d', 'r', 'e', 'a', 'm']",1,"[1.0107051630038768, 1.1468344579916447, 1.2427046839729883, 1.3067084409995005, 1.418714164989069]",,,,,,,,,,,,,,,,,,,,,s181_10132022,001,2022_Oct_13_1535,test_typingtask_norepeats,2020.2.10,59.74914166635238,
slime,slime,0,2,2,2,,,,,,,,,"['s', 'l', 'i', 'm', 'e']",1,"[0.7506615270394832, 0.838697626022622, 0.9747330330428667, 1.086768570006825, 1.1906981299980544]",,,,,,,,,,,,,,,,,,,,,s181_10132022,001,2022_Oct_13_1535,test_typingtask_norepeats,2020.2.10,59.74914166635238,
buddy,buddy,,,,,0,0,0,0,,,,,,,,2705.1097287419834,None,"['b', 'u', 'd', 'd', 'y']",1,"[1.1917982809827663, 1.30374883802142, 1.3918640210176818, 1.5197689380147494, 1.6158825980382971]",2705.1097287419834,None,2705.102999576001,2705.203042848967,,,,,,,,,,,,s181_10132022,001,2022_Oct_13_1535,test_typingtask_norepeats,2020.2.10,59.74914166635238,
lucky,lucky,,,,,0,1,1,1,,,,,,,,2710.619626692962,None,"['l', 'u', 'c', 'k', 'y']",1,"[0.6739760909695178, 0.8499270099564455, 0.9619926209561527, 1.0659702839911915, 1.2419860309455544]",2710.619626692962,None,2710.6193977089542,2710.719486902992,,,,,,,,,,,,s181_10132022,001,2022_Oct_13_1535,test_typingtask_norepeats,2020.2.10,59.74914166635238,
would,would,,,,,0,2,2,2,,,,,,,,2716.11943618895,None,"['w', 'o', 'u', 'l', 'd']",1,"[0.6861748379888013, 0.8060615760041401, 0.8701186370453797, 1.0141495279967785, 1.0861285470309667]",2716.11943618895,None,2716.1194557939716,2716.219769125979,,,,,,,,,,,,s181_10132022,001,2022_Oct_13_1535,test_typingtask_norepeats,2020.2.10,59.74914166635238,
edthe,edthe,,,,,0,3,3,3,,,,,,,,2721.619563456974,None,"['e', 'd', 't', 'h', 'e']",1,"[0.922039486002177, 1.0819686310132965, 1.290005379007198, 1.417921471002046, 1.5059337239945307]",2721.619563456974,None,2721.619529229979,2721.7193763129762,,,,,,,,,,,,s181_10132022,001,2022_Oct_13_1535,test_typingtask_norepeats,2020.2.10,59.74914166635238,
heond,heond,,,,,0,4,4,4,,,,,,,,2727.119558923994,None,"['h', 'e', 'o', 'n', 'd']",1,"[1.006052584038116, 1.1099598259897903, 1.270053098036442, 1.6300421970081516, 1.774038408009801]",2727.119558923994,None,2727.119629534992,2727.219444541959,,,,,,,,,,,,s181_10132022,001,2022_Oct_13_1535,test_typingtask_norepeats,2020.2.10,59.74914166635238,
vanru,vanru,,,,,0,5,5,5,,,,,,,,2732.619690598978,None,"['v', 'a', 'n', 'r', 'u']",1,"[1.2337978379800916, 1.321876086993143, 1.4177995159989223, 1.5299354110029526, 1.6419772650115192]",2732.619690598978,None,2732.619555361959,2732.719904775964,,,,,,,,,,,,s181_10132022,001,2022_Oct_13_1535,test_typingtask_norepeats,2020.2.10,59.74914166635238,
there,there,,,,,0,6,6,6,,,,,,,,2738.1197433189955,None,"['t', 'h', 'e', 'r', 'e']",1,"[0.7018594319815747, 0.7898316420032643, 0.8538030189811252, 0.925733046955429, 1.0138630119618028]",2738.1197433189955,None,2738.1194333939757,2738.2195095049683,,,,,,,,,,,,s181_10132022,001,2022_Oct_13_1535,test_typingtask_norepeats,2020.2.10,59.74914166635238,
pykka,pykka,,,,,0,7,7,7,,,,,,,,2743.6360357829835,None,"['p', 'y', 'k', 'k', 'a']",1,"[0.9855729240225628, 1.1934618210070767, 1.8174537990125827, 1.9375600140192546, 2.0335358799784444]",2743.6360357829835,None,2743.636055118969,2743.7363285469473,,,,,,,,,,,,s181_10132022,001,2022_Oct_13_1535,test_typingtask_norepeats,2020.2.10,59.74914166635238,
theme,theme,,,,,0,8,8,8,,,,,,,,2749.1360168819665,None,"['t', 'h', 'e', 'm', 'e']",1,"[0.7174704589997418, 0.7895293619949371, 0.8775349500356242, 0.9895508220070042, 1.053614433039911]",2749.1360168819665,None,2749.136149017996,2749.236771369993,,,,,,,,,,,,s181_10132022,001,2022_Oct_13_1535,test_typingtask_norepeats,2020.2.10,59.74914166635238,
haole,haole,,,,,0,9,9,9,,,,,,,,2754.6362038679654,None,"['h', 'a', 'o', 'l', 'e']",1,"[0.8413882129825652, 0.9374083139700815, 1.1053452090127394, 1.281297640001867, 1.3852857400197536]",2754.6362038679654,None,2754.6363110839566,2754.7362641939544,,,,,,,,,,,,s181_10132022,001,2022_Oct_13_1535,test_typingtask_norepeats,2020.2.10,59.74914166635238,
there,there,,,,,0,10,10,10,,,,,,,,2760.136370608001,None,"['t', 'h', 'e', 'r', 'e']",1,"[0.6691750980098732, 0.7412370269885287, 0.8052338099805638, 0.8852271820069291, 0.9651661880197935]",2760.136370608001,None,2760.13604355398,2760.2361319449847,,,,,,,,,,,,s181_10132022,001,2022_Oct_13_1535,test_typingtask_norepeats,2020.2.10,59.74914166635238,
cooed,cooed,,,,,0,11,11,11,,,,,,,,2765.6363557860022,None,"['c', 'o', 'o', 'e', 'd']",1,"[0.801137775008101, 0.9692462740349583, 1.09721196902683, 1.2011210540076718, 1.3532580350292847]",2765.6363557860022,None,2765.6360589639926,2765.73656901496,,,,,,,,,,,,s181_10132022,001,2022_Oct_13_1535,test_typingtask_norepeats,2020.2.10,59.74914166635238,
champ,champ,,,,,0,12,12,12,,,,,,,,2771.136264010973,None,"['c', 'h', 'a', 'm', 'p']",1,"[0.7172200359636918, 0.7972807429614477, 0.8693394970032386, 0.9812664809869602, 1.117216193000786]",2771.136264010973,None,2771.136139256979,2771.236053520988,,,,,,,,,,,,s181_10132022,001,2022_Oct_13_1535,test_typingtask_norepeats,2020.2.10,59.74914166635238,
buddy,buddy,,,,,0,13,13,13,,,,,,,,2776.6361425839714,None,"['b', 'u', 'd', 'd', 'y']",1,"[0.9534749999875203, 1.0574128690059297, 1.1534392230096273, 1.2813687219750136, 1.393373741011601]",2776.6361425839714,None,2776.636337034969,2776.736283315986,,,,,,,,,,,,s181_10132022,001,2022_Oct_13_1535,test_typingtask_norepeats,2020.2.10,59.74914166635238,
faqir,faqir,,,,,0,14,14,14,,,,,,,,2782.1364094649907,None,"['f', 'a', 'q', 'i', 'r']",1,"[0.9011631850153208, 0.9810740970424376, 1.2370720710023306, 1.6050712460419163, 1.7410703930072486]",2782.1364094649907,None,2782.1362445879904,2782.236503936001,,,,,,,,,,,,s181_10132022,001,2022_Oct_13_1535,test_typingtask_norepeats,2020.2.10,59.74914166635238,
therm,therm,,,,,0,15,15,15,,,,,,,,2787.6363616169547,None,"['t', 'h', 'e', 'r', 'm']",1,"[0.793111052014865, 0.9051918309996836, 0.9771114100003615, 1.057234428008087, 1.193116600974463]",2787.6363616169547,None,2787.6363541110013,2787.7361849659937,,,,,,,,,,,,s181_10132022,001,2022_Oct_13_1535,test_typingtask_norepeats,2020.2.10,59.74914166635238,
zibja,zibja,,,,,0,16,16,16,,,,,,,,2793.150736962969,None,"['z', 'i', 'b', 'j', 'a']",1,"[1.1188185960054398, 1.2787744450033642, 1.478741629049182, 1.8867229649913497, 1.982823949016165]",2793.150736962969,None,2793.1363238659515,2793.236498320999,,,,,,,,,,,,s181_10132022,001,2022_Oct_13_1535,test_typingtask_norepeats,2020.2.10,59.74914166635238,
think,think,,,,,0,17,17,17,,,,,,,,2798.6360351999756,None,"['t', 'h', 'i', 'n', 'k']",1,"[0.6574415710056201, 0.7215476040146314, 0.8338237199932337, 0.9615263710147701, 1.0254314260091633]",2798.6360351999756,None,2798.6363022779524,2798.736313542002,,,,,,,,,,,,s181_10132022,001,2022_Oct_13_1535,test_typingtask_norepeats,2020.2.10,59.74914166635238,
lucky,lucky,,,,,0,18,18,18,,,,,,,,2804.138492272992,None,"['l', 'u', 'c', 'k', 'y']",1,"[0.707088636001572, 0.883114613010548, 0.9231244700495154, 1.05908067204291, 1.251170989999082]",2804.138492272992,None,2804.136546332954,2804.236221025989,,,,,,,,,,,,s181_10132022,001,2022_Oct_13_1535,test_typingtask_norepeats,2020.2.10,59.74914166635238,
puppy,puppy,,,,,0,19,19,19,,,,,,,,2809.652799140953,None,"['p', 'u', 'p', 'p', 'y']",1,"[0.8248067350359634, 0.9688054540310986, 1.1448244969942607, 1.2647556090378202, 1.4247962409863248]",2809.652799140953,None,2809.652981190983,2809.752960287966,,,,,,,,,,,,s181_10132022,001,2022_Oct_13_1535,test_typingtask_norepeats,2020.2.10,59.74914166635238,
champ,champ,,,,,0,20,20,20,,,,,,,,2815.153019657999,None,"['c', 'h', 'a', 'm', 'p']",1,"[0.644511535007041, 0.7244744120398536, 0.804537064046599, 0.908609182049986, 1.0285705650458112]",2815.153019657999,None,2815.152944885992,2815.252897012979,,,,,,,,,,,,s181_10132022,001,2022_Oct_13_1535,test_typingtask_norepeats,2020.2.10,59.74914166635238,
cooed,cooed,,,,,0,21,21,21,,,,,,,,2820.653057699965,None,"['c', 'o', 'o', 'e', 'd']",1,"[0.7124448359827511, 0.856531556986738, 0.9764192729489878, 1.056538056989666, 1.208577475976199]",2820.653057699965,None,2820.652781105001,2820.75293779996,,,,,,,,,,,,s181_10132022,001,2022_Oct_13_1535,test_typingtask_norepeats,2020.2.10,59.74914166635238,
kremp,kremp,,,,,0,22,22,22,,,,,,,,2826.153004613996,None,"['k', 'r', 'e', 'm', 'p']",1,"[1.0845366080175154, 1.172544781002216, 1.2526055140187964, 1.3405451300204732, 1.460518862993922]",2826.153004613996,None,2826.152909971989,2826.2528123219963,,,,,,,,,,,,s181_10132022,001,2022_Oct_13_1535,test_typingtask_norepeats,2020.2.10,59.74914166635238,
belly,belly,,,,,0,23,23,23,,,,,,,,2831.6530304219923,None,"['b', 'e', 'l', 'l', 'y']",1,"[0.7925499060074799, 0.8564543959801085, 0.9684288559947163, 1.0965435940306634, 1.248481502989307]",2831.6530304219923,None,2831.6528510780017,2831.7527803999837,,,,,,,,,,,,s181_10132022,001,2022_Oct_13_1535,test_typingtask_norepeats,2020.2.10,59.74914166635238,
theme,theme,,,,,0,24,24,24,,,,,,,,2837.153115491965,None,"['t', 'h', 'e', 'm', 'e']",1,"[0.6603869820246473, 0.7403709689970128, 0.8205065280199051, 0.9244916400057264, 0.9964781239978038]",2837.153115491965,None,2837.1529770409516,2837.2527414259966,,,,,,,,,,,,s181_10132022,001,2022_Oct_13_1535,test_typingtask_norepeats,2020.2.10,59.74914166635238,
edthe,edthe,,,,,0,25,25,25,,,,,,,,2842.6531554620015,None,"['e', 'd', 't', 'h', 'e']",1,"[0.7923505819635466, 0.9603273579850793, 1.1124030459905043, 1.2084157099598087, 1.272401602996979]",2842.6531554620015,None,2842.6530776559784,2842.753024742997,,,,,,,,,,,,s181_10132022,001,2022_Oct_13_1535,test_typingtask_norepeats,2020.2.10,59.74914166635238,
therm,therm,,,,,0,26,26,26,,,,,,,,2848.153201880981,None,"['t', 'h', 'e', 'r', 'm']",1,"[0.692317143024411, 0.756362161017023, 0.8523335960344411, 0.9244404220371507, 1.0043575830059126]",2848.153201880981,None,2848.153097852989,2848.2531376999686,,,,,,,,,,,,s181_10132022,001,2022_Oct_13_1535,test_typingtask_norepeats,2020.2.10,59.74914166635238,
tithe,tithe,,,,,0,27,27,27,,,,,,,,2853.6530402249773,None,"['t', 'i', 't', 'h', 'e']",1,"[0.7685726819909178, 0.8565246830112301, 0.9366330479970202, 1.0245150679838844, 1.088541958015412]",2853.6530402249773,None,2853.6529035789836,2853.7530267999973,,,,,,,,,,,,s181_10132022,001,2022_Oct_13_1535,test_typingtask_norepeats,2020.2.10,59.74914166635238,
pykka,pykka,,,,,0,28,28,28,,,,,,,,2859.1532859059516,None,"['p', 'y', 'k', 'k', 'a']",1,"[0.9961932079750113, 1.188199786003679, 1.5241960639832541, 1.6523205299745314, 1.7562071779975668]",2859.1532859059516,None,2859.1531275569987,2859.2529860310024,,,,,,,,,,,,s181_10132022,001,2022_Oct_13_1535,test_typingtask_norepeats,2020.2.10,59.74914166635238,
about,about,,,,,0,29,29,29,,,,,,,,2864.6528996059787,None,"['a', 'b', 'o', 'u', 't']",1,"[0.6567036839551292, 0.7526766189839691, 0.8966856729821302, 0.9287190839531831, 1.0326691700029187]",2864.6528996059787,None,2864.653166883957,2864.7529239419964,,,,,,,,,,,,s181_10132022,001,2022_Oct_13_1535,test_typingtask_norepeats,2020.2.10,59.74914166635238,
theme,theme,,,,,0,30,30,30,,,,,,,,2870.1529394409736,None,"['t', 'h', 'e', 'm', 'e']",1,"[0.6206331580178812, 0.7086534870322794, 0.7806564530474134, 0.8926134959910996, 0.9406660890090279]",2870.1529394409736,None,2870.152992358996,2870.2529409650015,,,,,,,,,,,,s181_10132022,001,2022_Oct_13_1535,test_typingtask_norepeats,2020.2.10,59.74914166635238,
cheer,cheer,,,,,0,31,31,31,,,,,,,,2875.6530026329565,None,"['c', 'h', 'e', 'e', 'r']",1,"[0.624555499991402, 0.7124673899961635, 0.8085587329696864, 0.9365722559741698, 1.0724914079764858]",2875.6530026329565,None,2875.6530342579763,2875.7530821749824,,,,,,,,,,,,s181_10132022,001,2022_Oct_13_1535,test_typingtask_norepeats,2020.2.10,59.74914166635238,
lucky,lucky,,,,,0,32,32,32,,,,,,,,2881.153039748955,None,"['l', 'u', 'c', 'k', 'y']",1,"[0.6764518119744025, 0.844558116979897, 0.9004545909701847, 1.0285236630006693, 1.1964729169849306]",2881.153039748955,None,2881.1529948319485,2881.2530561559834,,,,,,,,,,,,s181_10132022,001,2022_Oct_13_1535,test_typingtask_norepeats,2020.2.10,59.74914166635238,
therm,therm,,,,,0,33,33,33,,,,,,,,2886.653015928983,None,"['t', 'h', 'e', 'r', 'm']",1,"[0.6565854320069775, 0.7365303669939749, 0.8245889649842866, 0.8885500530013815, 1.0004595100181177]",2886.653015928983,None,2886.652867968992,2886.753006930987,,,,,,,,,,,,s181_10132022,001,2022_Oct_13_1535,test_typingtask_norepeats,2020.2.10,59.74914166635238,
puppy,puppy,,,,,0,34,34,34,,,,,,,,2892.1532538559986,None,"['p', 'u', 'p', 'p', 'y']",1,"[0.6923127140034921, 0.8202784369932488, 0.9563728410284966, 1.0923038650071248, 1.2523560670088045]",2892.1532538559986,None,2892.1527618899536,2892.2531162980013,,,,,,,,,,,,s181_10132022,001,2022_Oct_13_1535,test_typingtask_norepeats,2020.2.10,59.74914166635238,
heond,heond,,,,,0,35,35,35,,,,,,,,2897.6532191209844,None,"['h', 'e', 'o', 'n', 'd']",1,"[0.992341058969032, 1.0883298059925437, 1.2084104579989798, 1.4083899439428933, 1.504339334962424]",2897.6532191209844,None,2897.6528829229474,2897.752967134991,,,,,,,,,,,,s181_10132022,001,2022_Oct_13_1535,test_typingtask_norepeats,2020.2.10,59.74914166635238,
vodka,vodka,,,,,0,36,36,36,,,,,,,,2903.1530010789866,None,"['v', 'o', 'd', 'k', 'a']",1,"[1.1806120859691873, 1.2604723239783198, 1.3724864440155216, 1.7405520919710398, 1.828528079960961]",2903.1530010789866,None,2903.153056708962,2903.2529256569687,,,,,,,,,,,,s181_10132022,001,2022_Oct_13_1535,test_typingtask_norepeats,2020.2.10,59.74914166635238,
belly,belly,,,,,0,37,37,37,,,,,,,,2908.653036222968,None,"['b', 'e', 'l', 'l', 'y']",1,"[0.704522278974764, 0.7685752579709515, 0.8805643209489062, 1.0004511719453149, 1.1604628309723921]",2908.653036222968,None,2908.653188388952,2908.752912861004,,,,,,,,,,,,s181_10132022,001,2022_Oct_13_1535,test_typingtask_norepeats,2020.2.10,59.74914166635238,
druze,druze,,,,,0,38,38,38,,,,,,,,2914.153162062983,None,"['d', 'r', 'u', 'z', 'e']",1,"[0.9003044220153242, 0.9723242460167967, 1.1324055260047317, 1.4524489680188708, 1.6603183019906282]",2914.153162062983,None,2914.153140256979,2914.253267933964,,,,,,,,,,,,s181_10132022,001,2022_Oct_13_1535,test_typingtask_norepeats,2020.2.10,59.74914166635238,
champ,champ,,,,,0,39,39,39,,,,,,,,2919.6533490629517,None,"['c', 'h', 'a', 'm', 'p']",1,"[0.6802446920191869, 0.752254388993606, 0.8402094169869088, 0.9363209780422039, 1.048204844002612]",2919.6533490629517,None,2919.6530514099695,2919.7531278399983,,,,,,,,,,,,s181_10132022,001,2022_Oct_13_1535,test_typingtask_norepeats,2020.2.10,59.74914166635238,
cheer,cheer,,,,,0,40,40,40,,,,,,,,2925.153137849993,None,"['c', 'h', 'e', 'e', 'r']",1,"[0.660336249973625, 0.7563433839823119, 0.8444486910011619, 0.9804095639847219, 1.108465833007358]",2925.153137849993,None,2925.1532981259925,2925.2531210889574,,,,,,,,,,,,s181_10132022,001,2022_Oct_13_1535,test_typingtask_norepeats,2020.2.10,59.74914166635238,
faqir,faqir,,,,,0,41,41,41,,,,,,,,2930.6528986030025,None,"['f', 'a', 'q', 'i', 'r']",1,"[0.7926191759761423, 0.9045969590079039, 1.1765896530123428, 1.4967012779670767, 1.7206696659559384]",2930.6528986030025,None,2930.6533693099454,2930.7532683069585,,,,,,,,,,,,s181_10132022,001,2022_Oct_13_1535,test_typingtask_norepeats,2020.2.10,59.74914166635238,
tithe,tithe,,,,,0,42,42,42,,,,,,,,2936.153006000968,None,"['t', 'h', 'i', 't', 'h', 'e']",0,"[0.6844793420168571, 0.7645457980106585, 1.628568243002519, 1.7725938759976998, 1.8845359290135093, 1.9405911240028217]",2936.153006000968,None,2936.1531693829866,2936.253377289977,,,,,,,,,,,,s181_10132022,001,2022_Oct_13_1535,test_typingtask_norepeats,2020.2.10,59.74914166635238,
theme,theme,,,,,0,43,43,43,,,,,,,,2941.6698303169687,None,"['t', 'h', 'e', 'm', 'e']",1,"[0.6157592529780231, 0.7037930419901386, 0.7836388599826023, 0.9118287429446355, 0.9518063309951685]",2941.6698303169687,None,2941.669652161986,2941.769836057967,,,,,,,,,,,,s181_10132022,001,2022_Oct_13_1535,test_typingtask_norepeats,2020.2.10,59.74914166635238,
therm,therm,,,,,0,44,44,44,,,,,,,,2947.169766758976,None,"['t', 'h', 'e', 'r', 'm']",1,"[0.6998361090081744, 0.7877300420077518, 0.8677120170323178, 0.9318259910214692, 1.0597231769934297]",2947.169766758976,None,2947.1697650569668,2947.2698047650047,,,,,,,,,,,,s181_10132022,001,2022_Oct_13_1535,test_typingtask_norepeats,2020.2.10,59.74914166635238,
think,think,,,,,0,45,45,45,,,,,,,,2952.6697016949765,None,"['t', 'h', 'i', 'n', 'k']",1,"[0.6237996299751103, 0.6957795899943449, 0.8078970419592224, 0.919838459987659, 1.0478311659535393]",2952.6697016949765,None,2952.669743611984,2952.769758034963,,,,,,,,,,,,s181_10132022,001,2022_Oct_13_1535,test_typingtask_norepeats,2020.2.10,59.74914166635238,
puppy,puppy,,,,,0,46,46,46,,,,,,,,2958.1697246480035,None,"['p', 'u', 'p', 'p', 'y']",1,"[0.6837977639515884, 0.8278422349831089, 1.0118478299700655, 1.1238674229825847, 1.331830650975462]",2958.1697246480035,None,2958.1698337899697,2958.2696784319705,,,,,,,,,,,,s181_10132022,001,2022_Oct_13_1535,test_typingtask_norepeats,2020.2.10,59.74914166635238,
faqir,faqir,,,,,0,47,47,47,,,,,,,,2963.6698535389733,None,"['f', 'q', 'a', 'q', 'i', 'e', 'r']",0,"[0.7676331149996258, 0.9836149910115637, 1.8637177830096334, 2.0556926640565507, 2.2476967210532166, 2.3756489530205727, 2.879751260043122]",2963.6698535389733,None,2963.669906564971,2963.7696954709827,,,,,,,,,,,,s181_10132022,001,2022_Oct_13_1535,test_typingtask_norepeats,2020.2.10,59.74914166635238,
therm,therm,,,,,0,48,48,48,,,,,,,,2969.1863273549825,None,"['t', 'h', 'e', 'r', 'm']",1,"[0.6113149329903536, 0.6912328280159272, 0.7872948999865912, 0.8431612410349771, 0.9472240140312351]",2969.1863273549825,None,2969.186539673986,2969.2865885819774,,,,,,,,,,,,s181_10132022,001,2022_Oct_13_1535,test_typingtask_norepeats,2020.2.10,59.74914166635238,
belly,belly,,,,,0,49,49,49,,,,,,,,2974.686318939959,None,"['b', 'e', 'l', 'l', 'y']",1,"[0.7353116869926453, 0.8072382970131002, 0.9511654889793135, 1.0631991869886406, 1.2231577669735998]",2974.686318939959,None,2974.6863414699737,2974.786555933999,,,,,,,,,,,,s181_10132022,001,2022_Oct_13_1535,test_typingtask_norepeats,2020.2.10,59.74914166635238,
edthe,edthe,,,,,0,50,50,50,,,,,,,,2980.1863713449566,None,"['e', 'd', 't', 'h', 'e']",1,"[0.8112529259524308, 0.9632390890037641, 1.1472241269657388, 1.2671637749881484, 1.3232250069850124]",2980.1863713449566,None,2980.186443964002,2980.286835739971,,,,,,,,,,,,s181_10132022,001,2022_Oct_13_1535,test_typingtask_norepeats,2020.2.10,59.74914166635238,
about,about,,,,,0,51,51,51,,,,,,,,2985.6862754879985,None,"['a', 'b', 'o', 'u', 't']",1,"[0.6473249010159634, 0.7833221710170619, 0.9192720449646004, 0.983328113972675, 1.1193496090127155]",2985.6862754879985,None,2985.68640672699,2985.7865284699947,,,,,,,,,,,,s181_10132022,001,2022_Oct_13_1535,test_typingtask_norepeats,2020.2.10,59.74914166635238,
think,think,,,,,0,52,52,52,,,,,,,,2991.1865975689725,None,"['t', 'h', 'i', 'n', 'k']",1,"[0.6428842149907723, 0.714951507980004, 0.8269089260138571, 0.9309367570094764, 1.0508913850062527]",2991.1865975689725,None,2991.1864858929594,2991.2870207199594,,,,,,,,,,,,s181_10132022,001,2022_Oct_13_1535,test_typingtask_norepeats,2020.2.10,59.74914166635238,
champ,champ,,,,,0,53,53,53,,,,,,,,2996.686694703996,None,"['c', 'h', 'a', 'm', 'p']",1,"[0.6389108640141785, 0.7267868900089525, 0.7988942629890516, 0.9109040640178137, 1.0627969310153276]",2996.686694703996,None,2996.6863194549633,2996.7867289829883,,,,,,,,,,,,s181_10132022,001,2022_Oct_13_1535,test_typingtask_norepeats,2020.2.10,59.74914166635238,
belly,belly,,,,,0,54,54,54,,,,,,,,3002.1867443299852,None,"['b', 'e', 'l', 'l', 'y']",1,"[0.6667414590483531, 0.7308033320005052, 0.8667360090184957, 0.9868267900310457, 1.1627731920452788]",3002.1867443299852,None,3002.186432088999,3002.286333326949,,,,,,,,,,,,s181_10132022,001,2022_Oct_13_1535,test_typingtask_norepeats,2020.2.10,59.74914166635238,
lucky,lucky,,,,,0,55,55,55,,,,,,,,3007.6866074319696,None,"['l', 'u', 'c', 'k', 'y']",1,"[0.623012400988955, 0.8469627680024132, 1.0149886819999665, 1.1190285049960949, 1.3190013309940696]",3007.6866074319696,None,3007.686460732989,3007.786752925953,,,,,,,,,,,,s181_10132022,001,2022_Oct_13_1535,test_typingtask_norepeats,2020.2.10,59.74914166635238,
vanru,vanru,,,,,0,56,56,56,,,,,,,,3013.186553354957,None,"['v', 'a', 'n', 'r', 'u']",1,"[0.9470411210204475, 1.0190544149954803, 1.1629954800009727, 1.2909993620123714, 1.4109928359976038]",3013.186553354957,None,3013.1864548789863,3013.286372013972,,,,,,,,,,,,s181_10132022,001,2022_Oct_13_1535,test_typingtask_norepeats,2020.2.10,59.74914166635238,
would,would,,,,,0,57,57,57,,,,,,,,3018.68678383698,None,"['w', 'o', 'u', 'l', 'd']",1,"[0.7908596770139411, 0.8947621340048499, 0.9427051310194656, 1.1027709969785064, 1.2068208489799872]",3018.68678383698,None,3018.686688921979,3018.7866080909735,,,,,,,,,,,,s181_10132022,001,2022_Oct_13_1535,test_typingtask_norepeats,2020.2.10,59.74914166635238,
kremp,kremp,,,,,0,58,58,58,,,,,,,,3024.1866942169727,None,"['k', 'r', 'e', 'm', 'p']",1,"[1.0188886189716868, 1.1068556500249542, 1.1628200390259735, 1.2828684850246646, 1.4108785819844343]",3024.1866942169727,None,3024.1867655469514,3024.2866867929697,,,,,,,,,,,,s181_10132022,001,2022_Oct_13_1535,test_typingtask_norepeats,2020.2.10,59.74914166635238,
tithe,tithe,,,,,0,59,59,59,,,,,,,,3029.6866087740054,None,"['t', 'i', 't', 'h', 'e']",1,"[0.7268968319986016, 0.8149159129825421, 0.9268527999520302, 1.070940860954579, 1.1508690089685842]",3029.6866087740054,None,3029.6867434009737,3029.7866903989925,,,,,,,,,,,,s181_10132022,001,2022_Oct_13_1535,test_typingtask_norepeats,2020.2.10,59.74914166635238,
cooed,cooed,,,,,0,60,60,60,,,,,,,,3035.186685548979,None,"['c', 'o', 'o', 'e', 'd']",1,"[0.7068870619987138, 0.8587579830200411, 0.9708429560414515, 1.082817706046626, 1.2188814820256084]",3035.186685548979,None,3035.1864877909948,3035.286761447962,,,,,,,,,,,,s181_10132022,001,2022_Oct_13_1535,test_typingtask_norepeats,2020.2.10,59.74914166635238,
there,there,,,,,0,61,61,61,,,,,,,,3040.6865634179558,None,"['t', 'h', 'e', 'r', 'e']",1,"[0.6950100120157003, 0.7589253190089948, 0.8390428880229592, 0.8950428440002725, 0.9989898310159333]",3040.6865634179558,None,3040.6867271139463,3040.7866290029488,,,,,,,,,,,,s181_10132022,001,2022_Oct_13_1535,test_typingtask_norepeats,2020.2.10,59.74914166635238,
puppy,puppy,,,,,0,62,62,62,,,,,,,,3046.186463131977,None,"['p', 'u', 'p', 'p', 'y']",1,"[0.6911414499627426, 0.8510219620075077, 1.0590131710050628, 1.1790803289623, 1.3390298199956305]",3046.186463131977,None,3046.1865585989844,3046.286660349986,,,,,,,,,,,,s181_10132022,001,2022_Oct_13_1535,test_typingtask_norepeats,2020.2.10,59.74914166635238,
theme,theme,,,,,0,63,63,63,,,,,,,,3051.6865925649763,None,"['t', 'h', 'e', 'r', 'm', 'e']",0,"[0.6230010759900324, 0.6870118619990535, 0.7669064389774576, 0.86292541900184, 1.3748967939754948, 1.4629421990248375]",3051.6865925649763,None,3051.686535239959,3051.7866896729684,,,,,,,,,,,,s181_10132022,001,2022_Oct_13_1535,test_typingtask_norepeats,2020.2.10,59.74914166635238,
belly,belly,,,,,0,64,64,64,,,,,,,,3057.2032300839783,None,"['b', 'e', 'l', 'l', 'y']",1,"[0.7223232610267587, 0.8182543970178813, 0.9222594529855996, 1.0422672919812612, 1.2023759770090692]",3057.2032300839783,None,3057.2030918929786,3057.303245682968,,,,,,,,,,,,s181_10132022,001,2022_Oct_13_1535,test_typingtask_norepeats,2020.2.10,59.74914166635238,
druze,druze,,,,,0,65,65,65,,,,,,,,3062.703425796004,None,"['d', 'r', 'u', 'z', 'e']",1,"[1.2061820439994335, 1.3260622149682604, 1.4701614449732006, 1.702178235980682, 1.8941480499925092]",3062.703425796004,None,3062.703164905991,3062.803176157002,,,,,,,,,,,,s181_10132022,001,2022_Oct_13_1535,test_typingtask_norepeats,2020.2.10,59.74914166635238,
cheer,cheer,,,,,0,66,66,66,,,,,,,,3068.203273727966,None,"['c', 'h', 'e', 'e', 'r']",1,"[0.7142440970055759, 0.7942739999853075, 0.8903230429859832, 1.0183064480079338, 1.1462757549597882]",3068.203273727966,None,3068.203357300995,3068.303117566975,,,,,,,,,,,,s181_10132022,001,2022_Oct_13_1535,test_typingtask_norepeats,2020.2.10,59.74914166635238,
think,think,,,,,0,67,67,67,,,,,,,,3073.7034955099807,None,"['t', 'h', 'i', 'n', 'k']",1,"[0.7419760630000383, 0.7979819409665652, 0.9099713309551589, 0.9980533229536377, 1.0940084579633549]",3073.7034955099807,None,3073.7033645659512,3073.8032668549567,,,,,,,,,,,,s181_10132022,001,2022_Oct_13_1535,test_typingtask_norepeats,2020.2.10,59.74914166635238,
edthe,edthe,,,,,0,68,68,68,,,,,,,,3079.2039784789667,None,"['e', 'd', 't', 'h', 'e']",1,"[0.8015813539968804, 0.9616036950028501, 1.129622116975952, 1.2495299800066277, 1.3295864629908465]",3079.2039784789667,None,3079.203509647964,3079.3033542420017,,,,,,,,,,,,s181_10132022,001,2022_Oct_13_1535,test_typingtask_norepeats,2020.2.10,59.74914166635238,
heond,heond,,,,,0,69,69,69,,,,,,,,3084.7036991060013,None,"['h', 'e', 'o', 'n', 'd']",1,"[0.9098394729662687, 1.005916220950894, 1.109793877985794, 1.261884666979313, 1.3658967569936067]",3084.7036991060013,None,3084.703295757977,3084.803602440981,,,,,,,,,,,,s181_10132022,001,2022_Oct_13_1535,test_typingtask_norepeats,2020.2.10,59.74914166635238,
faqir,faqir,,,,,0,70,70,70,,,,,,,,3090.2034332019975,None,"['f', 'a', 'q', 'i', 'r']",1,"[0.7460853159427643, 1.058138185995631, 1.434037720959168, 1.610066013992764, 1.8100410629995167]",3090.2034332019975,None,3090.2034236299633,3090.3033941329923,,,,,,,,,,,,s181_10132022,001,2022_Oct_13_1535,test_typingtask_norepeats,2020.2.10,59.74914166635238,
buddy,buddy,,,,,0,71,71,71,,,,,,,,3095.703231286956,None,"['b', 'u', 'd', 'd', 'y']",1,"[0.8863149150274694, 1.0143212989787571, 1.1743154569994658, 1.2864562069880776, 1.4463221930200234]",3095.703231286956,None,3095.703475735948,3095.803433077992,,,,,,,,,,,,s181_10132022,001,2022_Oct_13_1535,test_typingtask_norepeats,2020.2.10,59.74914166635238,
vanru,vanru,,,,,0,72,72,72,,,,,,,,3101.2034511269885,None,"['v', 'a', 'n', 'r', 'u']",1,"[0.9541224529966712, 1.026026453007944, 1.13815243501449, 1.2741521219722927, 1.3861078590271063]",3101.2034511269885,None,3101.203218779975,3101.3033264909755,,,,,,,,,,,,s181_10132022,001,2022_Oct_13_1535,test_typingtask_norepeats,2020.2.10,59.74914166635238,
cheer,cheer,,,,,0,73,73,73,,,,,,,,3106.7032696289825,None,"['c', 'h', 'e', 'e', 'r']",1,"[0.6143044930067845, 0.6862921259598807, 0.798221819975879, 0.9342171179596335, 1.0543007259839214]",3106.7032696289825,None,3106.703263489978,3106.803550568002,,,,,,,,,,,,s181_10132022,001,2022_Oct_13_1535,test_typingtask_norepeats,2020.2.10,59.74914166635238,
about,about,,,,,0,74,74,74,,,,,,,,3112.2031450859504,None,"['a', 'b', 'o', 'u', 't']",1,"[0.586521404038649, 0.7064676220179535, 0.8184044749941677, 0.8664031199878082, 1.0183425910072401]",3112.2031450859504,None,3112.2031842559636,3112.3035614819964,,,,,,,,,,,,s181_10132022,001,2022_Oct_13_1535,test_typingtask_norepeats,2020.2.10,59.74914166635238,
cooed,cooed,,,,,0,75,75,75,,,,,,,,3117.7033976829844,None,"['c', 'o', 'o', 'e', 'd']",1,"[0.6782068889588118, 0.8301962429541163, 0.9661681459983811, 1.054165932990145, 1.2141645060037263]",3117.7033976829844,None,3117.703661987948,3117.803735498979,,,,,,,,,,,,s181_10132022,001,2022_Oct_13_1535,test_typingtask_norepeats,2020.2.10,59.74914166635238,
tithe,tithe,,,,,0,76,76,76,,,,,,,,3123.203420816979,None,"['t', 'i', 't', 'h', 'e']",1,"[0.7701957339886576, 0.8661558460444212, 0.954152882040944, 1.0501084540155716, 1.1381849210010841]",3123.203420816979,None,3123.2032568119876,3123.3037235490046,,,,,,,,,,,,s181_10132022,001,2022_Oct_13_1535,test_typingtask_norepeats,2020.2.10,59.74914166635238,
vodka,vodka,,,,,0,77,77,77,,,,,,,,3128.7035075519816,None,"['v', 'o', 'd', 'k', 'a']",1,"[0.9420738610206172, 1.0541115950327367, 1.1339597910409793, 1.3660348060075194, 1.4861001360113733]",3128.7035075519816,None,3128.703300613951,3128.8033748469898,,,,,,,,,,,,s181_10132022,001,2022_Oct_13_1535,test_typingtask_norepeats,2020.2.10,59.74914166635238,
pykka,pykka,,,,,0,78,78,78,,,,,,,,3134.2034388049506,None,"['p', 'y', 'k', 'k', 'a']",1,"[0.890107047976926, 1.0981111419969238, 1.4901144480099902, 1.6100384420133196, 1.7301338769611903]",3134.2034388049506,None,3134.203368640953,3134.303363752959,,,,,,,,,,,,s181_10132022,001,2022_Oct_13_1535,test_typingtask_norepeats,2020.2.10,59.74914166635238,
heond,heond,,,,,0,79,79,79,,,,,,,,3139.7033811989822,None,"['h', 'e', 'o', 'n', 'd']",1,"[0.8701739899697714, 0.9421725519932806, 1.022164198977407, 1.1741869850084186, 1.2621186850010417]",3139.7033811989822,None,3139.703456376953,3139.8036317019723,,,,,,,,,,,,s181_10132022,001,2022_Oct_13_1535,test_typingtask_norepeats,2020.2.10,59.74914166635238,
pykka,pykka,,,,,0,80,80,80,,,,,,,,3145.2034418580006,None,"['p', 'y', 'k', 'k', 'a']",1,"[0.7061453959904611, 0.882099776994437, 1.1781636420055293, 1.3060385070275515, 1.426042757986579]",3145.2034418580006,None,3145.2034521599826,3145.3031899099587,,,,,,,,,,,,s181_10132022,001,2022_Oct_13_1535,test_typingtask_norepeats,2020.2.10,59.74914166635238,
puppy,puppy,,,,,0,81,81,81,,,,,,,,3150.703704558953,None,"['p', 'u', 'p', 'p', 'y']",1,"[0.6617811629548669, 0.7978133449796587, 0.9418446379713714, 1.0699210919556208, 1.2379021460074]",3150.703704558953,None,3150.7034565889453,3150.8034930189606,,,,,,,,,,,,s181_10132022,001,2022_Oct_13_1535,test_typingtask_norepeats,2020.2.10,59.74914166635238,
think,think,,,,,0,82,82,82,,,,,,,,3156.2033952919883,None,"['t', 'h', 'i', 'n', 'k']",1,"[0.690154665033333, 0.7542208090308122, 0.8582026400254108, 0.9622137740370817, 1.0501515250070952]",3156.2033952919883,None,3156.203727256955,3156.3036578989704,,,,,,,,,,,,s181_10132022,001,2022_Oct_13_1535,test_typingtask_norepeats,2020.2.10,59.74914166635238,
cooed,cooed,,,,,0,83,83,83,,,,,,,,3161.703330742952,None,"['c', 'o', 'o', 'e', 'd']",1,"[1.0142301000305451, 1.1261583020095713, 1.2622925890027545, 1.3502588780247606, 1.50223508203635]",3161.703330742952,None,3161.7035024499464,3161.8037171989563,,,,,,,,,,,,s181_10132022,001,2022_Oct_13_1535,test_typingtask_norepeats,2020.2.10,59.74914166635238,
kremp,kremp,,,,,0,84,84,84,,,,,,,,3167.203495914,None,"['k', 'r', 'e', 'm', 'p']",1,"[0.9059943869942799, 0.994013799005188, 1.058101084025111, 1.130063058983069, 1.2339900450315326]",3167.203495914,None,3167.203545098001,3167.3034911019495,,,,,,,,,,,,s181_10132022,001,2022_Oct_13_1535,test_typingtask_norepeats,2020.2.10,59.74914166635238,
faqir,faqir,,,,,0,85,85,85,,,,,,,,3172.7033214839757,None,"['f', 'a', 'q', 'i', 'r']",1,"[0.7261574600124732, 0.8142472060280852, 1.078305859991815, 1.238271915994119, 1.4461948390235193]",3172.7033214839757,None,3172.7034408289883,3172.8034316029516,,,,,,,,,,,,s181_10132022,001,2022_Oct_13_1535,test_typingtask_norepeats,2020.2.10,59.74914166635238,
lucky,lucky,,,,,0,86,86,86,,,,,,,,3178.2032834739657,None,"['l', 'u', 'c', 'k', 'y']",1,"[0.5942031939630397, 0.7702665479737334, 0.8423041919595562, 0.9622742659994401, 1.1462305859895423]",3178.2032834739657,None,3178.2033924669786,3178.303548464959,,,,,,,,,,,,s181_10132022,001,2022_Oct_13_1535,test_typingtask_norepeats,2020.2.10,59.74914166635238,
haole,haole,,,,,0,87,87,87,,,,,,,,3183.703417897981,None,"['f', 'a', 'o', 'l', 'e']",0,"[0.774179229978472, 0.8701913140248507, 1.9024328090017661, 2.078155583993066, 2.1821856609894894]",3183.703417897981,None,3183.7035594399613,3183.8035120620043,,,,,,,,,,,,s181_10132022,001,2022_Oct_13_1535,test_typingtask_norepeats,2020.2.10,59.74914166635238,
zibja,zibja,,,,,0,88,88,88,,,,,,,,3189.2201312619727,None,"['z', 'i', 'b', 'j', 'a']",1,"[1.097468674997799, 1.249454737000633, 1.4254595020320266, 1.6494433869956993, 1.7694787899963558]",3189.2201312619727,None,3189.2201838629962,3189.3203232059604,,,,,,,,,,,,s181_10132022,001,2022_Oct_13_1535,test_typingtask_norepeats,2020.2.10,59.74914166635238,
haole,haole,,,,,0,89,89,89,,,,,,,,3194.7202704399824,None,"['h', 'a', 'o', 'l', 'e']",1,"[1.069409422983881, 1.1973138009780087, 1.581259203958325, 1.7493418979574926, 1.8533526620012708]",3194.7202704399824,None,3194.7201033279825,3194.820361741993,,,,,,,,,,,,s181_10132022,001,2022_Oct_13_1535,test_typingtask_norepeats,2020.2.10,59.74914166635238,
would,would,,,,,0,90,90,90,,,,,,,,3200.2205700079794,None,"['w', 'o', 'u', 'l', 'd']",1,"[0.6889784609666094, 0.7689956270041876, 0.8169551989994943, 0.9690684289671481, 1.057022609980777]",3200.2205700079794,None,3200.220691954991,3200.320414492977,,,,,,,,,,,,s181_10132022,001,2022_Oct_13_1535,test_typingtask_norepeats,2020.2.10,59.74914166635238,
haole,haole,,,,,0,91,91,91,,,,,,,,3205.7202567259665,None,"['h', 'a', 'o', 'l', 'e']",1,"[0.8053487180150114, 0.8772160400403664, 0.9812911199987866, 1.149262779043056, 1.2372086730320007]",3205.7202567259665,None,3205.7202965389997,3205.8204004219733,,,,,,,,,,,,s181_10132022,001,2022_Oct_13_1535,test_typingtask_norepeats,2020.2.10,59.74914166635238,
edthe,edthe,,,,,0,92,92,92,,,,,,,,3211.220243838965,None,"['e', 'd', 't', 'h', 'e']",1,"[0.7133440629695542, 0.8653120470116846, 1.0573868369683623, 1.1693634919938631, 1.2493375319754705]",3211.220243838965,None,3211.220202162961,3211.320677833981,,,,,,,,,,,,s181_10132022,001,2022_Oct_13_1535,test_typingtask_norepeats,2020.2.10,59.74914166635238,
tithe,tithe,,,,,0,93,93,93,,,,,,,,3216.7201308529475,None,"['t', 'i', 't', 'h', 'e']",1,"[0.8293788519804366, 0.9254770780098625, 1.0214879360282794, 1.1173534900299273, 1.1974652080098167]",3216.7201308529475,None,3216.7203082269816,3216.820514931984,,,,,,,,,,,,s181_10132022,001,2022_Oct_13_1535,test_typingtask_norepeats,2020.2.10,59.74914166635238,
would,would,,,,,0,94,94,94,,,,,,,,3222.2201140549732,None,"['w', 'o', 'u', 'l', 'd']",1,"[0.5374423149623908, 0.6254034659941681, 0.6734902529860847, 0.8173702219501138, 0.897451483993791]",3222.2201140549732,None,3222.220277831989,3222.320510578982,,,,,,,,,,,,s181_10132022,001,2022_Oct_13_1535,test_typingtask_norepeats,2020.2.10,59.74914166635238,
champ,champ,,,,,0,95,95,95,,,,,,,,3227.7200703760027,None,"['c', 'h', 'a', 'm', 'p']",1,"[0.6615451140096411, 0.7334482520236634, 0.8215485240216367, 0.9174172430066392, 1.0215358950081281]",3227.7200703760027,None,3227.7202825499526,3227.8205301699927,,,,,,,,,,,,s181_10132022,001,2022_Oct_13_1535,test_typingtask_norepeats,2020.2.10,59.74914166635238,
about,about,,,,,0,96,96,96,,,,,,,,3233.220083394961,None,"['a', 'b', 'o', 'u', 't']",1,"[0.6014033689862117, 0.7135002469876781, 0.8173899960238487, 0.8655069560045376, 0.9695343219791539]",3233.220083394961,None,3233.220196977997,3233.3206195529783,,,,,,,,,,,,s181_10132022,001,2022_Oct_13_1535,test_typingtask_norepeats,2020.2.10,59.74914166635238,
would,would,,,,,0,97,97,97,,,,,,,,3238.7201533009647,None,"['w', 'o', 'u', 'l', 'd']",1,"[0.5974514189874753, 0.6614527690107934, 0.7013288729940541, 0.8614257969893515, 0.9334495189832523]",3238.7201533009647,None,3238.720194221981,3238.820411555993,,,,,,,,,,,,s181_10132022,001,2022_Oct_13_1535,test_typingtask_norepeats,2020.2.10,59.74914166635238,
about,about,,,,,0,98,98,98,,,,,,,,3244.2203170569846,None,"['a', 'b', 'o', 'u', 't']",1,"[0.5931843310245313, 0.6972417940269224, 0.7931744109955616, 0.8492876600357704, 0.9532940799836069]",3244.2203170569846,None,3244.2200990709653,3244.320519470959,,,,,,,,,,,,s181_10132022,001,2022_Oct_13_1535,test_typingtask_norepeats,2020.2.10,59.74914166635238,
vanru,vanru,,,,,0,99,99,99,,,,,,,,3249.7206343669677,None,"['v', 'a', 'n', 'r', 'u']",1,"[0.9008578999782912, 0.9888527310104109, 1.1168474450241774, 1.3009443830233067, 1.4288597900304012]",3249.7206343669677,None,3249.720060237957,3249.8207588059595,,,,,,,,,,,,s181_10132022,001,2022_Oct_13_1535,test_typingtask_norepeats,2020.2.10,59.74914166635238,
vodka,vodka,,,,,0,100,100,100,,,,,,,,3255.2202654369758,None,"['v', 'o', 'd', 'k', 'a']",1,"[0.8172718239948153, 0.8973348580184393, 0.9932091279770248, 1.1932166389888152, 1.2973211939679459]",3255.2202654369758,None,3255.219849497994,3255.3205767689506,,,,,,,,,,,,s181_10132022,001,2022_Oct_13_1535,test_typingtask_norepeats,2020.2.10,59.74914166635238,
druze,druze,,,,,0,101,101,101,,,,,,,,3260.7202363029937,None,"['d', 'r', 'u', 'z', 'e']",1,"[0.8053141330019571, 0.8933054499793798, 1.061358509992715, 1.1973494440317154, 1.397335498011671]",3260.7202363029937,None,3260.7201332989907,3260.8203656519763,,,,,,,,,,,,s181_10132022,001,2022_Oct_13_1535,test_typingtask_norepeats,2020.2.10,59.74914166635238,
vanru,vanru,,,,,0,102,102,102,,,,,,,,3266.2203056029975,None,"['v', 'a', 'n', 'r', 'u']",1,"[0.9212372279725969, 0.9932077449630015, 1.1051810549688525, 1.2091755279689096, 1.2891706239897758]",3266.2203056029975,None,3266.220400121977,3266.3208146700053,,,,,,,,,,,,s181_10132022,001,2022_Oct_13_1535,test_typingtask_norepeats,2020.2.10,59.74914166635238,
heond,heond,,,,,0,103,103,103,,,,,,,,3271.7202893850044,None,"['h', 'e', 'o', 'l', 'n', 'd']",0,"[0.9092081879498437, 0.9973105439567007, 1.0613286749576218, 1.2292269219760783, 1.6771899729501456, 1.7812405809527263]",3271.7202893850044,None,3271.7203119299784,3271.820441734977,,,,,,,,,,,,s181_10132022,001,2022_Oct_13_1535,test_typingtask_norepeats,2020.2.10,59.74914166635238,
druze,druze,,,,,0,104,104,104,,,,,,,,3277.2204458529595,None,"['d', 'r', 'u', 'z', 'e']",1,"[0.7531407630303875, 0.8251928630052134, 0.961172424023971, 1.0251949920202605, 1.1531232650158927]",3277.2204458529595,None,3277.220307948982,3277.320814216975,,,,,,,,,,,,s181_10132022,001,2022_Oct_13_1535,test_typingtask_norepeats,2020.2.10,59.74914166635238,
buddy,buddy,,,,,0,105,105,105,,,,,,,,3282.720523908967,None,"['b', 'u', 'd', 'd', 'y']",1,"[0.8769580539665185, 0.9809874820057303, 1.0769555569859222, 1.2049504739698023, 1.3169468119740486]",3282.720523908967,None,3282.720185204974,3282.8206259159488,,,,,,,,,,,,s181_10132022,001,2022_Oct_13_1535,test_typingtask_norepeats,2020.2.10,59.74914166635238,
there,there,,,,,0,106,106,106,,,,,,,,3288.220280407986,None,"['t', 'h', 'e', 'r', 'e']",1,"[0.6333270350005478, 0.6893163659842685, 0.769417795992922, 0.8493473689886741, 0.9373493390157819]",3288.220280407986,None,3288.2203043299787,3288.320595980971,,,,,,,,,,,,s181_10132022,001,2022_Oct_13_1535,test_typingtask_norepeats,2020.2.10,59.74914166635238,
kremp,kremp,,,,,0,107,107,107,,,,,,,,3293.7201537959627,None,"['k', 'r', 'e', 'm', 'p']",1,"[0.9573925470467657, 1.0374461220344529, 1.1093460490228608, 1.149451666045934, 1.2613527310313657]",3293.7201537959627,None,3293.720271621988,3293.820858334948,,,,,,,,,,,,s181_10132022,001,2022_Oct_13_1535,test_typingtask_norepeats,2020.2.10,59.74914166635238,
vodka,vodka,,,,,0,108,108,108,,,,,,,,3299.220239951974,None,"['v', 'o', 'd', 'k', 'a']",1,"[0.8493650670279749, 0.9292825650190935, 1.0333418369991705, 1.2092631940031424, 1.3052409419906326]",3299.220239951974,None,3299.2202929729656,3299.3208889059606,,,,,,,,,,,,s181_10132022,001,2022_Oct_13_1535,test_typingtask_norepeats,2020.2.10,59.74914166635238,
zibja,zibja,,,,,0,109,109,109,,,,,,,,3304.7201913829776,None,"['z', 'i', 'b', 'j', 'a']",1,"[1.0373763949610293, 1.1173317999928258, 1.269385217980016, 1.4453743899939582, 1.5493952370015904]",3304.7201913829776,None,3304.7202739659524,3304.820712513989,,,,,,,,,,,,s181_10132022,001,2022_Oct_13_1535,test_typingtask_norepeats,2020.2.10,59.74914166635238,
pykka,pykka,,,,,0,110,110,110,,,,,,,,3310.2201920449734,None,"['p', 'y', 'k', 'k', 'a']",1,"[0.7293232110096142, 0.8973676970344968, 1.169475629052613, 1.2974013370112516, 1.4012906360439956]",3310.2201920449734,None,3310.220249089977,3310.320661982987,,,,,,,,,,,,s181_10132022,001,2022_Oct_13_1535,test_typingtask_norepeats,2020.2.10,59.74914166635238,
zibja,zibja,,,,,0,111,111,111,,,,,,,,3315.720311366953,None,"['z', 'i', 'b', 'j', 'a']",1,"[0.9332429659552872, 0.9972032379591838, 1.1412436949904077, 1.3171660399530083, 1.437303060956765]",3315.720311366953,None,3315.720406155958,3315.8208330619964,,,,,,,,,,,,s181_10132022,001,2022_Oct_13_1535,test_typingtask_norepeats,2020.2.10,59.74914166635238,
cheer,cheer,,,,,0,112,112,112,,,,,,,,3321.2203006859636,None,"['c', 'h', 'e', 'e', 'r']",1,"[0.6572564710513689, 0.7132235130411573, 0.8333091450040229, 0.9533082990092225, 1.0812286700238474]",3321.2203006859636,None,3321.220169677964,3321.3205272769555,,,,,,,,,,,,s181_10132022,001,2022_Oct_13_1535,test_typingtask_norepeats,2020.2.10,59.74914166635238,
druze,druze,,,,,0,113,113,113,,,,,,,,3326.720350493968,None,"['d', 'r', 'u', 'z', 'e']",1,"[0.789115165011026, 0.9011226249858737, 1.0771409079898149, 1.133254949003458, 1.2611161569948308]",3326.720350493968,None,3326.720206491981,3326.8208152320003,,,,,,,,,,,,s181_10132022,001,2022_Oct_13_1535,test_typingtask_norepeats,2020.2.10,59.74914166635238,
there,there,,,,,0,114,114,114,,,,,,,,3332.220498532988,None,"['t', 'h', 'e', 'r', 'e']",1,"[0.6331178919645026, 0.6970913109835237, 0.7769890819909051, 0.8490657229558565, 0.9451251569553278]",3332.220498532988,None,3332.220252295997,3332.3204160869936,,,,,,,,,,,,s181_10132022,001,2022_Oct_13_1535,test_typingtask_norepeats,2020.2.10,59.74914166635238,
buddy,buddy,,,,,0,115,115,115,,,,,,,,3337.720287326956,None,"['b', 'u', 'd', 'd', 'y']",1,"[1.0772256960044615, 1.1653068590094335, 1.2532675429829396, 1.3812245670123957, 1.4932042619911954]",3337.720287326956,None,3337.7202311549745,3337.820821517962,,,,,,,,,,,,s181_10132022,001,2022_Oct_13_1535,test_typingtask_norepeats,2020.2.10,59.74914166635238,
haole,haole,,,,,0,116,116,116,,,,,,,,3343.220369324961,None,"['h', 'a', 'o', 'l', 'e']",1,"[0.7691602840204723, 0.8571802660007961, 1.2971862489939667, 1.4892255690065213, 1.5931117680156603]",3343.220369324961,None,3343.220380152966,3343.3205302979914,,,,,,,,,,,,s181_10132022,001,2022_Oct_13_1535,test_typingtask_norepeats,2020.2.10,59.74914166635238,
zibja,zibja,,,,,0,117,117,117,,,,,,,,3348.7204088330036,None,"['z', 'i', 'b', 'j', 'a']",1,"[0.9170945180230774, 0.9892020990373567, 1.1092336020083167, 1.2851757980533876, 1.397161302040331]",3348.7204088330036,None,3348.720395917987,3348.821021498996,,,,,,,,,,,,s181_10132022,001,2022_Oct_13_1535,test_typingtask_norepeats,2020.2.10,59.74914166635238,
vodka,vodka,,,,,0,118,118,118,,,,,,,,3354.220918192994,None,"['v', 'o', 'd', 'k', 'a']",1,"[1.128548807988409, 1.232558660034556, 1.4486702950089239, 1.5925693709868938, 1.712687838007696]",3354.220918192994,None,3354.2204745409954,3354.321425192,,,,,,,,,,,,s181_10132022,001,2022_Oct_13_1535,test_typingtask_norepeats,2020.2.10,59.74914166635238,
kremp,kremp,,,,,0,119,119,119,,,,,,,,3359.7203468019725,None,"['k', 'r', 'e', 'm', 'p']",1,"[0.8453491239924915, 0.9252584719797596, 0.9811861640191637, 1.061271745013073, 1.173140573024284]",3359.7203468019725,None,3359.7203509829533,3359.8210537119885,,,,,,,,,,,,s181_10132022,001,2022_Oct_13_1535,test_typingtask_norepeats,2020.2.10,59.74914166635238,
buddy,buddy,,,,,,,,,0,0,0,0,,,,,,,,,,,,,3365.220503902994,None,3474.8946983249625,None,"['b', 'u', 'd', 'd', 'y']",1,"[0.8628706720191985, 0.958903188991826, 1.0709669250063598, 1.1908902259892784, 1.294902038993314]",3474.8946983249625,None,3474.8874699209528,3474.987117330951,s181_10132022,001,2022_Oct_13_1535,test_typingtask_norepeats,2020.2.10,59.74914166635238,
would,would,,,,,,,,,0,1,1,1,,,,,,,,,,,,,,,3480.4039430749835,None,"['w', 'o', 'u', 'l', 'd']",1,"[0.6015938550117426, 0.6736531470087357, 0.7135941710439511, 0.8575448060291819, 0.9296168810105883]",3480.4039430749835,None,3480.403907151992,3480.5036290650023,s181_10132022,001,2022_Oct_13_1535,test_typingtask_norepeats,2020.2.10,59.74914166635238,
zibja,zibja,,,,,,,,,0,2,2,2,,,,,,,,,,,,,,,3485.9038209989667,None,"['z', 'i', 'b', 'j', 'a']",1,"[1.1418014519731514, 1.2217291939887218, 1.3737749960273504, 1.549741239985451, 1.6617696179891936]",3485.9038209989667,None,3485.9041645229854,3486.0040088819806,s181_10132022,001,2022_Oct_13_1535,test_typingtask_norepeats,2020.2.10,59.74914166635238,
cheer,cheer,,,,,,,,,0,3,3,3,,,,,,,,,,,,,,,3491.404071679979,None,"['c', 'h', 'e', 'e', 'r']",1,"[0.617413905041758, 0.6894095070310868, 0.8015271030017175, 0.9215242130449042, 1.1454109530313872]",3491.404071679979,None,3491.4039074279544,3491.50405310496,s181_10132022,001,2022_Oct_13_1535,test_typingtask_norepeats,2020.2.10,59.74914166635238,
therm,therm,,,,,,,,,0,4,4,4,,,,,,,,,,,,,,,3496.904269555991,None,"['t', 'h', 'e', 'r', 'm']",1,"[0.6932029839954339, 0.7572778689791448, 0.8613146269926801, 0.9332158239558339, 1.0293042249977589]",3496.904269555991,None,3496.903854357003,3497.003741300956,s181_10132022,001,2022_Oct_13_1535,test_typingtask_norepeats,2020.2.10,59.74914166635238,
haole,haole,,,,,,,,,0,5,5,5,,,,,,,,,,,,,,,3502.404009061982,None,"['h', 'a', 'o', 'l', 'e']",1,"[0.7616197280003689, 0.8496052700211294, 1.0335174220381305, 1.2094824259984307, 1.2975607640109956]",3502.404009061982,None,3502.4039969419655,3502.5041079489747,s181_10132022,001,2022_Oct_13_1535,test_typingtask_norepeats,2020.2.10,59.74914166635238,
puppy,puppy,,,,,,,,,0,6,6,6,,,,,,,,,,,,,,,3507.903807520983,None,"['p', 'u', 'p', 'p', 'y']",1,"[0.6297056259936653, 0.7576763380202465, 0.9016870770137757, 1.0218001090106554, 1.18170363700483]",3507.903807520983,None,3507.9039927029926,3508.003836066986,s181_10132022,001,2022_Oct_13_1535,test_typingtask_norepeats,2020.2.10,59.74914166635238,
edthe,edthe,,,,,,,,,0,7,7,7,,,,,,,,,,,,,,,3513.4037859559758,None,"['e', 'd', 't', 'h', 'e']",1,"[0.6576972769689746, 0.8096913879853673, 0.977844531997107, 1.081682630989235, 1.1457054399652407]",3513.4037859559758,None,3513.403721160995,3513.5039598019794,s181_10132022,001,2022_Oct_13_1535,test_typingtask_norepeats,2020.2.10,59.74914166635238,
belly,belly,,,,,,,,,0,8,8,8,,,,,,,,,,,,,,,3518.9039326289785,None,"['b', 'e', 'l', 'l', 'y']",1,"[0.8136655970010906, 0.8856752339634113, 0.9976275069639087, 1.109538727963809, 1.2456332969595678]",3518.9039326289785,None,3518.9039295499506,3519.0038081459934,s181_10132022,001,2022_Oct_13_1535,test_typingtask_norepeats,2020.2.10,59.74914166635238,
there,there,,,,,,,,,0,9,9,9,,,,,,,,,,,,,,,3524.4036229809863,None,"['t', 'h', 'e', 'r', 'e']",1,"[0.6098466130206361, 0.6739711500122212, 0.7539272470166907, 0.833863198000472, 0.9059698019991629]",3524.4036229809863,None,3524.403814619972,3524.5037479919847,s181_10132022,001,2022_Oct_13_1535,test_typingtask_norepeats,2020.2.10,59.74914166635238,
tithe,tithe,,,,,,,,,0,10,10,10,,,,,,,,,,,,,,,3529.9039116439526,None,"['t', 'i', 't', 'h', 'e']",1,"[0.7496966320322827, 0.8216908909962513, 0.9175743370433338, 1.0537216170341708, 1.1415785070275888]",3529.9039116439526,None,3529.903866449994,3530.003814720956,s181_10132022,001,2022_Oct_13_1535,test_typingtask_norepeats,2020.2.10,59.74914166635238,
heond,heond,,,,,,,,,0,11,11,11,,,,,,,,,,,,,,,3535.404248057981,None,"['h', 'e', 'o', 'n', 'd']",1,"[0.7533146290224977, 0.8092391190002672, 0.8894157970207743, 1.1452694960171357, 1.2413475170033053]",3535.404248057981,None,3535.4037328679524,3535.503913931956,s181_10132022,001,2022_Oct_13_1535,test_typingtask_norepeats,2020.2.10,59.74914166635238,
lucky,lucky,,,,,,,,,0,12,12,12,,,,,,,,,,,,,,,3540.9040446819854,None,"['l', 'u', 'c', 'k', 'y']",1,"[0.67752406996442, 0.8615436480031349, 0.9974724299972877, 1.1014380909618922, 1.2934571160003543]",3540.9040446819854,None,3540.90410132297,3541.004033329955,s181_10132022,001,2022_Oct_13_1535,test_typingtask_norepeats,2020.2.10,59.74914166635238,
theme,theme,,,,,,,,,0,13,13,13,,,,,,,,,,,,,,,3546.4040113569936,None,"['t', 'h', 'e', 'm', 'e']",1,"[0.6334561289986596, 0.7294945589965209, 0.8095229879836552, 0.9135503209545277, 0.9776132759870961]",3546.4040113569936,None,3546.4039244369897,3546.5036409859895,s181_10132022,001,2022_Oct_13_1535,test_typingtask_norepeats,2020.2.10,59.74914166635238,
think,think,,,,,,,,,0,14,14,14,,,,,,,,,,,,,,,3551.9038797629764,None,"['t', 'h', 'i', 'n', 'k']",1,"[0.7096035330323502, 0.7657038340112194, 0.8697065149899572, 0.9737227960140444, 1.0537441759952344]",3551.9038797629764,None,3551.904203160998,3552.004027228977,s181_10132022,001,2022_Oct_13_1535,test_typingtask_norepeats,2020.2.10,59.74914166635238,
vanru,vanru,,,,,,,,,0,15,15,15,,,,,,,,,,,,,,,3557.4040684779757,None,"['v', 'a', 'n', 'r', 'u']",1,"[0.9854975250200368, 1.0495224019978195, 1.1455040780128911, 1.2734912890009582, 1.369676178030204]",3557.4040684779757,None,3557.404124848993,3557.50387682399,s181_10132022,001,2022_Oct_13_1535,test_typingtask_norepeats,2020.2.10,59.74914166635238,
zibja,zibja,,,,,,,,,0,16,16,16,,,,,,,,,,,,,,,3562.9042273410014,None,"['z', 'i', 'b', 'j', 'a']",1,"[0.9413859229534864, 0.9893814349779859, 1.1173377849627286, 1.293244058964774, 1.389380419976078]",3562.9042273410014,None,3562.9041442889547,3563.0040830129874,s181_10132022,001,2022_Oct_13_1535,test_typingtask_norepeats,2020.2.10,59.74914166635238,
faqir,faqir,,,,,,,,,0,17,17,17,,,,,,,,,,,,,,,3568.4040499179973,None,"['f', 'a', 'q', 'i', 'r']",1,"[0.8495411589974537, 0.9535120500368066, 1.1774820380378515, 1.5615406790166162, 1.6735434270231053]",3568.4040499179973,None,3568.4040320709873,3568.5041520189843,s181_10132022,001,2022_Oct_13_1535,test_typingtask_norepeats,2020.2.10,59.74914166635238,
therm,therm,,,,,,,,,0,18,18,18,,,,,,,,,,,,,,,3573.903804950998,None,"['t', 'h', 'e', 'r', 'm']",1,"[0.6537705400260165, 0.7337003090069629, 0.8218452620203607, 0.885996958008036, 0.9736801600083709]",3573.903804950998,None,3573.904057084973,3574.0044003389776,s181_10132022,001,2022_Oct_13_1535,test_typingtask_norepeats,2020.2.10,59.74914166635238,
theme,theme,,,,,,,,,0,19,19,19,,,,,,,,,,,,,,,3579.4040954069933,None,"['t', 'h', 'e', 'm', 'e']",1,"[0.6495070430100895, 0.7134938109666109, 0.8093991060159169, 0.905364247970283, 0.977546704991255]",3579.4040954069933,None,3579.403888065991,3579.5041511309682,s181_10132022,001,2022_Oct_13_1535,test_typingtask_norepeats,2020.2.10,59.74914166635238,
zibja,zibja,,,,,,,,,0,20,20,20,,,,,,,,,,,,,,,3584.903788650001,None,"['z', 'i', 'b', 'j', 'a']",1,"[0.9498168840073049, 1.0057212939718738, 1.133749742002692, 1.3017560640000738, 1.3817399310064502]",3584.903788650001,None,3584.9039337889817,3585.0039302999503,s181_10132022,001,2022_Oct_13_1535,test_typingtask_norepeats,2020.2.10,59.74914166635238,
pykka,pykka,,,,,,,,,0,21,21,21,,,,,,,,,,,,,,,3590.403869075002,None,"['p', 'y', 'k', 'k', 'a']",1,"[0.7296255479450338, 0.8657407159917057, 1.1457076429505832, 1.2816658539813943, 1.377744980971329]",3590.403869075002,None,3590.4039809429496,3590.5040854829713,s181_10132022,001,2022_Oct_13_1535,test_typingtask_norepeats,2020.2.10,59.74914166635238,
vanru,vanru,,,,,,,,,0,22,22,22,,,,,,,,,,,,,,,3595.9039140609675,None,"['v', 'a', 'n', 'r', 'u']",1,"[0.8456620320212096, 0.9095726100495085, 1.0136819489998743, 1.1255908110179007, 1.2295935630099848]",3595.9039140609675,None,3595.904164740973,3596.0041189529584,s181_10132022,001,2022_Oct_13_1535,test_typingtask_norepeats,2020.2.10,59.74914166635238,
theme,theme,,,,,,,,,0,23,23,23,,,,,,,,,,,,,,,3601.4039873409783,None,"['t', 'h', 'e', 'm', 'e']",1,"[0.665614360012114, 0.7535772960400209, 0.8174879700527526, 0.9295270960428752, 0.9775088340393268]",3601.4039873409783,None,3601.4042360749854,3601.503895779955,s181_10132022,001,2022_Oct_13_1535,test_typingtask_norepeats,2020.2.10,59.74914166635238,
lucky,lucky,,,,,,,,,0,24,24,24,,,,,,,,,,,,,,,3606.9039275109535,None,"['l', 'u', 'c', 'k', 'y']",1,"[0.6456143039977178, 0.8136620359728113, 0.8536599299986847, 1.0136657489929348, 1.1816049909684807]",3606.9039275109535,None,3606.9040551209882,3607.0040046339855,s181_10132022,001,2022_Oct_13_1535,test_typingtask_norepeats,2020.2.10,59.74914166635238,
think,think,,,,,,,,,0,25,25,25,,,,,,,,,,,,,,,3612.404500751989,None,"['t', 'h', 'i', 'n', 'k']",1,"[0.6010207969811745, 0.6571047229808755, 0.7450668420060538, 0.8490457630250603, 0.9211094990023412]",3612.404500751989,None,3612.4047532309605,3612.5041581330006,s181_10132022,001,2022_Oct_13_1535,test_typingtask_norepeats,2020.2.10,59.74914166635238,
belly,belly,,,,,,,,,0,26,26,26,,,,,,,,,,,,,,,3617.904245302954,None,"['b', 'e', 'l', 'l', 'y']",1,"[0.9413119959644973, 1.0133611349738203, 1.1252934559597634, 1.2452457929612137, 1.405357280978933]",3617.904245302954,None,3617.903880105977,3618.0039615219575,s181_10132022,001,2022_Oct_13_1535,test_typingtask_norepeats,2020.2.10,59.74914166635238,
edthe,edthe,,,,,,,,,0,27,27,27,,,,,,,,,,,,,,,3623.4041869629873,None,"['e', 'd', 't', 'h', 'e']",1,"[0.7374139659805223, 0.8813013999606483, 1.0493604819639586, 1.1453858769964427, 1.2173054709564894]",3623.4041869629873,None,3623.4040793189606,3623.5040201279917,s181_10132022,001,2022_Oct_13_1535,test_typingtask_norepeats,2020.2.10,59.74914166635238,
tithe,tithe,,,,,,,,,0,28,28,28,,,,,,,,,,,,,,,3628.9041128020035,None,"['i', 't', 't', 'h', 'e']",0,"[0.8293736740015447, 0.9173633740283549, 1.6293995550367981, 1.7013691010070033, 1.8053924670093693]",3628.9041128020035,None,3628.904153783963,3629.0044490769506,s181_10132022,001,2022_Oct_13_1535,test_typingtask_norepeats,2020.2.10,59.74914166635238,
about,about,,,,,,,,,0,29,29,29,,,,,,,,,,,,,,,3634.420905434992,None,"['a', 'b', 'o', 'u', 't']",1,"[0.6166784149827436, 0.7206678310176358, 0.8326896569924429, 0.8726609569857828, 0.9766375559847802]",3634.420905434992,None,3634.420666229952,3634.521057698992,s181_10132022,001,2022_Oct_13_1535,test_typingtask_norepeats,2020.2.10,59.74914166635238,
vanru,vanru,,,,,,,,,0,30,30,30,,,,,,,,,,,,,,,3639.9206546479836,None,"['v', 'a', 'n', 'r', 'u']",1,"[0.7808698720182292, 0.8449664430227131, 0.9409570819698274, 1.044919005013071, 1.1489391240174882]",3639.9206546479836,None,3639.9208409349494,3640.020884775964,s181_10132022,001,2022_Oct_13_1535,test_typingtask_norepeats,2020.2.10,59.74914166635238,
there,there,,,,,,,,,0,31,31,31,,,,,,,,,,,,,,,3645.4205772589776,None,"['t', 'h', 'e', 'r', 'e']",1,"[0.6730387369752862, 0.7769170899991877, 0.8250326419947669, 0.9451507980120368, 1.049037316988688]",3645.4205772589776,None,3645.4210157839525,3645.5208422470023,s181_10132022,001,2022_Oct_13_1535,test_typingtask_norepeats,2020.2.10,59.74914166635238,
buddy,buddy,,,,,,,,,0,32,32,32,,,,,,,,,,,,,,,3650.920662441,None,"['b', 'u', 'd', 'd', 'y']",1,"[0.820900818973314, 0.9329272760078311, 1.0128507090266794, 1.1648857209947892, 1.276809474977199]",3650.920662441,None,3650.9207147059906,3651.020658015972,s181_10132022,001,2022_Oct_13_1535,test_typingtask_norepeats,2020.2.10,59.74914166635238,
zibja,zibja,,,,,,,,,0,33,33,33,,,,,,,,,,,,,,,3656.4208147180034,None,"['z', 'i', 'b', 'j', 'a']",1,"[0.9926719229551964, 1.0647146200062707, 1.2006625889916904, 1.3926687290077098, 1.4886917599942535]",3656.4208147180034,None,3656.4205758729777,3656.5208648039843,s181_10132022,001,2022_Oct_13_1535,test_typingtask_norepeats,2020.2.10,59.74914166635238,
vodka,vodka,,,,,,,,,0,34,34,34,,,,,,,,,,,,,,,3661.9207461829646,None,"['v', 'o', 'd', 'k', 'a']",1,"[0.8767545589944348, 0.9808202899876051, 1.0608082870021462, 1.1967887390055694, 1.3168351140338928]",3661.9207461829646,None,3661.9205225789747,3662.0211383799906,s181_10132022,001,2022_Oct_13_1535,test_typingtask_norepeats,2020.2.10,59.74914166635238,
haole,haole,,,,,,,,,0,35,35,35,,,,,,,,,,,,,,,3667.42101304495,None,"['h', 'a', 'o', 'l', 'e']",1,"[0.8325671849888749, 0.9044566520024091, 1.0965266589773819, 1.264520080992952, 1.3365557249635458]",3667.42101304495,None,3667.420722109947,3667.5209793329705,s181_10132022,001,2022_Oct_13_1535,test_typingtask_norepeats,2020.2.10,59.74914166635238,
kremp,kremp,,,,,,,,,0,36,36,36,,,,,,,,,,,,,,,3672.921173944953,None,"['k', 'r', 'e', 'm', 'p']",1,"[0.9084410869982094, 0.9883133869734593, 1.0603440779959783, 1.1084327140124515, 1.2283958650077693]",3672.921173944953,None,3672.920630474965,3673.020774813951,s181_10132022,001,2022_Oct_13_1535,test_typingtask_norepeats,2020.2.10,59.74914166635238,
haole,haole,,,,,,,,,0,37,37,37,,,,,,,,,,,,,,,3678.420850413968,None,"['h', 'a', 'o', 'l', 'e']",1,"[0.8646404540049843, 0.9126584909972735, 1.0487385930027813, 1.2167585900169797, 1.2888431570027024]",3678.420850413968,None,3678.4207467029746,3678.520767815993,s181_10132022,001,2022_Oct_13_1535,test_typingtask_norepeats,2020.2.10,59.74914166635238,
champ,champ,,,,,,,,,0,38,38,38,,,,,,,,,,,,,,,3683.9208794269944,None,"['c', 'h', 'a', 'm', 'p']",1,"[0.644695219991263, 0.7005916849593632, 0.8046043679933064, 0.8766208439483307, 1.0047203360009007]",3683.9208794269944,None,3683.9209422879912,3684.020738711988,s181_10132022,001,2022_Oct_13_1535,test_typingtask_norepeats,2020.2.10,59.74914166635238,
belly,belly,,,,,,,,,0,39,39,39,,,,,,,,,,,,,,,3689.4210124289966,None,"['b', 'e', 'l', 'l', 'y']",1,"[0.5685966219753027, 0.6325596980168484, 0.7366096809855662, 0.8725574919953942, 1.0325348009937443]",3689.4210124289966,None,3689.4211845159707,3689.5211364749703,s181_10132022,001,2022_Oct_13_1535,test_typingtask_norepeats,2020.2.10,59.74914166635238,
about,about,,,,,,,,,0,40,40,40,,,,,,,,,,,,,,,3694.9209508909844,None,"['a', 'b', 'o', 'u', 't']",1,"[0.4765405030339025, 0.5726344750146382, 0.6685971090337262, 0.7085750530241057, 0.8126154480269179]",3694.9209508909844,None,3694.9208801499744,3695.0208853549557,s181_10132022,001,2022_Oct_13_1535,test_typingtask_norepeats,2020.2.10,59.74914166635238,
there,there,,,,,,,,,0,41,41,41,,,,,,,,,,,,,,,3700.4208685529884,None,"['t', 'h', 'e', 'r', 'e']",1,"[0.64067742502084, 0.7367415310000069, 0.7766079310094938, 0.8486849370528944, 0.9447546150186099]",3700.4208685529884,None,3700.4209110109778,3700.52086850896,s181_10132022,001,2022_Oct_13_1535,test_typingtask_norepeats,2020.2.10,59.74914166635238,
heond,heond,,,,,,,,,0,42,42,42,,,,,,,,,,,,,,,3705.920869020978,None,"['h', 'e', 'o', 'n', 'd']",1,"[0.7726337870117277, 0.8286961360136047, 0.932708318985533, 1.0686743080150336, 1.1406110029784031]",3705.920869020978,None,3705.920818951953,3706.0209647659794,s181_10132022,001,2022_Oct_13_1535,test_typingtask_norepeats,2020.2.10,59.74914166635238,
pykka,pykka,,,,,,,,,0,43,43,43,,,,,,,,,,,,,,,3711.420689180959,None,"['p', 'y', 'k', 'k', 'a']",1,"[0.832894243998453, 1.0328658020007424, 1.288916125020478, 1.4007812810014002, 1.496861590014305]",3711.420689180959,None,3711.420906544995,3711.520944271004,s181_10132022,001,2022_Oct_13_1535,test_typingtask_norepeats,2020.2.10,59.74914166635238,
about,about,,,,,,,,,0,44,44,44,,,,,,,,,,,,,,,3716.9207109089475,None,"['a', 'b', 'o', 'u', 't']",1,"[0.5648171729990281, 0.6847717019845732, 0.7887755599804223, 0.8049029770190828, 0.9007709000143223]",3716.9207109089475,None,3716.9207289809538,3717.020935833978,s181_10132022,001,2022_Oct_13_1535,test_typingtask_norepeats,2020.2.10,59.74914166635238,
tithe,tithe,,,,,,,,,0,45,45,45,,,,,,,,,,,,,,,3722.4206826769514,None,"['t', 'i', 't', 'h', 'e']",1,"[0.7448633600142784, 0.840828298998531, 0.9128059340291657, 1.0169356139958836, 1.0889564490062185]",3722.4206826769514,None,3722.4208812249535,3722.5208707239944,s181_10132022,001,2022_Oct_13_1535,test_typingtask_norepeats,2020.2.10,59.74914166635238,
pykka,pykka,,,,,,,,,0,46,46,46,,,,,,,,,,,,,,,3727.9209798449883,None,"['p', 'y', 'k', 'k', 'a']",1,"[0.7406236249953508, 0.8765045419568196, 1.124555911985226, 1.268626637000125, 1.3726185569539666]",3727.9209798449883,None,3727.9209581399746,3728.0207733749994,s181_10132022,001,2022_Oct_13_1535,test_typingtask_norepeats,2020.2.10,59.74914166635238,
cheer,cheer,,,,,,,,,0,47,47,47,,,,,,,,,,,,,,,3733.420948871004,None,"['c', 'h', 'e', 'e', 'r']",1,"[0.6806544999708422, 0.7446403629728593, 0.8486014769878238, 0.9765495709725656, 1.104700508993119]",3733.420948871004,None,3733.420777741977,3733.521022478002,s181_10132022,001,2022_Oct_13_1535,test_typingtask_norepeats,2020.2.10,59.74914166635238,
faqir,faqir,,,,,,,,,0,48,48,48,,,,,,,,,,,,,,,3738.9210652299807,None,"['f', 'a', 'q', 'i', 'r']",1,"[0.82853633799823, 0.9165375839802437, 1.204543575993739, 1.6125070870039053, 1.7484925679746084]",3738.9210652299807,None,3738.921043565945,3739.0207053199993,s181_10132022,001,2022_Oct_13_1535,test_typingtask_norepeats,2020.2.10,59.74914166635238,
druze,druze,,,,,,,,,0,49,49,49,,,,,,,,,,,,,,,3744.4208993520006,None,"['d', 'r', 'u', 'z', 'e']",1,"[0.7125869379960932, 0.8087308570393361, 0.9926507649943233, 1.1126426529954188, 1.3206933769979514]",3744.4208993520006,None,3744.4208919809726,3744.520791929972,s181_10132022,001,2022_Oct_13_1535,test_typingtask_norepeats,2020.2.10,59.74914166635238,
edthe,edthe,,,,,,,,,0,50,50,50,,,,,,,,,,,,,,,3749.9209552779794,None,"['e', 'd', 't', 'h', 'e']",1,"[0.7005291519453749, 0.8845731289475225, 1.1005257029901259, 1.2046389389433898, 1.2605559529620223]",3749.9209552779794,None,3749.9211810589595,3750.020732365956,s181_10132022,001,2022_Oct_13_1535,test_typingtask_norepeats,2020.2.10,59.74914166635238,
lucky,lucky,,,,,,,,,0,51,51,51,,,,,,,,,,,,,,,3755.4209535569535,None,"['l', 'u', 'c', 'k', 'y']",1,"[0.6885948830167763, 0.8406921300338581, 0.9286310460302047, 1.0166576150222681, 1.2005397439934313]",3755.4209535569535,None,3755.42081620298,3755.520754386962,s181_10132022,001,2022_Oct_13_1535,test_typingtask_norepeats,2020.2.10,59.74914166635238,
cooed,cooed,,,,,,,,,0,52,52,52,,,,,,,,,,,,,,,3760.9212018499966,None,"['c', 'o', 'o', 'e', 'd']",1,"[0.7802806859835982, 0.8923154600197449, 1.0042320400243625, 1.1082345449831337, 1.2523959000245668]",3760.9212018499966,None,3760.920955486986,3761.021064865985,s181_10132022,001,2022_Oct_13_1535,test_typingtask_norepeats,2020.2.10,59.74914166635238,
faqir,faqir,,,,,,,,,0,53,53,53,,,,,,,,,,,,,,,3766.421125907975,None,"['f', 'a', 'q', 'i', 'r']",1,"[0.7364641699823551, 0.816393812012393, 1.0484021580195986, 1.248462374031078, 1.3603521829936653]",3766.421125907975,None,3766.4210357089587,3766.5209239579854,s181_10132022,001,2022_Oct_13_1535,test_typingtask_norepeats,2020.2.10,59.74914166635238,
buddy,buddy,,,,,,,,,0,54,54,54,,,,,,,,,,,,,,,3771.920748303004,None,"['b', 'u', 'd', 'd', 'y']",1,"[0.764758826000616, 0.8687228249618784, 0.9567253519780934, 1.0847344819922, 1.1887302009854466]",3771.920748303004,None,3771.9211005479856,3772.0210931460024,s181_10132022,001,2022_Oct_13_1535,test_typingtask_norepeats,2020.2.10,59.74914166635238,
think,think,,,,,,,,,0,55,55,55,,,,,,,,,,,,,,,3777.420984338969,None,"['t', 'h', 'i', 'n', 'k']",1,"[0.6485485279699787, 0.7045695259585045, 0.7844881079508923, 0.888497787003871, 0.9604840819956735]",3777.420984338969,None,3777.420860505995,3777.5207654469996,s181_10132022,001,2022_Oct_13_1535,test_typingtask_norepeats,2020.2.10,59.74914166635238,
vodka,vodka,,,,,,,,,0,56,56,56,,,,,,,,,,,,,,,3782.9208274139673,None,"['v', 'o', 'd', 'k', 'a']",1,"[0.7647040510200895, 0.8766652760095894, 0.9487630969961174, 1.0846592780435458, 1.1807714269962162]",3782.9208274139673,None,3782.921162117954,3783.021007625968,s181_10132022,001,2022_Oct_13_1535,test_typingtask_norepeats,2020.2.10,59.74914166635238,
therm,therm,,,,,,,,,0,57,57,57,,,,,,,,,,,,,,,3788.420896720956,None,"['t', 'h', 'e', 'r', 'm']",1,"[0.6407003939966671, 0.7125906639848836, 0.7927010249695741, 0.8726976590114646, 0.9527728699613363]",3788.420896720956,None,3788.421055458003,3788.520983001974,s181_10132022,001,2022_Oct_13_1535,test_typingtask_norepeats,2020.2.10,59.74914166635238,
druze,druze,,,,,,,,,0,58,58,58,,,,,,,,,,,,,,,3793.920995011984,None,"['d', 'r', 'u', 'z', 'e']",1,"[0.7165677979937755, 0.7565495520248078, 1.0445822110050358, 1.1484938699868508, 1.2685510140145198]",3793.920995011984,None,3793.9211021069614,3794.021330949967,s181_10132022,001,2022_Oct_13_1535,test_typingtask_norepeats,2020.2.10,59.74914166635238,
champ,champ,,,,,,,,,0,59,59,59,,,,,,,,,,,,,,,3799.421959090978,None,"['c', 'h', 'a', 'm', 'p']",1,"[0.6635317300097086, 0.7355874380446039, 0.8156500770128332, 0.9117104230099358, 1.0316053970018402]",3799.421959090978,None,3799.42102858795,3799.5209425099893,s181_10132022,001,2022_Oct_13_1535,test_typingtask_norepeats,2020.2.10,59.74914166635238,
cooed,cooed,,,,,,,,,0,60,60,60,,,,,,,,,,,,,,,3804.921136193967,None,"['c', 'o', 'o', 'e', 'd']",1,"[0.67639317602152, 0.7804512900183909, 0.908347531047184, 0.9804531360277906, 1.1403744980343617]",3804.921136193967,None,3804.9210218319613,3805.0209685330046,s181_10132022,001,2022_Oct_13_1535,test_typingtask_norepeats,2020.2.10,59.74914166635238,
puppy,puppy,,,,,,,,,0,61,61,61,,,,,,,,,,,,,,,3810.4210348919732,None,"['p', 'u', 'p', 'p', 'y']",1,"[0.792510851053521, 0.9204852050170302, 1.0485229710466228, 1.176473927043844, 1.3924980370211415]",3810.4210348919732,None,3810.420807509957,3810.521048702998,s181_10132022,001,2022_Oct_13_1535,test_typingtask_norepeats,2020.2.10,59.74914166635238,
kremp,kremp,,,,,,,,,0,62,62,62,,,,,,,,,,,,,,,3815.920935228991,None,"['k', 'r', 'e', 'm', 'p']",1,"[1.220685645006597, 1.3326369189890102, 1.3966606000321917, 1.4765468980185688, 1.588594225991983]",3815.920935228991,None,3815.9213119659516,3816.0208948259824,s181_10132022,001,2022_Oct_13_1535,test_typingtask_norepeats,2020.2.10,59.74914166635238,
cheer,cheer,,,,,,,,,0,63,63,63,,,,,,,,,,,,,,,3821.4210316149984,None,"['c', 'h', 'e', 'e', 'r']",1,"[0.584453248011414, 0.6565102080348879, 0.7524622980272397, 0.888564997992944, 1.04057787603233]",3821.4210316149984,None,3821.4212280369657,3821.5208663639496,s181_10132022,001,2022_Oct_13_1535,test_typingtask_norepeats,2020.2.10,59.74914166635238,
vanru,vanru,,,,,,,,,0,64,64,64,,,,,,,,,,,,,,,3826.9210169669823,None,"['v', 'a', 'n', 'r', 'u']",1,"[0.788584258989431, 0.8764643719769083, 1.020585267979186, 1.116583121009171, 1.2206204239628278]",3826.9210169669823,None,3826.921041838982,3827.0209567919956,s181_10132022,001,2022_Oct_13_1535,test_typingtask_norepeats,2020.2.10,59.74914166635238,
champ,champ,,,,,,,,,0,65,65,65,,,,,,,,,,,,,,,3832.4211027819547,None,"['c', 'h', 'a', 'm', 'p']",1,"[0.6165042769862339, 0.7123733750195242, 0.7603709669783711, 0.8883756540017202, 0.992383235017769]",3832.4211027819547,None,3832.421053519979,3832.521258338995,s181_10132022,001,2022_Oct_13_1535,test_typingtask_norepeats,2020.2.10,59.74914166635238,
kremp,kremp,,,,,,,,,0,66,66,66,,,,,,,,,,,,,,,3837.9213388299686,None,"['k', 'r', 'e', 'm', 'p']",1,"[1.0761537799844518, 1.1642160990159027, 1.2202748869895004, 1.2841496000182815, 1.388171554019209]",3837.9213388299686,None,3837.921080801968,3838.021008529002,s181_10132022,001,2022_Oct_13_1535,test_typingtask_norepeats,2020.2.10,59.74914166635238,
think,think,,,,,,,,,0,67,67,67,,,,,,,,,,,,,,,3843.421010674967,None,"['t', 'h', 'n', 'k']",0,"[0.6244601149810478, 0.6645654080202803, 0.864479127980303, 0.9285699040046893]",3843.421010674967,None,3843.4212600049623,3843.5211932469974,s181_10132022,001,2022_Oct_13_1535,test_typingtask_norepeats,2020.2.10,59.74914166635238,
buddy,buddy,,,,,,,,,0,68,68,68,,,,,,,,,,,,,,,3848.9374672679696,None,"['b', 'u', 'd', 'd', 'y']",1,"[0.7240768409683369, 0.8041235440177843, 0.900112735980656, 1.0361543339677155, 1.1320895879762247]",3848.9374672679696,None,3848.937268263003,3849.037549795001,s181_10132022,001,2022_Oct_13_1535,test_typingtask_norepeats,2020.2.10,59.74914166635238,
champ,champ,,,,,,,,,0,69,69,69,,,,,,,,,,,,,,,3854.4376919339993,None,"['c', 'h', 'a', 'm', 'p']",1,"[0.5998747479752637, 0.6559143830090761, 0.7678627109853551, 0.8318419909919612, 0.9437840799801052]",3854.4376919339993,None,3854.4376380609874,3854.537681863003,s181_10132022,001,2022_Oct_13_1535,test_typingtask_norepeats,2020.2.10,59.74914166635238,
theme,theme,,,,,,,,,0,70,70,70,,,,,,,,,,,,,,,3859.9377192339743,None,"['t', 'h', 'e', 'm', 'e']",1,"[0.579847440996673, 0.6518705439521, 0.7558888900093734, 0.8437581099569798, 0.923839220951777]",3859.9377192339743,None,3859.93749381798,3860.0378901019576,s181_10132022,001,2022_Oct_13_1535,test_typingtask_norepeats,2020.2.10,59.74914166635238,
puppy,puppy,,,,,,,,,0,71,71,71,,,,,,,,,,,,,,,3865.437893113005,None,"['p', 'u', 'p', 'p', 'y']",1,"[0.6716681899852119, 0.775584509014152, 0.9277154579758644, 1.0476105799898505, 1.2156677679740824]",3865.437893113005,None,3865.437625773001,3865.537740724976,s181_10132022,001,2022_Oct_13_1535,test_typingtask_norepeats,2020.2.10,59.74914166635238,
would,would,,,,,,,,,0,72,72,72,,,,,,,,,,,,,,,3870.937676129979,None,"['w', 'o', 'u', 'l', 'd']",1,"[0.6359294619760476, 0.7078770310035907, 0.7638921909965575, 0.9077990349614993, 0.9718232089653611]",3870.937676129979,None,3870.9377951139877,3871.037649728998,s181_10132022,001,2022_Oct_13_1535,test_typingtask_norepeats,2020.2.10,59.74914166635238,
pykka,pykka,,,,,,,,,0,73,73,73,,,,,,,,,,,,,,,3876.437691416999,None,"['p', 'y', 'k', 'k', 'a']",1,"[0.6639061910100281, 0.807919146027416, 1.1118732500472106, 1.2558872740482911, 1.3597727820160799]",3876.437691416999,None,3876.4377649469943,3876.5376281609642,s181_10132022,001,2022_Oct_13_1535,test_typingtask_norepeats,2020.2.10,59.74914166635238,
cheer,cheer,,,,,,,,,0,74,74,74,,,,,,,,,,,,,,,3881.9378265689593,None,"['c', 'h', 'e', 'e', 'r']",1,"[0.7716657420387492, 0.8757288990309462, 0.9716915070312098, 1.1077819870552048, 1.235671610047575]",3881.9378265689593,None,3881.9378456259556,3882.037831651978,s181_10132022,001,2022_Oct_13_1535,test_typingtask_norepeats,2020.2.10,59.74914166635238,
lucky,lucky,,,,,,,,,0,75,75,75,,,,,,,,,,,,,,,3887.43785740796,None,"['l', 'u', 'c', 'k', 'y']",1,"[0.6157329059788026, 0.7917474010027945, 0.8956125039840117, 1.0316597649944015, 1.2637357779894955]",3887.43785740796,None,3887.438140519994,3887.537914480956,s181_10132022,001,2022_Oct_13_1535,test_typingtask_norepeats,2020.2.10,59.74914166635238,
zibja,zibja,,,,,,,,,0,76,76,76,,,,,,,,,,,,,,,3892.9380028499872,None,"['z', 'i', 'b', 'j', 'a']",1,"[0.8995526850339957, 0.9874835360096768, 1.1795791480108164, 1.3795788820134476, 1.4915962310042232]",3892.9380028499872,None,3892.937811243971,3893.037747796974,s181_10132022,001,2022_Oct_13_1535,test_typingtask_norepeats,2020.2.10,59.74914166635238,
heond,heond,,,,,,,,,0,77,77,77,,,,,,,,,,,,,,,3898.437496900966,None,"['h', 'e', 'o', 'n', 'd']",1,"[0.7760567240184173, 0.8480159559985623, 0.9280808820039965, 1.0720006779883988, 1.152025573013816]",3898.437496900966,None,3898.437794462993,3898.537844891951,s181_10132022,001,2022_Oct_13_1535,test_typingtask_norepeats,2020.2.10,59.74914166635238,
faqir,faqir,,,,,,,,,0,78,78,78,,,,,,,,,,,,,,,3903.937793669,None,"['f', 'a', 'q', 'i', 'r']",1,"[0.7558001109864563, 0.8437026310130022, 1.139761010010261, 1.4120126640191302, 1.5157585680135526]",3903.937793669,None,3903.9377558719543,3904.0376973399543,s181_10132022,001,2022_Oct_13_1535,test_typingtask_norepeats,2020.2.10,59.74914166635238,
would,would,,,,,,,,,0,79,79,79,,,,,,,,,,,,,,,3909.4377321289503,None,"['w', 'o', 'u', 'l', 'd']",1,"[0.4957493080291897, 0.5837523170048371, 0.6238733690115623, 0.7918248630012386, 0.8877907150308602]",3909.4377321289503,None,3909.4378074149545,3909.537759116967,s181_10132022,001,2022_Oct_13_1535,test_typingtask_norepeats,2020.2.10,59.74914166635238,
tithe,tithe,,,,,,,,,0,80,80,80,,,,,,,,,,,,,,,3914.9377107669716,None,"['t', 'i', 't', 'h', 'e']",1,"[0.7158721389714628, 0.8118669249815866, 0.8998625730164349, 0.995855834975373, 1.0597811419866048]",3914.9377107669716,None,3914.9378246809765,3915.03785582399,s181_10132022,001,2022_Oct_13_1535,test_typingtask_norepeats,2020.2.10,59.74914166635238,
theme,theme,,,,,,,,,0,81,81,81,,,,,,,,,,,,,,,3920.437766101968,None,"['t', 'h', 'e', 'm', 'e']",1,"[0.6557807819917798, 0.7357973750331439, 0.8157889970461838, 0.9118528930121101, 0.9917188350227661]",3920.437766101968,None,3920.4378653139984,3920.537832960952,s181_10132022,001,2022_Oct_13_1535,test_typingtask_norepeats,2020.2.10,59.74914166635238,
would,would,,,,,,,,,0,82,82,82,,,,,,,,,,,,,,,3925.9383031599573,None,"['w', 'o', 'u', 'l', 'd']",1,"[0.5791960040223785, 0.63531216600677, 0.6831978459958918, 0.8272618289920501, 0.8913088710396551]",3925.9383031599573,None,3925.937623193994,3926.0378613239736,s181_10132022,001,2022_Oct_13_1535,test_typingtask_norepeats,2020.2.10,59.74914166635238,
druze,druze,,,,,,,,,0,83,83,83,,,,,,,,,,,,,,,3931.4377357359626,None,"['d', 'r', 'u', 'z', 'e']",1,"[0.6238574730232358, 0.7118497929768637, 0.855811144981999, 0.9437359939911403, 1.047787668008823]",3931.4377357359626,None,3931.4377494129994,3931.537645117962,s181_10132022,001,2022_Oct_13_1535,test_typingtask_norepeats,2020.2.10,59.74914166635238,
think,think,,,,,,,,,0,84,84,84,,,,,,,,,,,,,,,3936.937822089996,None,"['t', 'h', 'i', 'n', 'k']",1,"[0.6436945150489919, 0.7077266720007174, 0.7877413220121525, 0.8997837910428643, 0.9557291970122606]",3936.937822089996,None,3936.9379172969902,3937.0377575439634,s181_10132022,001,2022_Oct_13_1535,test_typingtask_norepeats,2020.2.10,59.74914166635238,
cooed,cooed,,,,,,,,,0,85,85,85,,,,,,,,,,,,,,,3942.437916265975,None,"['c', 'o', 'o', 'e', 'd']",1,"[0.69556876498973, 0.7996841620188206, 0.927751042007003, 1.0396242889692076, 1.1916400920017622]",3942.437916265975,None,3942.4377963119596,3942.537735933962,s181_10132022,001,2022_Oct_13_1535,test_typingtask_norepeats,2020.2.10,59.74914166635238,
druze,druze,,,,,,,,,0,86,86,86,,,,,,,,,,,,,,,3947.9381247299607,None,"['d', 'r', 'u', 'z', 'e']",1,"[0.643374206032604, 0.7073529180488549, 0.827358594047837, 0.9154602560447529, 0.9954083019983955]",3947.9381247299607,None,3947.9378210989935,3948.0375445729587,s181_10132022,001,2022_Oct_13_1535,test_typingtask_norepeats,2020.2.10,59.74914166635238,
there,there,,,,,,,,,0,87,87,87,,,,,,,,,,,,,,,3953.437991804967,None,"['t', 'h', 'e', 'r', 'e']",1,"[0.5674895930569619, 0.6555073540075682, 0.7195254110265523, 0.8236259650439024, 0.9035678910440765]",3953.437991804967,None,3953.4387105409814,3953.538163032965,s181_10132022,001,2022_Oct_13_1535,test_typingtask_norepeats,2020.2.10,59.74914166635238,
cooed,cooed,,,,,,,,,0,88,88,88,,,,,,,,,,,,,,,3958.938026040967,None,"['c', 'o', 'o', 'e', 'd']",1,"[0.7395917089888826, 0.8515378779848106, 0.9795240180101246, 1.0674969850224443, 1.2195605160086416]",3958.938026040967,None,3958.9381413159836,3959.0379863709677,s181_10132022,001,2022_Oct_13_1535,test_typingtask_norepeats,2020.2.10,59.74914166635238,
kremp,kremp,,,,,,,,,0,89,89,89,,,,,,,,,,,,,,,3964.4377929740003,None,"['k', 'r', 'e', 'm', 'p']",1,"[1.1596919239964336, 1.2476923110079952, 1.3118567600031383, 1.391754980024416, 1.5037499130121432]",3964.4377929740003,None,3964.437812230998,3964.5377811069484,s181_10132022,001,2022_Oct_13_1535,test_typingtask_norepeats,2020.2.10,59.74914166635238,
therm,therm,,,,,,,,,0,90,90,90,,,,,,,,,,,,,,,3969.9379328879877,None,"['t', 'h', 'e', 'r', 'm']",1,"[0.6036488930112682, 0.6916066280100495, 0.771658092038706, 0.8435359040158801, 0.9716797810397111]",3969.9379328879877,None,3969.9378468259647,3970.0380040379823,s181_10132022,001,2022_Oct_13_1535,test_typingtask_norepeats,2020.2.10,59.74914166635238,
buddy,buddy,,,,,,,,,0,91,91,91,,,,,,,,,,,,,,,3975.4379399849568,None,"['b', 'u', 'd', 'd', 'y']",1,"[0.7835444530355744, 0.8876441750326194, 1.0156282240059227, 1.1435648790211417, 1.2556037830072455]",3975.4379399849568,None,3975.4379575709872,3975.53795850795,s181_10132022,001,2022_Oct_13_1535,test_typingtask_norepeats,2020.2.10,59.74914166635238,
vodka,vodka,,,,,,,,,0,92,92,92,,,,,,,,,,,,,,,3980.9379810319515,None,"['v', 'o', 'd', 'k', 'a']",1,"[0.9156134519726038, 1.0115969579783268, 1.1075683680246584, 1.2356278150109574, 1.339491792023182]",3980.9379810319515,None,3980.93787644697,3981.038047134003,s181_10132022,001,2022_Oct_13_1535,test_typingtask_norepeats,2020.2.10,59.74914166635238,
druze,druze,,,,,,,,,0,93,93,93,,,,,,,,,,,,,,,3986.4377845019917,None,"['d', 'r', 'u', 'z', 'e']",1,"[0.6637406939989887, 0.7437022270169109, 0.8957809080020525, 0.983729524014052, 1.0397997520049103]",3986.4377845019917,None,3986.437784197956,3986.537999406981,s181_10132022,001,2022_Oct_13_1535,test_typingtask_norepeats,2020.2.10,59.74914166635238,
belly,belly,,,,,,,,,0,94,94,94,,,,,,,,,,,,,,,3991.9377843559487,None,"['b', 'e', 'l', 'l', 'y']",1,"[0.7078093810123391, 0.795784254965838, 0.899821344006341, 1.0437250609975308, 1.1877996280090883]",3991.9377843559487,None,3991.937723317981,3992.0374718959793,s181_10132022,001,2022_Oct_13_1535,test_typingtask_norepeats,2020.2.10,59.74914166635238,
haole,haole,,,,,,,,,0,95,95,95,,,,,,,,,,,,,,,3997.4377161159646,None,"['h', 'a', 'o', 'l', 'e']",1,"[0.8398909050156362, 0.9038968540262431, 0.9758010299992748, 1.1277914180536754, 1.2078480970230885]",3997.4377161159646,None,3997.437716070953,3997.5379832239705,s181_10132022,001,2022_Oct_13_1535,test_typingtask_norepeats,2020.2.10,59.74914166635238,
champ,champ,,,,,,,,,0,96,96,96,,,,,,,,,,,,,,,4002.937789056974,None,"['c', 'h', 'a', 'm', 'p']",1,"[0.6358141770469956, 0.6837223310139962, 0.7957155940239318, 0.8676941000157967, 0.9797087270417251]",4002.937789056974,None,4002.9378936999537,4003.0379012209596,s181_10132022,001,2022_Oct_13_1535,test_typingtask_norepeats,2020.2.10,59.74914166635238,
vodka,vodka,,,,,,,,,0,97,97,97,,,,,,,,,,,,,,,4008.43809364998,None,"['v', 'o', 'd', 'k', 'a']",1,"[0.7355135400430299, 0.8075107100303285, 0.9115303630242124, 0.9995076790219173, 1.1115399640402757]",4008.43809364998,None,4008.4377436959594,4008.5379514579545,s181_10132022,001,2022_Oct_13_1535,test_typingtask_norepeats,2020.2.10,59.74914166635238,
heond,heond,,,,,,,,,0,98,98,98,,,,,,,,,,,,,,,4013.9380149969948,None,"['h', 'e', 'o', 'n', 'd']",1,"[0.7714938630233519, 0.8594705470022745, 0.9074842890258878, 1.0754549030098133, 1.1555782919749618]",4013.9380149969948,None,4013.937831272994,4014.0378734029946,s181_10132022,001,2022_Oct_13_1535,test_typingtask_norepeats,2020.2.10,59.74914166635238,
faqir,faqir,,,,,,,,,0,99,99,99,,,,,,,,,,,,,,,4019.437924497004,None,"['f', 'a', 'q', 'i', 'r']",1,"[0.7755873459973373, 0.8636781200184487, 1.0876674330211245, 1.2236829100293107, 1.3196839300217107]",4019.437924497004,None,4019.438135997957,4019.537780291983,s181_10132022,001,2022_Oct_13_1535,test_typingtask_norepeats,2020.2.10,59.74914166635238,
there,there,,,,,,,,,0,100,100,100,,,,,,,,,,,,,,,4024.937983983953,None,"['t', 'h', 'e', 'r', 'e']",1,"[0.6116217030212283, 0.6835625169915147, 0.7395805949927308, 0.8276159429806285, 0.9075616500340402]",4024.937983983953,None,4024.937950503995,4025.037678663968,s181_10132022,001,2022_Oct_13_1535,test_typingtask_norepeats,2020.2.10,59.74914166635238,
would,would,,,,,,,,,0,101,101,101,,,,,,,,,,,,,,,4030.4381036019768,None,"['w', 'o', 'u', 'l', 'd']",1,"[0.5834877159795724, 0.6634651990025304, 0.7114833279629238, 0.8634885879582725, 0.9034517380059697]",4030.4381036019768,None,4030.4379978739717,4030.5381202269928,s181_10132022,001,2022_Oct_13_1535,test_typingtask_norepeats,2020.2.10,59.74914166635238,
edthe,edthe,,,,,,,,,0,102,102,102,,,,,,,,,,,,,,,4035.938163654995,None,"['e', 'd', 't', 'h', 'e']",1,"[0.6673149109701626, 0.819458112004213, 0.9714407720020972, 1.075310879969038, 1.131375668977853]",4035.938163654995,None,4035.937974200974,4036.037992290978,s181_10132022,001,2022_Oct_13_1535,test_typingtask_norepeats,2020.2.10,59.74914166635238,
therm,therm,,,,,,,,,0,103,103,103,,,,,,,,,,,,,,,4041.437890209956,None,"['t', 'h', 'e', 'r', 'm']",1,"[0.5997177839744836, 0.6717022879747674, 0.7516596339992248, 0.8157126239966601, 0.9197224989766255]",4041.437890209956,None,4041.438200595946,4041.538071435003,s181_10132022,001,2022_Oct_13_1535,test_typingtask_norepeats,2020.2.10,59.74914166635238,
kremp,kremp,,,,,,,,,0,104,104,104,,,,,,,,,,,,,,,4046.9380121569848,None,"['k', 'r', 'e', 'm', 'p']",1,"[0.7635818179696798, 0.8356194809894077, 0.8914879499934614, 0.9875169919687323, 1.0915893329656683]",4046.9380121569848,None,4046.93796454898,4047.0382292039576,s181_10132022,001,2022_Oct_13_1535,test_typingtask_norepeats,2020.2.10,59.74914166635238,
pykka,pykka,,,,,,,,,0,105,105,105,,,,,,,,,,,,,,,4052.45432841999,None,"['p', 'y', 'k', 'k', 'a']",1,"[0.6712320860242471, 0.8152403910062276, 1.0552265690057538, 1.1992709009791724, 1.311220925010275]",4052.45432841999,None,4052.454489572946,4052.5542480409495,s181_10132022,001,2022_Oct_13_1535,test_typingtask_norepeats,2020.2.10,59.74914166635238,
tithe,tithe,,,,,,,,,0,106,106,106,,,,,,,,,,,,,,,4057.954604005965,None,"['t', 'i', 't', 'h', 'e']",1,"[0.6749730379669927, 0.7469843429862522, 0.8428844250156544, 0.9149059350020252, 0.9870160549762659]",4057.954604005965,None,4057.9543738649636,4058.0545851819916,s181_10132022,001,2022_Oct_13_1535,test_typingtask_norepeats,2020.2.10,59.74914166635238,
cheer,cheer,,,,,,,,,0,107,107,107,,,,,,,,,,,,,,,4063.4547517159954,None,"['c', 'h', 'e', 'e', 'r']",1,"[0.86278352298541, 0.9267166940262541, 1.038795307977125, 1.1668517590151168, 1.3347227760241367]",4063.4547517159954,None,4063.455181014998,4063.554531694972,s181_10132022,001,2022_Oct_13_1535,test_typingtask_norepeats,2020.2.10,59.74914166635238,
belly,belly,,,,,,,,,0,108,108,108,,,,,,,,,,,,,,,4068.954674387991,None,"['b', 'e', 'l', 'l', 'y']",1,"[0.6508106810506433, 0.7148139800410718, 0.8268377670319751, 0.9789417490246706, 1.0989113440155052]",4068.954674387991,None,4068.954505261948,4069.0546349060023,s181_10132022,001,2022_Oct_13_1535,test_typingtask_norepeats,2020.2.10,59.74914166635238,
lucky,lucky,,,,,,,,,0,109,109,109,,,,,,,,,,,,,,,4074.454926253995,None,"['l', 'u', 'c', 'k', 'y']",1,"[0.6386243799934164, 0.7986686670337804, 0.8625858059967868, 0.9826521290233359, 1.1505589270382188]",4074.454926253995,None,4074.4546785299726,4074.554800557962,s181_10132022,001,2022_Oct_13_1535,test_typingtask_norepeats,2020.2.10,59.74914166635238,
heond,heond,,,,,,,,,0,110,110,110,,,,,,,,,,,,,,,4079.9547256549704,None,"['h', 'e', 'o', 'n', 'd']",1,"[0.7707969110342674, 0.8507503010332584, 0.8988141529844142, 1.0267377250129357, 1.09080487099709]",4079.9547256549704,None,4079.954717468977,4080.0545241679647,s181_10132022,001,2022_Oct_13_1535,test_typingtask_norepeats,2020.2.10,59.74914166635238,
about,about,,,,,,,,,0,111,111,111,,,,,,,,,,,,,,,4085.4548847369733,None,"['a', 'b', 'o', 'u', 't']",1,"[0.5746648400090635, 0.6626663850038312, 0.758613483980298, 0.7906638339627534, 0.8947126769926399]",4085.4548847369733,None,4085.4547106659566,4085.554662104987,s181_10132022,001,2022_Oct_13_1535,test_typingtask_norepeats,2020.2.10,59.74914166635238,
vodka,vodka,,,,,,,,,0,112,112,112,,,,,,,,,,,,,,,4090.954914902977,None,"['v', 'o', 'd', 'k', 'a']",1,"[0.7466456520487554, 0.8265676680020988, 0.914597669034265, 1.0026585530140437, 1.1066354300128296]",4090.954914902977,None,4090.9548026739913,4091.054784638982,s181_10132022,001,2022_Oct_13_1535,test_typingtask_norepeats,2020.2.10,59.74914166635238,
puppy,puppy,,,,,,,,,0,113,113,113,,,,,,,,,,,,,,,4096.455022625974,None,"['p', 'u', 'p', 'p', 'y']",1,"[0.6544549280079082, 0.758532085979823, 0.8865561910206452, 1.0144673390313983, 1.2145395430270582]",4096.455022625974,None,4096.454716138001,4096.554746268957,s181_10132022,001,2022_Oct_13_1535,test_typingtask_norepeats,2020.2.10,59.74914166635238,
edthe,edthe,,,,,,,,,0,114,114,114,,,,,,,,,,,,,,,4101.954701729002,None,"['e', 'd', 't', 'h', 'e']",1,"[0.8588559440104291, 1.0029094209894538, 1.1549023530096747, 1.250782809976954, 1.3147921930067241]",4101.954701729002,None,4101.954750594957,4102.054661817965,s181_10132022,001,2022_Oct_13_1535,test_typingtask_norepeats,2020.2.10,59.74914166635238,
cooed,cooed,,,,,,,,,0,115,115,115,,,,,,,,,,,,,,,4107.454652262968,None,"['c', 'o', 'o', 'e', 'd']",1,"[0.6628598849638365, 0.7749513409798965, 0.9189166289870627, 0.9989345069625415, 1.1428256889921613]",4107.454652262968,None,4107.454840324976,4107.554743018001,s181_10132022,001,2022_Oct_13_1535,test_typingtask_norepeats,2020.2.10,59.74914166635238,
vanru,vanru,,,,,,,,,0,116,116,116,,,,,,,,,,,,,,,4112.954775193997,None,"['v', 'a', 'n', 'r', 'u']",1,"[0.7548322699731216, 0.8188319809851237, 0.9227754769963212, 1.0266977649880573, 1.1228293890017085]",4112.954775193997,None,4112.954742546001,4113.05490175297,s181_10132022,001,2022_Oct_13_1535,test_typingtask_norepeats,2020.2.10,59.74914166635238,
puppy,puppy,,,,,,,,,0,117,117,117,,,,,,,,,,,,,,,4118.454756509978,None,"['p', 'u', 'p', 'p', 'y']",1,"[0.6388469730154611, 0.7668293510214426, 0.9107380850473419, 1.0388453589985147, 1.222860093053896]",4118.454756509978,None,4118.454646165,4118.554769023962,s181_10132022,001,2022_Oct_13_1535,test_typingtask_norepeats,2020.2.10,59.74914166635238,
haole,haole,,,,,,,,,0,118,118,118,,,,,,,,,,,,,,,4123.95481342898,None,"['h', 'a', 'o', 'l', 'e']",1,"[0.8346610289881937, 0.9067349979886785, 1.0186492680222727, 1.1788040160317905, 1.2667443139944226]",4123.95481342898,None,4123.954667848983,4124.055238178989,s181_10132022,001,2022_Oct_13_1535,test_typingtask_norepeats,2020.2.10,59.74914166635238,
about,about,,,,,,,,,0,119,119,119,,,,,,,,,,,,,,,4129.454726317956,None,"['a', 'b', 'o', 'u', 't']",1,"[0.5507563810097054, 0.6468639369704761, 0.7267700919765048, 0.7828733919886872, 0.8868366259848699]",4129.454726317956,None,4129.454606492986,4129.554747138987,s181_10132022,001,2022_Oct_13_1535,test_typingtask_norepeats,2020.2.10,59.74914166635238,
