string,corrAns,practice_trials.thisRepN,practice_trials.thisTrialN,practice_trials.thisN,practice_trials.thisIndex,trials_1.thisRepN,trials_1.thisTrialN,trials_1.thisN,trials_1.thisIndex,trials_2.thisRepN,trials_2.thisTrialN,trials_2.thisN,trials_2.thisIndex,key_resp_0.keys,key_resp_0.corr,key_resp_0.rt,text_1.started,text_1.stopped,key_resp_1.keys,key_resp_1.corr,key_resp_1.rt,key_resp_1.started,key_resp_1.stopped,sound_1A_1.started,sound_1A_1.stopped,break_time.started,break_time.stopped,text_2.started,text_2.stopped,key_resp_2.keys,key_resp_2.corr,key_resp_2.rt,key_resp_2.started,key_resp_2.stopped,sound_1A_2.started,sound_1A_2.stopped,participant,session,date,expName,psychopyVersion,frameRate,
fresh,fresh,0,0,0,0,,,,,,,,,"['f', 'r', 'e', 's', 'h']",1,"[0.862802819989156, 1.0548076949780807, 1.1668073170003481, 1.2789368249941617, 1.4869306709733792]",,,,,,,,,,,,,,,,,,,,,s182_10192022,001,2022_Oct_19_1429,test_typingtask_norepeats,2020.2.10,59.983476102419836,
dream,dream,0,1,1,1,,,,,,,,,"['d', 'r', 'e', 'a', 'm']",1,"[0.8341907099820673, 1.0023487620055676, 1.0823156679980457, 1.2023190049803816, 1.538330152980052]",,,,,,,,,,,,,,,,,,,,,s182_10192022,001,2022_Oct_19_1429,test_typingtask_norepeats,2020.2.10,59.983476102419836,
slime,slime,0,2,2,2,,,,,,,,,"['s', 'l', 'i', 'm', 'e']",1,"[0.8224595930078067, 1.070517710992135, 1.1504314729827456, 1.4465119219967164, 1.550428184971679]",,,,,,,,,,,,,,,,,,,,,s182_10192022,001,2022_Oct_19_1429,test_typingtask_norepeats,2020.2.10,59.983476102419836,
therm,therm,,,,,0,0,0,0,,,,,,,,2099.189249017043,None,"['t', 'h', 'e', 'r', 'm']",1,"[1.277677662030328, 1.4536162170115858, 1.5577007050160319, 1.6457027550204657, 1.7977342000231147]",2099.189249017043,None,2099.183682837599,2099.2833418759983,,,,,,,,,,,,s182_10192022,001,2022_Oct_19_1429,test_typingtask_norepeats,2020.2.10,59.983476102419836,
faqir,faqir,,,,,0,1,1,1,,,,,,,,2104.700080937997,None,"['f', 'a', 'q', 'u', 'i', 'r']",0,"[1.2468637120327912, 1.4228670920128934, 1.878820029029157, 2.0468748370185494, 2.1109401659923606, 2.3348699960042723]",2104.700080937997,None,2104.6999477256495,2104.8002851140336,,,,,,,,,,,,s182_10192022,001,2022_Oct_19_1429,test_typingtask_norepeats,2020.2.10,59.983476102419836,
zibja,zibja,,,,,0,2,2,2,,,,,,,,2110.2173564180266,None,"['z', 'i', 'b', 'j', 'a']",1,"[1.4576322600478306, 1.8094898770214058, 2.4816161580383778, 2.7776468510273844, 2.881655942008365]",2110.2173564180266,None,2110.2169637135985,2110.3168091630214,,,,,,,,,,,,s182_10192022,001,2022_Oct_19_1429,test_typingtask_norepeats,2020.2.10,59.983476102419836,
theme,theme,,,,,0,3,3,3,,,,,,,,2115.7166054800036,None,"['t', 'h', 'e', 'm', 'e']",1,"[0.8223581869970076, 0.9342522239894606, 1.0783333720173687, 1.2543117289897054, 1.3183361500268802]",2115.7166054800036,None,2115.71648402962,2115.816663781996,,,,,,,,,,,,s182_10192022,001,2022_Oct_19_1429,test_typingtask_norepeats,2020.2.10,59.983476102419836,
therm,therm,,,,,0,4,4,4,,,,,,,,2121.2164207750466,None,"['t', 'h', 'e', 'r', 'm']",1,"[0.810498442966491, 0.9464505699579604, 1.0264500479679555, 1.1064375569694676, 1.2424264309811406]",2121.2164207750466,None,2121.2165213446306,2121.3165811880026,,,,,,,,,,,,s182_10192022,001,2022_Oct_19_1429,test_typingtask_norepeats,2020.2.10,59.983476102419836,
theme,theme,,,,,0,5,5,5,,,,,,,,2126.716475340014,None,"['t', 'h', 'e', 'm', 'e']",1,"[0.7263698760070838, 0.8304807630483992, 0.9343902360415086, 1.078486087033525, 1.182490075007081]",2126.716475340014,None,2126.716472147632,2126.8167866840377,,,,,,,,,,,,s182_10192022,001,2022_Oct_19_1429,test_typingtask_norepeats,2020.2.10,59.983476102419836,
zibja,zibja,,,,,0,6,6,6,,,,,,,,2132.216676904005,None,"['z', 'i', 'b', 'j', 'a']",1,"[1.3622139649814926, 1.5941819819854572, 2.2582626169896685, 2.4663012659875676, 2.5942372099962085]",2132.216676904005,None,2132.2168086656193,2132.316815930011,,,,,,,,,,,,s182_10192022,001,2022_Oct_19_1429,test_typingtask_norepeats,2020.2.10,59.983476102419836,
cheer,cheer,,,,,0,7,7,7,,,,,,,,2137.71638195205,None,"['c', 'h', 'e', 'e', 'r']",1,"[0.8786195449647494, 0.9586143769556656, 1.1344830509624444, 1.278617822972592, 1.3665775889530778]",2137.71638195205,None,2137.716557563649,2137.8164669060498,,,,,,,,,,,,s182_10192022,001,2022_Oct_19_1429,test_typingtask_norepeats,2020.2.10,59.983476102419836,
zibja,zibja,,,,,0,8,8,8,,,,,,,,2143.2166572780116,None,"['z', 'i', 'b', 'j', 'a']",1,"[1.2262118160142563, 1.4582086589653045, 1.690320827998221, 1.914313815010246, 2.034206277981866]",2143.2166572780116,None,2143.216851377644,2143.316859079001,,,,,,,,,,,,s182_10192022,001,2022_Oct_19_1429,test_typingtask_norepeats,2020.2.10,59.983476102419836,
buddy,buddy,,,,,0,9,9,9,,,,,,,,2148.716535158048,None,"['b', 'u', 'd', 'd', 'y']",1,"[1.2623746669851243, 1.5343313260236755, 1.7744042130070738, 1.9503301460063085, 2.2623334730160423]",2148.716535158048,None,2148.7165182896015,2148.8164651000407,,,,,,,,,,,,s182_10192022,001,2022_Oct_19_1429,test_typingtask_norepeats,2020.2.10,59.983476102419836,
cheer,cheer,,,,,0,10,10,10,,,,,,,,2154.217534946045,None,"['c', 'h', 'e', 'e', 'r']",1,"[0.7934612730168737, 0.8894377429969609, 1.0573229040019214, 1.2174283370259218, 1.2814198310370557]",2154.217534946045,None,2154.2169590006406,2154.3166406020173,,,,,,,,,,,,s182_10192022,001,2022_Oct_19_1429,test_typingtask_norepeats,2020.2.10,59.983476102419836,
theme,theme,,,,,0,11,11,11,,,,,,,,2159.7166425590403,None,"['t', 'h', 'e', 'm', 'e']",1,"[0.6542934700264595, 0.7422300620237365, 0.8703451739856973, 0.9742309559951536, 1.0782847270020284]",2159.7166425590403,None,2159.716499350633,2159.8165786660393,,,,,,,,,,,,s182_10192022,001,2022_Oct_19_1429,test_typingtask_norepeats,2020.2.10,59.983476102419836,
edthe,edthe,,,,,0,12,12,12,,,,,,,,2165.216707125015,None,"['e', 'd', 't', 'h', 'e']",1,"[1.1141487210406922, 1.2822292640339583, 1.4982518320321105, 1.5942274710396305, 1.7302645480376668]",2165.216707125015,None,2165.216529444634,2165.3165142430225,,,,,,,,,,,,s182_10192022,001,2022_Oct_19_1429,test_typingtask_norepeats,2020.2.10,59.983476102419836,
lucky,lucky,,,,,0,13,13,13,,,,,,,,2170.716809565027,None,"['l', 'u', 'c', 'k', 'y']",1,"[2.1821121359826066, 2.3501530599896796, 2.502142393961549, 2.654126457986422, 2.8541295959730633]",2170.716809565027,None,2170.7170645996403,2170.816788349999,,,,,,,,,,,,s182_10192022,001,2022_Oct_19_1429,test_typingtask_norepeats,2020.2.10,59.983476102419836,
think,think,,,,,0,14,14,14,,,,,,,,2176.2168681879994,None,"['t', 'h', 'n', 'k']",0,"[0.618101398984436, 0.7220797520130873, 0.9620542569900863, 1.0820567139890045]",2176.2168681879994,None,2176.216964933631,2176.3166694590473,,,,,,,,,,,,s182_10192022,001,2022_Oct_19_1429,test_typingtask_norepeats,2020.2.10,59.983476102419836,
theme,theme,,,,,0,15,15,15,,,,,,,,2181.716864889022,None,"['t', 'h', 'e', 'm', 'e']",1,"[0.6540938129764982, 0.758107564994134, 0.894107697007712, 1.1259888429776765, 1.2220389230060391]",2181.716864889022,None,2181.7169221566464,2181.816917593009,,,,,,,,,,,,s182_10192022,001,2022_Oct_19_1429,test_typingtask_norepeats,2020.2.10,59.983476102419836,
champ,champ,,,,,0,16,16,16,,,,,,,,2187.2170091660228,None,"['c', 'h', 'a', 'm', 'p']",1,"[0.7538981040124781, 0.825859184958972, 1.105875373003073, 1.2659388679894619, 1.6418752479949035]",2187.2170091660228,None,2187.216885483608,2187.3169752490357,,,,,,,,,,,,s182_10192022,001,2022_Oct_19_1429,test_typingtask_norepeats,2020.2.10,59.983476102419836,
belly,belly,,,,,0,17,17,17,,,,,,,,2192.7171847050195,None,"['b', 'e', 'l', 'l', 'y']",1,"[0.8617969430051744, 0.9737688049790449, 1.2617630279855803, 1.42168655898422, 1.6697890519862995]",2192.7171847050195,None,2192.716871726635,2192.8171761150006,,,,,,,,,,,,s182_10192022,001,2022_Oct_19_1429,test_typingtask_norepeats,2020.2.10,59.983476102419836,
therm,therm,,,,,0,18,18,18,,,,,,,,2198.216565128998,None,"['t', 'h', 'e', 'r', 'm']",1,"[0.6664031469845213, 0.7463016560068354, 0.8583579810219817, 0.9944333740277216, 1.3303824180038646]",2198.216565128998,None,2198.2166515996387,2198.316634974035,,,,,,,,,,,,s182_10192022,001,2022_Oct_19_1429,test_typingtask_norepeats,2020.2.10,59.983476102419836,
tithe,tithe,,,,,0,19,19,19,,,,,,,,2203.7167193120113,None,"['t', 'h', 't', 'h', 'e']",0,"[0.9742630399996415, 1.1902222689823247, 2.8382638979819603, 2.926149522943888, 3.022150034958031]",2203.7167193120113,None,2203.716737079626,2203.8166345650097,,,,,,,,,,,,s182_10192022,001,2022_Oct_19_1429,test_typingtask_norepeats,2020.2.10,59.983476102419836,
cheer,cheer,,,,,0,20,20,20,,,,,,,,2209.2168853200274,None,"['c', 'h', 'e', 'e', 'r']",1,"[1.058090734994039, 1.154069354000967, 1.3140234849997796, 1.4900424720253795, 1.6259842819999903]",2209.2168853200274,None,2209.216956194624,2209.3167674670112,,,,,,,,,,,,s182_10192022,001,2022_Oct_19_1429,test_typingtask_norepeats,2020.2.10,59.983476102419836,
vanru,vanru,,,,,0,21,21,21,,,,,,,,2214.717676306027,None,"['v', 'a', 'n', 'r', 'u']",1,"[1.1812350139953196, 1.3411578859668225, 1.685217869002372, 1.9331659899908118, 2.0531919919885695]",2214.717676306027,None,2214.7166984346286,2214.816628686036,,,,,,,,,,,,s182_10192022,001,2022_Oct_19_1429,test_typingtask_norepeats,2020.2.10,59.983476102419836,
druze,druze,,,,,0,22,22,22,,,,,,,,2220.216540969035,None,"['d', 'r', 'u', 'z', 'e']",1,"[1.074334041972179, 1.2504345219931565, 1.4503551630186848, 1.8743834539782256, 2.266430116025731]",2220.216540969035,None,2220.2165217936445,2220.316512873047,,,,,,,,,,,,s182_10192022,001,2022_Oct_19_1429,test_typingtask_norepeats,2020.2.10,59.983476102419836,
tithe,tithe,,,,,0,23,23,23,,,,,,,,2225.7169175110175,None,"['t', 'i', 't', 'h', 'e']",1,"[1.0059636840014718, 1.1820521909976378, 1.3179866910213605, 1.4700538080069236, 1.5660052460152656]",2225.7169175110175,None,2225.7169672756163,2225.8170274330187,,,,,,,,,,,,s182_10192022,001,2022_Oct_19_1429,test_typingtask_norepeats,2020.2.10,59.983476102419836,
kremp,kremp,,,,,0,24,24,24,,,,,,,,2231.2170528310235,None,"['k', 'r', 'e', 'm', 'o']",0,"[1.2658833220484667, 1.4578815450076945, 1.5378753750119358, 1.761832262040116, 1.9618264270247892]",2231.2170528310235,None,2231.2167295366116,2231.316904406005,,,,,,,,,,,,s182_10192022,001,2022_Oct_19_1429,test_typingtask_norepeats,2020.2.10,59.983476102419836,
about,about,,,,,0,25,25,25,,,,,,,,2236.7166741600377,None,"['a', 'b', 'o', 'u', 't']",1,"[0.8622609379817732, 1.030255916994065, 1.3023010370088741, 1.3823516329866834, 1.5421758210286498]",2236.7166741600377,None,2236.7166175976336,2236.8168879339937,,,,,,,,,,,,s182_10192022,001,2022_Oct_19_1429,test_typingtask_norepeats,2020.2.10,59.983476102419836,
cheer,cheer,,,,,0,26,26,26,,,,,,,,2242.216995130002,None,"['c', 'h', 'e', 'e', 'r']",1,"[0.7459156149998307, 0.8338685249909759, 0.9859648239798844, 1.1699079910176806, 1.2659754420164973]",2242.216995130002,None,2242.2169601916275,2242.316892191011,,,,,,,,,,,,s182_10192022,001,2022_Oct_19_1429,test_typingtask_norepeats,2020.2.10,59.983476102419836,
pykka,pykka,,,,,0,27,27,27,,,,,,,,2247.7170042730286,None,"['p', 'y', 'k', 'k', 'a']",1,"[1.2299659149721265, 1.4779580109752715, 1.7819658129592426, 1.9178821649984457, 1.9739212519489229]",2247.7170042730286,None,2247.7170884986,2247.816917699005,,,,,,,,,,,,s182_10192022,001,2022_Oct_19_1429,test_typingtask_norepeats,2020.2.10,59.983476102419836,
about,about,,,,,0,28,28,28,,,,,,,,2253.216929767048,None,"['a', 'b', 'o', 'u', 't']",1,"[0.7459326449898072, 0.9380139030399732, 1.162005765014328, 1.2660036039887927, 1.3619632420013659]",2253.216929767048,None,2253.2170355646113,2253.3170417000074,,,,,,,,,,,,s182_10192022,001,2022_Oct_19_1429,test_typingtask_norepeats,2020.2.10,59.983476102419836,
vodka,vodka,,,,,0,29,29,29,,,,,,,,2258.7169127400266,None,"['v', 'o', 'd', 'a', 'k']",0,"[1.118059494998306, 1.4060740940039977, 1.5660585680161603, 1.7500099189928733, 2.2060233629890718]",2258.7169127400266,None,2258.7167467426216,2258.816770805046,,,,,,,,,,,,s182_10192022,001,2022_Oct_19_1429,test_typingtask_norepeats,2020.2.10,59.983476102419836,
there,there,,,,,0,30,30,30,,,,,,,,2264.2171960780397,None,"['t', 'h', 'e', 'r', 'e']",1,"[0.8017529229982756, 0.8737327600247227, 0.9937035200418904, 1.0736954940366559, 1.1937243090360425]",2264.2171960780397,None,2264.216960417648,2264.3170044090366,,,,,,,,,,,,s182_10192022,001,2022_Oct_19_1429,test_typingtask_norepeats,2020.2.10,59.983476102419836,
edthe,edthe,,,,,0,31,31,31,,,,,,,,2269.7173664500006,None,"['e', 'd', 't', 'h', 'e']",1,"[0.7095233519794419, 0.9015510689932853, 1.0935386909986846, 1.173600488982629, 1.3095543229719624]",2269.7173664500006,None,2269.717026495625,2269.816834172001,,,,,,,,,,,,s182_10192022,001,2022_Oct_19_1429,test_typingtask_norepeats,2020.2.10,59.983476102419836,
faqir,faqir,,,,,0,32,32,32,,,,,,,,2275.217023441044,None,"['f', 'a', 'q', 'i', 'r']",1,"[1.1939300840022042, 1.3298883480019867, 1.6898470949963666, 2.4338398189865984, 2.5458395459572785]",2275.217023441044,None,2275.21706553463,2275.3172260510037,,,,,,,,,,,,s182_10192022,001,2022_Oct_19_1429,test_typingtask_norepeats,2020.2.10,59.983476102419836,
there,there,,,,,0,33,33,33,,,,,,,,2280.716926638037,None,"['t', 'h', 'e', 'r', 'e']",1,"[0.6460095070069656, 0.7660451949923299, 0.8780331069719978, 0.9259349479689263, 1.0459518719580956]",2280.716926638037,None,2280.717263671645,2280.817003048025,,,,,,,,,,,,s182_10192022,001,2022_Oct_19_1429,test_typingtask_norepeats,2020.2.10,59.983476102419836,
haole,haole,,,,,0,34,34,34,,,,,,,,2286.217066420999,None,"['h', 'a', 'o', 'l', 'e']",1,"[1.0738690010039136, 1.2659068569773808, 1.585853568976745, 1.8578679150086828, 1.977837291022297]",2286.217066420999,None,2286.2170202105945,2286.3170779480133,,,,,,,,,,,,s182_10192022,001,2022_Oct_19_1429,test_typingtask_norepeats,2020.2.10,59.983476102419836,
champ,champ,,,,,0,35,35,35,,,,,,,,2291.7170109400176,None,"['c', 'h', 'a', 'm', 'p']",1,"[0.7419293230050243, 0.8539245579740964, 0.9899712759652175, 1.1899245170061477, 1.4059113489929587]",2291.7170109400176,None,2291.717038918595,2291.8171081379987,,,,,,,,,,,,s182_10192022,001,2022_Oct_19_1429,test_typingtask_norepeats,2020.2.10,59.983476102419836,
heond,heond,,,,,0,36,36,36,,,,,,,,2297.2170008020476,None,"['h', 'e', 'o', 'n', 'd']",1,"[1.2499257170129567, 1.40186718798941, 1.7299692960223183, 1.8579908990068361, 2.041913065011613]",2297.2170008020476,None,2297.2169234116036,2297.317038876994,,,,,,,,,,,,s182_10192022,001,2022_Oct_19_1429,test_typingtask_norepeats,2020.2.10,59.983476102419836,
puppy,puppy,,,,,0,37,37,37,,,,,,,,2302.7171429410228,None,"['p', 'u', 'p', 'p', 'y']",1,"[0.9417950679780915, 1.2297619850141928, 1.6057922670152038, 1.7418046909733675, 1.9257137539680116]",2302.7171429410228,None,2302.7169417576106,2302.8170793839963,,,,,,,,,,,,s182_10192022,001,2022_Oct_19_1429,test_typingtask_norepeats,2020.2.10,59.983476102419836,
would,would,,,,,0,38,38,38,,,,,,,,2308.216952004994,None,"['w', 'o', 'u', 'l', 'd']",1,"[1.0820162519812584, 1.1860197719652206, 1.258015580009669, 1.4660200059879571, 1.537973819009494]",2308.216952004994,None,2308.2168723636014,2308.317184401036,,,,,,,,,,,,s182_10192022,001,2022_Oct_19_1429,test_typingtask_norepeats,2020.2.10,59.983476102419836,
cheer,cheer,,,,,0,39,39,39,,,,,,,,2313.716982109996,None,"['c', 'h', 'e', 'e', 'r']",1,"[0.8620129959890619, 0.9499908320140094, 1.1338985819602385, 1.3098879589815624, 1.4219954899745062]",2313.716982109996,None,2313.7171091856026,2313.8169113770127,,,,,,,,,,,,s182_10192022,001,2022_Oct_19_1429,test_typingtask_norepeats,2020.2.10,59.983476102419836,
haole,haole,,,,,0,40,40,40,,,,,,,,2319.217033762019,None,"['h', 'a', 'o', 'l', 'e']",1,"[0.8019386840169318, 0.9539469039882533, 1.1299196589970961, 1.3299161900067702, 1.4659344929968938]",2319.217033762019,None,2319.2171625726214,2319.3168807520415,,,,,,,,,,,,s182_10192022,001,2022_Oct_19_1429,test_typingtask_norepeats,2020.2.10,59.983476102419836,
would,would,,,,,0,41,41,41,,,,,,,,2324.7168526570313,None,"['w', 'o', 'u', 'l', 'd']",1,"[0.7021345319808461, 0.8620623400202021, 0.89402331400197, 1.1580155179835856, 1.2620748429908417]",2324.7168526570313,None,2324.716873682645,2324.8168073570123,,,,,,,,,,,,s182_10192022,001,2022_Oct_19_1429,test_typingtask_norepeats,2020.2.10,59.983476102419836,
haole,haole,,,,,0,42,42,42,,,,,,,,2330.217127265001,None,"['h', 'a', 'o', 'l', 'e']",1,"[0.7937508699833415, 1.0257370119797997, 1.2337246609968133, 1.4418232970056124, 1.569857565977145]",2330.217127265001,None,2330.2172196706115,2330.3170946009923,,,,,,,,,,,,s182_10192022,001,2022_Oct_19_1429,test_typingtask_norepeats,2020.2.10,59.983476102419836,
heond,heond,,,,,0,43,43,43,,,,,,,,2335.716842718015,None,"['h', 'e', 'o', 'n', 'd']",1,"[0.926003344997298, 1.1180063390056603, 1.302098396990914, 1.542092161020264, 1.7340069460333325]",2335.716842718015,None,2335.7167488316363,2335.8171963280183,,,,,,,,,,,,s182_10192022,001,2022_Oct_19_1429,test_typingtask_norepeats,2020.2.10,59.983476102419836,
lucky,lucky,,,,,0,44,44,44,,,,,,,,2341.216867898009,None,"['l', 'u', 'c', 'k', 'y']",1,"[0.842016041977331, 1.0180352429742925, 1.2339855959871784, 1.4581244380096905, 1.833997820969671]",2341.216867898009,None,2341.216764590604,2341.317009225022,,,,,,,,,,,,s182_10192022,001,2022_Oct_19_1429,test_typingtask_norepeats,2020.2.10,59.983476102419836,
puppy,puppy,,,,,0,45,45,45,,,,,,,,2346.71701208601,None,"['p', 'u', 'p', 'p', 'y']",1,"[0.9978881089482456, 1.181875031965319, 1.437954633962363, 1.5899625049787574, 1.8219251289847307]",2346.71701208601,None,2346.7171913116063,2346.8171710930183,,,,,,,,,,,,s182_10192022,001,2022_Oct_19_1429,test_typingtask_norepeats,2020.2.10,59.983476102419836,
think,think,,,,,0,46,46,46,,,,,,,,2352.217108262994,None,"['t', 'h', 'i', 'n', 'k']",1,"[0.7778360369848087, 0.8657880039536394, 0.9937578749959357, 1.0578807189594954, 1.1778427499812096]",2352.217108262994,None,2352.2171887146133,2352.317160414008,,,,,,,,,,,,s182_10192022,001,2022_Oct_19_1429,test_typingtask_norepeats,2020.2.10,59.983476102419836,
heond,heond,,,,,0,47,47,47,,,,,,,,2357.7169521960313,None,"['h', 'e', 'o', 'n', 'd']",1,"[0.7420335449860431, 0.9019632919807918, 1.3979260150226764, 1.558039573021233, 1.7820195920066908]",2357.7169521960313,None,2357.717337108642,2357.8170705999946,,,,,,,,,,,,s182_10192022,001,2022_Oct_19_1429,test_typingtask_norepeats,2020.2.10,59.983476102419836,
faqir,faqir,,,,,0,48,48,48,,,,,,,,2363.2168937330134,None,"['f', 'a', 'q', 'i', 'r']",1,"[1.3700805779662915, 1.530009358015377, 1.8580449469736777, 2.1540377399651334, 2.322042886982672]",2363.2168937330134,None,2363.2171656296296,2363.3172574450145,,,,,,,,,,,,s182_10192022,001,2022_Oct_19_1429,test_typingtask_norepeats,2020.2.10,59.983476102419836,
pykka,pykka,,,,,0,49,49,49,,,,,,,,2368.717147267016,None,"['p', 'y', 'k', 'k', 'a']",1,"[1.1097527599777095, 1.3498245089431293, 1.725719443988055, 1.8617636419949122, 1.9498214819468558]",2368.717147267016,None,2368.7169001976317,2368.817286483012,,,,,,,,,,,,s182_10192022,001,2022_Oct_19_1429,test_typingtask_norepeats,2020.2.10,59.983476102419836,
would,would,,,,,0,50,50,50,,,,,,,,2374.2171784870443,None,"['w', 'o', 'u', 'l', 'd']",1,"[0.9378070530365221, 1.0096745300106704, 1.0817909420002252, 1.3057501940056682, 1.4017651790054515]",2374.2171784870443,None,2374.217062994622,2374.317256639013,,,,,,,,,,,,s182_10192022,001,2022_Oct_19_1429,test_typingtask_norepeats,2020.2.10,59.983476102419836,
cooed,cooed,,,,,0,51,51,51,,,,,,,,2379.717202712025,None,"['c', 'o', 'o', 'e', 'd']",1,"[0.7976714589749463, 1.0137595339911059, 1.1576610539923422, 1.301768567005638, 1.5336504059960134]",2379.717202712025,None,2379.717141940625,2379.817158885009,,,,,,,,,,,,s182_10192022,001,2022_Oct_19_1429,test_typingtask_norepeats,2020.2.10,59.983476102419836,
vanru,vanru,,,,,0,52,52,52,,,,,,,,2385.2170698629925,None,"['v', 'a', 'n', 'r', 'u']",1,"[0.8258237449917942, 0.9779159229947254, 1.4579163520247675, 1.6978012600447983, 1.8337943039950915]",2385.2170698629925,None,2385.2170808655965,2385.3171716410434,,,,,,,,,,,,s182_10192022,001,2022_Oct_19_1429,test_typingtask_norepeats,2020.2.10,59.983476102419836,
there,there,,,,,0,53,53,53,,,,,,,,2390.717178379011,None,"['t', 'h', 'e', 'r', 'e']",1,"[0.6057542309863493, 0.7017370690009557, 0.8217487760121003, 0.8936775850015692, 1.005805047985632]",2390.717178379011,None,2390.7172089176192,2390.816931584035,,,,,,,,,,,,s182_10192022,001,2022_Oct_19_1429,test_typingtask_norepeats,2020.2.10,59.983476102419836,
vanru,vanru,,,,,0,54,54,54,,,,,,,,2396.217170398042,None,"['v', 'a', 'n', 'r', 'u']",1,"[0.8257208280265331, 0.9697627740097232, 1.4017668040469289, 1.609693071048241, 1.7058034830261022]",2396.217170398042,None,2396.217121529643,2396.316760622023,,,,,,,,,,,,s182_10192022,001,2022_Oct_19_1429,test_typingtask_norepeats,2020.2.10,59.983476102419836,
kremp,kremp,,,,,0,55,55,55,,,,,,,,2401.717171780998,None,"['k', 'r', 'e', 'm', 'p']",1,"[1.0137861220282502, 1.1497598940040916, 1.2216955580515787, 1.4058042980032042, 1.5977385810110718]",2401.717171780998,None,2401.7172942846255,2401.8171947619994,,,,,,,,,,,,s182_10192022,001,2022_Oct_19_1429,test_typingtask_norepeats,2020.2.10,59.983476102419836,
faqir,faqir,,,,,0,56,56,56,,,,,,,,2407.217340345029,None,"['f', 'a', 'q', 'i', 'r']",1,"[0.8016279059811495, 0.9615565529675223, 1.2255599810159765, 1.5215852609835565, 1.6895868629799224]",2407.217340345029,None,2407.217206420627,2407.3172965510166,,,,,,,,,,,,s182_10192022,001,2022_Oct_19_1429,test_typingtask_norepeats,2020.2.10,59.983476102419836,
lucky,lucky,,,,,0,57,57,57,,,,,,,,2412.71743583004,None,"['l', 'k', 'u', 'c', 'k', 'y']",0,"[0.973508219991345, 0.973508219991345, 1.0934454819653183, 1.2775196459842846, 1.453543756972067, 1.8374608180020005]",2412.71743583004,None,2412.71725808662,2412.8171405960456,,,,,,,,,,,,s182_10192022,001,2022_Oct_19_1429,test_typingtask_norepeats,2020.2.10,59.983476102419836,
puppy,puppy,,,,,0,58,58,58,,,,,,,,2418.217170268006,None,"['p', 'u', 'p', 'p', 'y']",1,"[1.1137963369837962, 1.257793930999469, 1.4817527999985032, 1.6337111769826151, 1.7377956389682367]",2418.217170268006,None,2418.2172928066166,2418.3170684550423,,,,,,,,,,,,s182_10192022,001,2022_Oct_19_1429,test_typingtask_norepeats,2020.2.10,59.983476102419836,
tithe,tithe,,,,,0,59,59,59,,,,,,,,2423.717070379993,None,"['t', 'i', 't', 'h', 'e']",1,"[0.701901372987777, 1.029887035023421, 1.173904212017078, 1.453856647014618, 1.6219142660265788]",2423.717070379993,None,2423.717266754614,2423.817235072027,,,,,,,,,,,,s182_10192022,001,2022_Oct_19_1429,test_typingtask_norepeats,2020.2.10,59.983476102419836,
therm,therm,,,,,0,60,60,60,,,,,,,,2429.2170852540294,None,"['t', 'h', 'e', 'r', 'm']",1,"[0.6418924169847742, 0.7699354480137117, 0.8578897650004365, 0.9138681110343896, 1.0898507270030677]",2429.2170852540294,None,2429.2172830176014,2429.317173362011,,,,,,,,,,,,s182_10192022,001,2022_Oct_19_1429,test_typingtask_norepeats,2020.2.10,59.983476102419836,
would,would,,,,,0,61,61,61,,,,,,,,2434.7167972410098,None,"['w', 'o', 'u', 'l', 'd']",1,"[0.830174159957096, 0.9340684899943881, 0.9981166389770806, 1.2221491339732893, 1.3180691019515507]",2434.7167972410098,None,2434.7170202296284,2434.8172305379994,,,,,,,,,,,,s182_10192022,001,2022_Oct_19_1429,test_typingtask_norepeats,2020.2.10,59.983476102419836,
cooed,cooed,,,,,0,62,62,62,,,,,,,,2440.217187975999,None,"['c', 'o', 'o', 'e', 'd']",1,"[0.6977873620344326, 0.9057477820315398, 1.0257809460163116, 1.1537816349882632, 1.3218343009939417]",2440.217187975999,None,2440.217213527608,2440.3172220830456,,,,,,,,,,,,s182_10192022,001,2022_Oct_19_1429,test_typingtask_norepeats,2020.2.10,59.983476102419836,
edthe,edthe,,,,,0,63,63,63,,,,,,,,2445.717338293034,None,"['e', 'd', 't', 'h', 'e']",1,"[0.7256083430256695, 0.9095360350329429, 1.149600459029898, 1.229619249003008, 1.3496329960180447]",2445.717338293034,None,2445.717107875639,2445.817415569036,,,,,,,,,,,,s182_10192022,001,2022_Oct_19_1429,test_typingtask_norepeats,2020.2.10,59.983476102419836,
belly,belly,,,,,0,64,64,64,,,,,,,,2451.217250754009,None,"['b', 'e', 'l', 'l', 'y']",1,"[0.7297015799558721, 0.8336138289887458, 1.033611619961448, 1.1696763349464163, 1.385723381943535]",2451.217250754009,None,2451.2172142136433,2451.3173183079925,,,,,,,,,,,,s182_10192022,001,2022_Oct_19_1429,test_typingtask_norepeats,2020.2.10,59.983476102419836,
cooed,cooed,,,,,0,65,65,65,,,,,,,,2456.71693449904,None,"['c', 'o', 'o', 'e', 'd']",1,"[0.5979516470106319, 0.7899955870234407, 0.8939325070241466, 1.0380500430474058, 1.1899963580071926]",2456.71693449904,None,2456.716996657621,2456.8169423040235,,,,,,,,,,,,s182_10192022,001,2022_Oct_19_1429,test_typingtask_norepeats,2020.2.10,59.983476102419836,
champ,champ,,,,,0,66,66,66,,,,,,,,2462.2172148250393,None,"['c', 'h', 'a', 'm', 'p']",1,"[0.7297565219923854, 0.8577537060482427, 0.9857547280262224, 1.1057125700172037, 1.3056808260153048]",2462.2172148250393,None,2462.217329955619,2462.3171648830175,,,,,,,,,,,,s182_10192022,001,2022_Oct_19_1429,test_typingtask_norepeats,2020.2.10,59.983476102419836,
buddy,buddy,,,,,0,67,67,67,,,,,,,,2467.7173311440274,None,"['b', 'u', 'd', 'd', 'y']",1,"[0.9175318450434133, 1.0776845480431803, 1.309540864021983, 1.4776358010130934, 1.6856563379988074]",2467.7173311440274,None,2467.717479106638,2467.8172351770336,,,,,,,,,,,,s182_10192022,001,2022_Oct_19_1429,test_typingtask_norepeats,2020.2.10,59.983476102419836,
vanru,vanru,,,,,0,68,68,68,,,,,,,,2473.2170728920028,None,"['v', 'a', 'n', 'r', 'u']",1,"[0.8418527339817956, 0.9458181289955974, 1.0978368999785744, 1.3698655319749378, 1.4658308289945126]",2473.2170728920028,None,2473.2168134866106,2473.3169301510206,,,,,,,,,,,,s182_10192022,001,2022_Oct_19_1429,test_typingtask_norepeats,2020.2.10,59.983476102419836,
vodka,vodka,,,,,0,69,69,69,,,,,,,,2478.7173759140423,None,"['v', 'o', 'd', 'k', 'a']",1,"[0.7894985669991001, 1.1575620620278642, 1.3095001190085895, 1.4455405980115756, 1.5655627450323664]",2478.7173759140423,None,2478.7173339116443,2478.8172802430345,,,,,,,,,,,,s182_10192022,001,2022_Oct_19_1429,test_typingtask_norepeats,2020.2.10,59.983476102419836,
pykka,pykka,,,,,0,70,70,70,,,,,,,,2484.2175367420423,None,"['p', 'y', 'k', 'k', 'a']",1,"[0.937335135997273, 1.5053960800287314, 1.8093343850341626, 1.9534063460305333, 2.0413384130224586]",2484.2175367420423,None,2484.217355914606,2484.31725764001,,,,,,,,,,,,s182_10192022,001,2022_Oct_19_1429,test_typingtask_norepeats,2020.2.10,59.983476102419836,
lucky,lucky,,,,,0,71,71,71,,,,,,,,2489.717370019993,None,"['l', 'u', 'c', 'k', 'y']",1,"[1.3255670810467564, 1.4616281980415806, 1.6135998030076735, 1.7416585049941204, 1.9656083390000276]",2489.717370019993,None,2489.717361529608,2489.8171952020493,,,,,,,,,,,,s182_10192022,001,2022_Oct_19_1429,test_typingtask_norepeats,2020.2.10,59.983476102419836,
kremp,kremp,,,,,0,72,72,72,,,,,,,,2495.2169054620317,None,"['k', 'r', 'e', 'm', 'p']",1,"[0.8339372290065512, 0.9620229679858312, 1.0500650830217637, 1.3860253259772435, 1.6179551730165258]",2495.2169054620317,None,2495.217039926635,2495.3170684869983,,,,,,,,,,,,s182_10192022,001,2022_Oct_19_1429,test_typingtask_norepeats,2020.2.10,59.983476102419836,
about,about,,,,,0,73,73,73,,,,,,,,2500.7171707050293,None,"['a', 'b', 'o', 'u', 't']",1,"[0.6858718040166423, 0.8377133140456863, 1.0697816589963622, 1.1096838940284215, 1.2378015330177732]",2500.7171707050293,None,2500.717424337595,2500.8172731590457,,,,,,,,,,,,s182_10192022,001,2022_Oct_19_1429,test_typingtask_norepeats,2020.2.10,59.983476102419836,
vodka,vodka,,,,,0,74,74,74,,,,,,,,2506.216939403035,None,"['v', 'o', 'd', 'k', 'a']",1,"[1.0899538900121115, 1.2019132390269078, 1.8579998220084235, 2.0099211610504426, 2.1220003140042536]",2506.216939403035,None,2506.2168995386046,2506.3169833830325,,,,,,,,,,,,s182_10192022,001,2022_Oct_19_1429,test_typingtask_norepeats,2020.2.10,59.983476102419836,
druze,druze,,,,,0,75,75,75,,,,,,,,2511.717033695022,None,"['d', 'r', 'u', 'z', 'e']",1,"[1.2458367919898592, 1.4298777499934658, 1.5659543839865364, 2.1659408530103974, 2.397884858015459]",2511.717033695022,None,2511.7171084536412,2511.8169027820113,,,,,,,,,,,,s182_10192022,001,2022_Oct_19_1429,test_typingtask_norepeats,2020.2.10,59.983476102419836,
heond,heond,,,,,0,76,76,76,,,,,,,,2517.2171265660436,None,"['h', 'e', 'o', 'n', 'd']",1,"[0.9298397029633634, 1.0897413839702494, 1.4818881919491105, 1.5778338139643893, 1.777805350953713]",2517.2171265660436,None,2517.2169728976032,2517.3170426160214,,,,,,,,,,,,s182_10192022,001,2022_Oct_19_1429,test_typingtask_norepeats,2020.2.10,59.983476102419836,
therm,therm,,,,,0,77,77,77,,,,,,,,2522.7168971330393,None,"['t', 'h', 'e', 'r', 'm']",1,"[0.6620562120224349, 0.7500355999800377, 0.8459761430276558, 0.8780528319766745, 1.0380511889816262]",2522.7168971330393,None,2522.717189395643,2522.8173734830343,,,,,,,,,,,,s182_10192022,001,2022_Oct_19_1429,test_typingtask_norepeats,2020.2.10,59.983476102419836,
there,there,,,,,0,78,78,78,,,,,,,,2528.2172036819975,None,"['t', 'h', 'e', 'r', 'e']",1,"[0.6176496139960364, 0.7137263719923794, 0.7857421190128662, 0.8176578750135377, 0.9456680329749361]",2528.2172036819975,None,2528.2169143945966,2528.3173324770178,,,,,,,,,,,,s182_10192022,001,2022_Oct_19_1429,test_typingtask_norepeats,2020.2.10,59.983476102419836,
haole,haole,,,,,0,79,79,79,,,,,,,,2533.717168530042,None,"['h', 'a', 'o', 'l', 'e']",1,"[0.789761688967701, 0.9418276660144329, 1.085910725989379, 1.285761785984505, 1.3977447910001501]",2533.717168530042,None,2533.717384951614,2533.817297953996,,,,,,,,,,,,s182_10192022,001,2022_Oct_19_1429,test_typingtask_norepeats,2020.2.10,59.983476102419836,
would,would,,,,,0,80,80,80,,,,,,,,2539.217386659002,None,"['w', 'o', 'u', 'l', 'd']",1,"[0.9855825569829904, 1.1375369669985957, 1.1776375849731266, 1.425497711985372, 1.5135879560257308]",2539.217386659002,None,2539.217512144608,2539.317468335037,,,,,,,,,,,,s182_10192022,001,2022_Oct_19_1429,test_typingtask_norepeats,2020.2.10,59.983476102419836,
belly,belly,,,,,0,81,81,81,,,,,,,,2544.717459584994,None,"['b', 'e', 'l', 'l', 'y']",1,"[0.9415275800274685, 1.0695163829950616, 1.2615539940306917, 1.3734666790114716, 1.6453886390081607]",2544.717459584994,None,2544.717507808603,2544.8174056140124,,,,,,,,,,,,s182_10192022,001,2022_Oct_19_1429,test_typingtask_norepeats,2020.2.10,59.983476102419836,
tithe,tithe,,,,,0,82,82,82,,,,,,,,2550.2174451019964,None,"['t', 'i', 't', 'h', 'e']",1,"[0.8015279469545931, 0.9934081379906274, 1.129431126988493, 1.313528022961691, 1.4334455549833365]",2550.2174451019964,None,2550.217265949602,2550.317344273033,,,,,,,,,,,,s182_10192022,001,2022_Oct_19_1429,test_typingtask_norepeats,2020.2.10,59.983476102419836,
vodka,vodka,,,,,0,83,83,83,,,,,,,,2555.7176657220116,None,"['v', 'o', 'd', 'k', 'a']",1,"[0.9171913750469685, 1.0931850140332244, 1.3972482770332135, 1.589316598023288, 1.7092017160030082]",2555.7176657220116,None,2555.717422984616,2555.8174243140384,,,,,,,,,,,,s182_10192022,001,2022_Oct_19_1429,test_typingtask_norepeats,2020.2.10,59.983476102419836,
kremp,kremp,,,,,0,84,84,84,,,,,,,,2561.217411665013,None,"['k', 'r', 'e', 'm', 'p']",1,"[0.8655313949566334, 1.009453873964958, 1.0575588849605992, 1.225513562967535, 1.4494999219896272]",2561.217411665013,None,2561.217464421602,2561.317270344007,,,,,,,,,,,,s182_10192022,001,2022_Oct_19_1429,test_typingtask_norepeats,2020.2.10,59.983476102419836,
belly,belly,,,,,0,85,85,85,,,,,,,,2566.7173056270112,None,"['b', 'e', 'l', 'l', 'y']",1,"[0.7175501189776696, 0.8455874389619567, 0.9896286809816957, 1.1175600239657797, 1.277678926999215]",2566.7173056270112,None,2566.717567966628,2566.81737532001,,,,,,,,,,,,s182_10192022,001,2022_Oct_19_1429,test_typingtask_norepeats,2020.2.10,59.983476102419836,
puppy,puppy,,,,,0,86,86,86,,,,,,,,2572.217199905019,None,"['p', 'u', 'p', 'p', 'y']",1,"[1.0896880280342884, 1.1697809509932995, 1.3936496649985202, 1.537786723987665, 1.6257463489891961]",2572.217199905019,None,2572.2167713026456,2572.3174594879965,,,,,,,,,,,,s182_10192022,001,2022_Oct_19_1429,test_typingtask_norepeats,2020.2.10,59.983476102419836,
pykka,pykka,,,,,0,87,87,87,,,,,,,,2577.7173870400293,None,"['p', 'y', 'k', 'k', 'a']",1,"[0.9094706930336542, 1.1575957770110108, 1.3975381100317463, 1.5415508979931474, 1.6374736810103059]",2577.7173870400293,None,2577.717653222632,2577.817598470021,,,,,,,,,,,,s182_10192022,001,2022_Oct_19_1429,test_typingtask_norepeats,2020.2.10,59.983476102419836,
about,about,,,,,0,88,88,88,,,,,,,,2583.2171782500227,None,"['a', 'b', 'o', 'u', 't']",1,"[0.5697550299810246, 0.7137562810094096, 0.9216768809710629, 0.9857844149810262, 1.0976910520112142]",2583.2171782500227,None,2583.2170795126176,2583.317307089048,,,,,,,,,,,,s182_10192022,001,2022_Oct_19_1429,test_typingtask_norepeats,2020.2.10,59.983476102419836,
buddy,buddy,,,,,0,89,89,89,,,,,,,,2588.7171281460323,None,"['b', 'u', 'd', 'd', 'y']",1,"[0.8297973219887353, 1.029798265954014, 1.2297786559793167, 1.3818577759666368, 1.4858457829686813]",2588.7171281460323,None,2588.717195222637,2588.8175471980358,,,,,,,,,,,,s182_10192022,001,2022_Oct_19_1429,test_typingtask_norepeats,2020.2.10,59.983476102419836,
champ,champ,,,,,0,90,90,90,,,,,,,,2594.217049662024,None,"['c', 'h', 'a', 'm', 'p']",1,"[0.6578268649755046, 0.7379325709771365, 0.8738744269940071, 0.9779740709927864, 1.1458688759594224]",2594.217049662024,None,2594.217114765622,2594.3171176970354,,,,,,,,,,,,s182_10192022,001,2022_Oct_19_1429,test_typingtask_norepeats,2020.2.10,59.983476102419836,
there,there,,,,,0,91,91,91,,,,,,,,2599.7172176730237,None,"['t', 'h', 'e', 'r', 'e']",1,"[0.6376512669958174, 0.6936481230077334, 0.8217417320120148, 0.8617919840035029, 0.9657831930089742]",2599.7172176730237,None,2599.7173394755982,2599.81746724603,,,,,,,,,,,,s182_10192022,001,2022_Oct_19_1429,test_typingtask_norepeats,2020.2.10,59.983476102419836,
theme,theme,,,,,0,92,92,92,,,,,,,,2605.217357261048,None,"['t', 'h', 'e', 'm', 'e']",1,"[0.6175015249755234, 0.721581409976352, 0.8496069519896992, 0.9775326080271043, 1.0655939020216465]",2605.217357261048,None,2605.2174794716,2605.317425610032,,,,,,,,,,,,s182_10192022,001,2022_Oct_19_1429,test_typingtask_norepeats,2020.2.10,59.983476102419836,
heond,heond,,,,,0,93,93,93,,,,,,,,2610.717177889019,None,"['h', 'e', 'o', 'n', 'd']",1,"[0.7096903449855745, 0.8457523940014653, 1.0619500459870324, 1.1976905890041962, 1.3256692640134133]",2610.717177889019,None,2610.717186390614,2610.8168387360056,,,,,,,,,,,,s182_10192022,001,2022_Oct_19_1429,test_typingtask_norepeats,2020.2.10,59.983476102419836,
edthe,edthe,,,,,0,94,94,94,,,,,,,,2616.217335298017,None,"['e', 'd', 't', 'h', 'e']",1,"[0.6496290849754587, 0.8495905449963175, 1.1295951000065543, 1.2896573349717073, 1.3856910970062017]",2616.217335298017,None,2616.217146711616,2616.317031831015,,,,,,,,,,,,s182_10192022,001,2022_Oct_19_1429,test_typingtask_norepeats,2020.2.10,59.983476102419836,
tithe,tithe,,,,,0,95,95,95,,,,,,,,2621.717154064041,None,"['t', 'h', 't', 'h', 'e']",0,"[0.637700429011602, 0.7176996759953909, 1.4058098379755393, 1.6537331239669584, 1.7498001109925099]",2621.717154064041,None,2621.7170113136117,2621.8174918790464,,,,,,,,,,,,s182_10192022,001,2022_Oct_19_1429,test_typingtask_norepeats,2020.2.10,59.983476102419836,
zibja,zibja,,,,,0,96,96,96,,,,,,,,2627.2172044540057,None,"['z', 'i', 'b', 'j', 'a']",1,"[1.2897226989734918, 1.5137410630122758, 2.3057231300044805, 2.5617892169975676, 2.7137436679913662]",2627.2172044540057,None,2627.21729143862,2627.3174428010243,,,,,,,,,,,,s182_10192022,001,2022_Oct_19_1429,test_typingtask_norepeats,2020.2.10,59.983476102419836,
champ,champ,,,,,0,97,97,97,,,,,,,,2632.7178132670233,None,"['c', 'h', 'a', 'm', 'p']",1,"[0.6771884849877097, 0.7731053109746426, 0.8851327109732665, 1.0130880390061066, 1.1731500779860653]",2632.7178132670233,None,2632.717442026612,2632.8175688520423,,,,,,,,,,,,s182_10192022,001,2022_Oct_19_1429,test_typingtask_norepeats,2020.2.10,59.983476102419836,
vanru,vanru,,,,,0,98,98,98,,,,,,,,2638.217341198004,None,"['v', 'a', 'n', 'r', 'u']",1,"[0.8255391379934736, 0.9536221970338374, 1.0975950110005215, 1.3536254710052162, 1.4736370920436457]",2638.217341198004,None,2638.217602613632,2638.3174771050108,,,,,,,,,,,,s182_10192022,001,2022_Oct_19_1429,test_typingtask_norepeats,2020.2.10,59.983476102419836,
think,think,,,,,0,99,99,99,,,,,,,,2643.7169993889984,None,"['t', 'h', 'i', 'n', 'k']",1,"[0.5419978650170378, 0.6619522250257432, 0.7899333760142326, 0.8699276460101828, 0.9899335340014659]",2643.7169993889984,None,2643.71713130463,2643.817228546017,,,,,,,,,,,,s182_10192022,001,2022_Oct_19_1429,test_typingtask_norepeats,2020.2.10,59.983476102419836,
buddy,buddy,,,,,0,100,100,100,,,,,,,,2649.217386733042,None,"['b', 'u', 'd', 'd', 'y']",1,"[0.793538089026697, 1.2254971470101736, 1.4815786629915237, 1.657562347012572, 1.76156653201906]",2649.217386733042,None,2649.2175983186053,2649.317411121039,,,,,,,,,,,,s182_10192022,001,2022_Oct_19_1429,test_typingtask_norepeats,2020.2.10,59.983476102419836,
lucky,lucky,,,,,0,101,101,101,,,,,,,,2654.7173942600493,None,"['l', 'u', 'c', 'k', 'y']",1,"[0.9015061410027556, 1.0454703989671543, 1.1975474309874699, 1.3335219559958205, 1.525452026980929]",2654.7173942600493,None,2654.717644714593,2654.817707258044,,,,,,,,,,,,s182_10192022,001,2022_Oct_19_1429,test_typingtask_norepeats,2020.2.10,59.983476102419836,
about,about,,,,,0,102,102,102,,,,,,,,2660.2175326159922,None,"['a', 'b', 'o', 'u', 't']",1,"[0.609314258035738, 0.7614667770103551, 0.9694473490235396, 1.0253137350082397, 1.1453180219978094]",2660.2175326159922,None,2660.2174100786387,2660.317713936034,,,,,,,,,,,,s182_10192022,001,2022_Oct_19_1429,test_typingtask_norepeats,2020.2.10,59.983476102419836,
puppy,puppy,,,,,0,103,103,103,,,,,,,,2665.717387929035,None,"['p', 'u', 'p', 'p', 'y']",1,"[1.0536454980028793, 1.2215367559692822, 1.4535775069962256, 1.597480133001227, 1.7576162119512446]",2665.717387929035,None,2665.7170917276117,2665.8174612900475,,,,,,,,,,,,s182_10192022,001,2022_Oct_19_1429,test_typingtask_norepeats,2020.2.10,59.983476102419836,
edthe,edthe,,,,,0,104,104,104,,,,,,,,2671.217163684021,None,"['e', 'd', 't', 'h', 'e']",1,"[0.6257257930119522, 0.8096980270347558, 1.0176990990294144, 1.0897701380308717, 1.2177017260110006]",2671.217163684021,None,2671.2171814105996,2671.3172594149946,,,,,,,,,,,,s182_10192022,001,2022_Oct_19_1429,test_typingtask_norepeats,2020.2.10,59.983476102419836,
druze,druze,,,,,0,105,105,105,,,,,,,,2676.7174826170085,None,"['d', 'r', 'u', 'z', 'e']",1,"[0.7654688400216401, 1.013492013036739, 1.165456080052536, 1.6614851590129547, 1.853449754009489]",2676.7174826170085,None,2676.71751807463,2676.8174553700374,,,,,,,,,,,,s182_10192022,001,2022_Oct_19_1429,test_typingtask_norepeats,2020.2.10,59.983476102419836,
buddy,buddy,,,,,0,106,106,106,,,,,,,,2682.2172774469946,None,"['b', 'u', 'd', 'd', 'y']",1,"[0.8336118449806236, 0.9776278749923222, 1.145694882958196, 1.305623565975111, 1.4095970239723101]",2682.2172774469946,None,2682.2173094666387,2682.3172130430466,,,,,,,,,,,,s182_10192022,001,2022_Oct_19_1429,test_typingtask_norepeats,2020.2.10,59.983476102419836,
pykka,pykka,,,,,0,107,107,107,,,,,,,,2687.717308430001,None,"['p', 'y', 'k', 'k', 'a']",1,"[1.1175516960211098, 1.3016246519982815, 1.5576399090350606, 1.7095538289868273, 1.813677236030344]",2687.717308430001,None,2687.717317478632,2687.8174182340153,,,,,,,,,,,,s182_10192022,001,2022_Oct_19_1429,test_typingtask_norepeats,2020.2.10,59.983476102419836,
cooed,cooed,,,,,0,108,108,108,,,,,,,,2693.2176378580043,None,"['c', 'o', 'o', 'e', 'd']",1,"[0.7133383720065467, 0.8972166889579967, 1.0252346459892578, 1.1693542349967174, 1.3452844030107372]",2693.2176378580043,None,2693.2177283466035,2693.317642183043,,,,,,,,,,,,s182_10192022,001,2022_Oct_19_1429,test_typingtask_norepeats,2020.2.10,59.983476102419836,
think,think,,,,,0,109,109,109,,,,,,,,2698.7339271050296,None,"['t', 'h', 'i', 'n', 'k']",1,"[0.5570360299898311, 0.6929305859957822, 0.8130886550061405, 0.8929387499811128, 1.012981072999537]",2698.7339271050296,None,2698.7341677866234,2698.8341295020073,,,,,,,,,,,,s182_10192022,001,2022_Oct_19_1429,test_typingtask_norepeats,2020.2.10,59.983476102419836,
zibja,zibja,,,,,0,110,110,110,,,,,,,,2704.2337911720388,None,"['z', 'i', 'b', 'j', 'a']",1,"[0.9851772629772313, 1.1611588199739344, 1.377096336975228, 1.5691783709917217, 1.6810784659464844]",2704.2337911720388,None,2704.233891579631,2704.3342270980356,,,,,,,,,,,,s182_10192022,001,2022_Oct_19_1429,test_typingtask_norepeats,2020.2.10,59.983476102419836,
faqir,faqir,,,,,0,111,111,111,,,,,,,,2709.7342194160447,None,"['f', 'a', 'q', 'i', 'r']",1,"[0.9327739640139043, 1.1166243019979447, 1.4606951469904743, 1.7086391450138763, 1.9247608360019512]",2709.7342194160447,None,2709.734477461624,2709.834237740026,,,,,,,,,,,,s182_10192022,001,2022_Oct_19_1429,test_typingtask_norepeats,2020.2.10,59.983476102419836,
druze,druze,,,,,0,112,112,112,,,,,,,,2715.2373030350427,None,"['d', 'r', 'u', 'z', 'e']",1,"[0.9096432740334421, 1.0936600340064615, 1.3496633550385013, 1.6536220240523107, 1.8856204730109312]",2715.2373030350427,None,2715.2344395596474,2715.333940865996,,,,,,,,,,,,s182_10192022,001,2022_Oct_19_1429,test_typingtask_norepeats,2020.2.10,59.983476102419836,
cooed,cooed,,,,,0,113,113,113,,,,,,,,2720.7509249760187,None,"['c', 'o', 'o', 'e', 'd']",1,"[0.6360301009844989, 0.8839371369685978, 1.003965921991039, 1.1000075800111517, 1.2679554229835048]",2720.7509249760187,None,2720.751149704639,2720.8507851880277,,,,,,,,,,,,s182_10192022,001,2022_Oct_19_1429,test_typingtask_norepeats,2020.2.10,59.983476102419836,
kremp,kremp,,,,,0,114,114,114,,,,,,,,2726.2511598170386,None,"['k', 'r', 'e', 'm', 'o']",0,"[0.895781129016541, 1.3036829630145803, 1.4396667199907824, 1.6317872449872084, 1.7996822579880245]",2726.2511598170386,None,2726.2511382835974,2726.3510696919984,,,,,,,,,,,,s182_10192022,001,2022_Oct_19_1429,test_typingtask_norepeats,2020.2.10,59.983476102419836,
belly,belly,,,,,0,115,115,115,,,,,,,,2731.7505324600497,None,"['b', 'e', 'l', 'l', 'y']",1,"[0.7723259319900535, 0.892317763005849, 1.0843101789942011, 1.2283863829798065, 1.3643508050008677]",2731.7505324600497,None,2731.7507131316406,2731.8505604490056,,,,,,,,,,,,s182_10192022,001,2022_Oct_19_1429,test_typingtask_norepeats,2020.2.10,59.983476102419836,
druze,druze,,,,,0,116,116,116,,,,,,,,2737.250667853048,None,"['d', 'r', 'u', 'z', 'e']",1,"[0.9442558669834398, 1.144240423978772, 1.3442197509575635, 1.672182984999381, 2.0561887649819255]",2737.250667853048,None,2737.250780832622,2737.3507121450384,,,,,,,,,,,,s182_10192022,001,2022_Oct_19_1429,test_typingtask_norepeats,2020.2.10,59.983476102419836,
vodka,vodka,,,,,0,117,117,117,,,,,,,,2742.75076490402,None,"['v', 'o', 'd', 'k', 'a']",1,"[0.7641973659629002, 0.93219484196743, 1.1322038269718178, 1.3321997069870122, 1.4601301399525255]",2742.75076490402,None,2742.7505519806464,2742.8506458750344,,,,,,,,,,,,s182_10192022,001,2022_Oct_19_1429,test_typingtask_norepeats,2020.2.10,59.983476102419836,
haole,haole,,,,,0,118,118,118,,,,,,,,2748.250594951038,None,"['h', 'a', 'o', 'l', 'e']",1,"[0.9922611389774829, 1.1443427230115049, 1.3682694179587997, 1.5923243289580569, 1.7043949579820037]",2748.250594951038,None,2748.2507156336387,2748.3508342920104,,,,,,,,,,,,s182_10192022,001,2022_Oct_19_1429,test_typingtask_norepeats,2020.2.10,59.983476102419836,
think,think,,,,,0,119,119,119,,,,,,,,2753.751036216039,None,"['t', 'h', 'i', 'n', 'k']",1,"[0.5799107620259747, 0.6838209329871461, 0.7958494920167141, 0.8838238040334545, 0.995834770030342]",2753.751036216039,None,2753.750998001621,2753.8510154170217,,,,,,,,,,,,s182_10192022,001,2022_Oct_19_1429,test_typingtask_norepeats,2020.2.10,59.983476102419836,
therm,therm,,,,,,,,,0,0,0,0,,,,,,,,,,,,,2759.2503960159956,None,2781.5076874980005,None,"['t', 'h', 'e', 'r', 'm']",1,"[0.807270458957646, 0.9111996599822305, 1.0312542829778977, 1.1111791330040433, 1.2472108409856446]",2781.5076874980005,None,2781.5009950366393,2781.601086362032,s182_10192022,001,2022_Oct_19_1429,test_typingtask_norepeats,2020.2.10,59.983476102419836,
there,there,,,,,,,,,0,1,1,1,,,,,,,,,,,,,,,2787.0176124779973,None,"['h', 'e', 'r', 'e']",0,"[0.6573553070193157, 1.345451981993392, 1.409236425999552, 1.5373257100000046]",2787.0176124779973,None,2787.017851652595,2787.117678619048,s182_10192022,001,2022_Oct_19_1429,test_typingtask_norepeats,2020.2.10,59.983476102419836,
about,about,,,,,,,,,0,2,2,2,,,,,,,,,,,,,,,2792.5176756400033,None,"['a', 'b', 'o', 'u', 't']",1,"[0.6533024510135874, 0.8133572679944336, 1.0533034140244126, 1.1011864399770275, 1.237316265993286]",2792.5176756400033,None,2792.5179826746053,2792.6178847560077,s182_10192022,001,2022_Oct_19_1429,test_typingtask_norepeats,2020.2.10,59.983476102419836,
champ,champ,,,,,,,,,0,3,3,3,,,,,,,,,,,,,,,2798.017596698017,None,"['c', 'h', 'a', 'm', 'p']",1,"[0.6653726249933243, 0.7533564509940334, 0.8653754679835401, 1.0252832639962435, 1.2333787070238031]",2798.017596698017,None,2798.0177469196087,2798.117873348994,s182_10192022,001,2022_Oct_19_1429,test_typingtask_norepeats,2020.2.10,59.983476102419836,
belly,belly,,,,,,,,,0,4,4,4,,,,,,,,,,,,,,,2803.518139684049,None,"['b', 'e', 'l', 'l', 'y']",1,"[0.7727274260250852, 0.9007211760035716, 1.0927632990060374, 1.2447802789974958, 1.3328260220005177]",2803.518139684049,None,2803.5178073205925,2803.6177613030304,s182_10192022,001,2022_Oct_19_1429,test_typingtask_norepeats,2020.2.10,59.983476102419836,
puppy,puppy,,,,,,,,,0,5,5,5,,,,,,,,,,,,,,,2809.017420845048,None,"['p', 'u', 'p', 'p', 'y']",1,"[0.9214888740098104, 1.0814477229723707, 1.2974936289829202, 1.4174435830209404, 1.53754571598256]",2809.017420845048,None,2809.017294448643,2809.117329029017,s182_10192022,001,2022_Oct_19_1429,test_typingtask_norepeats,2020.2.10,59.983476102419836,
cheer,cheer,,,,,,,,,0,6,6,6,,,,,,,,,,,,,,,2814.5176701910095,None,"['c', 'h', 'e', 'e', 'r']",1,"[0.6932225019554608, 0.7892542109475471, 0.9812386309495196, 1.1732704159803689, 1.2612837689812295]",2814.5176701910095,None,2814.517288851627,2814.617748821038,s182_10192022,001,2022_Oct_19_1429,test_typingtask_norepeats,2020.2.10,59.983476102419836,
pykka,pykka,,,,,,,,,0,7,7,7,,,,,,,,,,,,,,,2820.017664098006,None,"['p', 'y', 'k', 'k', 'a']",1,"[0.953322442015633, 1.5453271149890497, 1.841268460964784, 1.9693088220083155, 2.073268954991363]",2820.017664098006,None,2820.0177767456216,2820.1178781030467,s182_10192022,001,2022_Oct_19_1429,test_typingtask_norepeats,2020.2.10,59.983476102419836,
vodka,vodka,,,,,,,,,0,8,8,8,,,,,,,,,,,,,,,2825.517598500999,None,"['v', 'o', 'd', 'k', 'a']",1,"[0.7413848380092531, 0.8613916540052742, 1.061353498022072, 1.2933191590127535, 1.4053877380210906]",2825.517598500999,None,2825.5179133536467,2825.617370238004,s182_10192022,001,2022_Oct_19_1429,test_typingtask_norepeats,2020.2.10,59.983476102419836,
therm,therm,,,,,,,,,0,9,9,9,,,,,,,,,,,,,,,2831.0175188640133,None,"['t', 'h', 'e', 'r', 'm']",1,"[0.6814461540197954, 0.7694315840490162, 0.8813668320071883, 0.9134308760403655, 1.1054072870174423]",2831.0175188640133,None,2831.0175122696264,2831.117245521047,s182_10192022,001,2022_Oct_19_1429,test_typingtask_norepeats,2020.2.10,59.983476102419836,
edthe,edthe,,,,,,,,,0,10,10,10,,,,,,,,,,,,,,,2836.5178601579973,None,"['e', 'd', 't', 'h', 'e']",1,"[0.6290138050098903, 0.8051259909989312, 1.0611222460283898, 1.2370711090043187, 1.317013991996646]",2836.5178601579973,None,2836.517732234631,2836.617729297024,s182_10192022,001,2022_Oct_19_1429,test_typingtask_norepeats,2020.2.10,59.983476102419836,
kremp,kremp,,,,,,,,,0,11,11,11,,,,,,,,,,,,,,,2842.034054957039,None,"['k', 'r', 'e', 'm', 'p']",1,"[0.8248867750517093, 0.9928452500025742, 1.0569320610375144, 1.2648549340083264, 1.5128549790242687]",2842.034054957039,None,2842.0342276416077,2842.1338094560197,s182_10192022,001,2022_Oct_19_1429,test_typingtask_norepeats,2020.2.10,59.983476102419836,
faqir,faqir,,,,,,,,,0,12,12,12,,,,,,,,,,,,,,,2847.53399385605,None,"['f', 'a', 'q', 'i', 'r']",1,"[0.9008617800427601, 1.0449446780257858, 1.3569221430225298, 1.6928626490407623, 1.8049826270435005]",2847.53399385605,None,2847.5338198116106,2847.634338705044,s182_10192022,001,2022_Oct_19_1429,test_typingtask_norepeats,2020.2.10,59.983476102419836,
would,would,,,,,,,,,0,13,13,13,,,,,,,,,,,,,,,2853.034028280992,None,"['w', 'o', 'u', 'l', 'd']",1,"[0.8008365900022909, 0.9451002370333299, 1.0089508710079826, 1.2569074369966984, 1.3608234120183624]",2853.034028280992,None,2853.034105428628,2853.1340815880103,s182_10192022,001,2022_Oct_19_1429,test_typingtask_norepeats,2020.2.10,59.983476102419836,
vanru,vanru,,,,,,,,,0,14,14,14,,,,,,,,,,,,,,,2858.534314702032,None,"['v', 'a', 'n', 'r', 'u']",1,"[0.7646870319731534, 0.892538201995194, 1.3326540819834918, 1.4846030019689351, 1.5887208599597216]",2858.534314702032,None,2858.534429330629,2858.634417402034,s182_10192022,001,2022_Oct_19_1429,test_typingtask_norepeats,2020.2.10,59.983476102419836,
think,think,,,,,,,,,0,15,15,15,,,,,,,,,,,,,,,2864.034238830034,None,"['t', 'h', 'i', 'k', 'n']",0,"[0.6487377619487233, 0.7606759049813263, 0.896718866948504, 1.0646333159529604, 1.1766586339799687]",2864.034238830034,None,2864.0340694775978,2864.1341440580436,s182_10192022,001,2022_Oct_19_1429,test_typingtask_norepeats,2020.2.10,59.983476102419836,
belly,belly,,,,,,,,,0,16,16,16,,,,,,,,,,,,,,,2869.534217677021,None,"['b', 'e', 'l', 'l', 'y']",1,"[0.8126766800414771, 0.9646746360231191, 1.1886176450061612, 1.3486715020262636, 1.5807498710346408]",2869.534217677021,None,2869.5342601016337,2869.63408199104,s182_10192022,001,2022_Oct_19_1429,test_typingtask_norepeats,2020.2.10,59.983476102419836,
there,there,,,,,,,,,0,17,17,17,,,,,,,,,,,,,,,2875.034278147039,None,"['t', 'h', 'e', 'r', 'e']",1,"[0.6326922469888814, 0.7925739919883199, 0.9447111350018531, 1.0086094829603098, 1.1286414379719645]",2875.034278147039,None,2875.03415833264,2875.1343925570254,s182_10192022,001,2022_Oct_19_1429,test_typingtask_norepeats,2020.2.10,59.983476102419836,
edthe,edthe,,,,,,,,,0,18,18,18,,,,,,,,,,,,,,,2880.5345546710305,None,"['e', 'd', 't', 'h', 'e']",1,"[0.684443931968417, 0.9963917379500344, 1.2284326549852267, 1.3963430719450116, 1.4763044969877228]",2880.5345546710305,None,2880.534543972596,2880.634317708027,s182_10192022,001,2022_Oct_19_1429,test_typingtask_norepeats,2020.2.10,59.983476102419836,
druze,druze,,,,,,,,,0,19,19,19,,,,,,,,,,,,,,,2886.0345048590098,None,"['d', 'r', 'u', 'z', 'e']",1,"[0.7763605400105007, 0.9603442309889942, 1.1364305710303597, 1.6564806560054421, 1.9445194409927353]",2886.0345048590098,None,2886.0343710266343,2886.134402565018,s182_10192022,001,2022_Oct_19_1429,test_typingtask_norepeats,2020.2.10,59.983476102419836,
vanru,vanru,,,,,,,,,0,20,20,20,,,,,,,,,,,,,,,2891.534481874027,None,"['v', 'a', 'n', 'r', 'u']",1,"[0.7644035249832086, 0.8843591199838556, 1.1484665019670501, 1.3244889799971133, 1.4923697499907576]",2891.534481874027,None,2891.534302740608,2891.63439731003,s182_10192022,001,2022_Oct_19_1429,test_typingtask_norepeats,2020.2.10,59.983476102419836,
vodka,vodka,,,,,,,,,0,21,21,21,,,,,,,,,,,,,,,2897.0344075460453,None,"['v', 'o', 'd', 'k', 'a']",1,"[1.1525710000423715, 1.3844969550264068, 1.6405596529948525, 1.8724853040184826, 2.0004838349996135]",2897.0344075460453,None,2897.034245399601,2897.134316001029,s182_10192022,001,2022_Oct_19_1429,test_typingtask_norepeats,2020.2.10,59.983476102419836,
faqir,faqir,,,,,,,,,0,22,22,22,,,,,,,,,,,,,,,2902.534319938044,None,"['f', 'a', 'q', 'i', 'r']",1,"[0.7566163179581054, 0.9326984959770925, 1.2207326719653793, 1.3885359719861299, 1.5566063149599358]",2902.534319938044,None,2902.5341656916016,2902.634134247026,s182_10192022,001,2022_Oct_19_1429,test_typingtask_norepeats,2020.2.10,59.983476102419836,
belly,belly,,,,,,,,,0,23,23,23,,,,,,,,,,,,,,,2908.034867784998,None,"['b', 'e', 'l', 'l', 'y']",1,"[0.6880168089992367, 0.7839848980074748, 1.0241158889839426, 1.1760037610074505, 1.2881149969762191]",2908.034867784998,None,2908.0347316726284,2908.134924686048,s182_10192022,001,2022_Oct_19_1429,test_typingtask_norepeats,2020.2.10,59.983476102419836,
lucky,lucky,,,,,,,,,0,24,24,24,,,,,,,,,,,,,,,2913.5341312140226,None,"['l', 'u', 'c', 'k', 'y']",1,"[0.7408641799702309, 0.932795136992354, 1.0927934929495677, 1.1968217869871296, 1.4208403849625029]",2913.5341312140226,None,2913.534277562593,2913.634272337018,s182_10192022,001,2022_Oct_19_1429,test_typingtask_norepeats,2020.2.10,59.983476102419836,
think,think,,,,,,,,,0,25,25,25,,,,,,,,,,,,,,,2919.034195051994,None,"['t', 'h', 'n', 'k']",0,"[0.6167815320077352, 0.7527554900152609, 0.9846714599989355, 1.07273408601759]",2919.034195051994,None,2919.0339878826226,2919.134203611,s182_10192022,001,2022_Oct_19_1429,test_typingtask_norepeats,2020.2.10,59.983476102419836,
champ,champ,,,,,,,,,0,26,26,26,,,,,,,,,,,,,,,2924.5340879800497,None,"['c', 'h', 'a', 'm', 'p']",1,"[0.7168822169769555, 0.8048949199728668, 0.9407767199445516, 1.0847732249530964, 1.27678910800023]",2924.5340879800497,None,2924.534216843621,2924.634178020002,s182_10192022,001,2022_Oct_19_1429,test_typingtask_norepeats,2020.2.10,59.983476102419836,
lucky,lucky,,,,,,,,,0,27,27,27,,,,,,,,,,,,,,,2930.0345317670144,None,"['l', 'u', 'c', 'k', 'y']",1,"[0.8643812920199707, 1.0083286199951544, 1.1843715960276313, 1.3364269040175714, 1.6003196240053512]",2930.0345317670144,None,2930.0346378636486,2930.1347137780394,s182_10192022,001,2022_Oct_19_1429,test_typingtask_norepeats,2020.2.10,59.983476102419836,
tithe,tithe,,,,,,,,,0,28,28,28,,,,,,,,,,,,,,,2935.5343813880463,None,"['t', 'i', 't', 'h', 'e']",1,"[0.6685924709890969, 0.892534748010803, 1.0526067379978485, 1.2205735319876112, 1.3246076270006597]",2935.5343813880463,None,2935.5340420766324,2935.634626892046,s182_10192022,001,2022_Oct_19_1429,test_typingtask_norepeats,2020.2.10,59.983476102419836,
theme,theme,,,,,,,,,0,29,29,29,,,,,,,,,,,,,,,2941.0342606400372,None,"['t', 'h', 'e', 'm', 'e']",1,"[0.640615242999047, 0.728700899053365, 0.9286887740017846, 1.0166775550460443, 1.1046812510467134]",2941.0342606400372,None,2941.034076171595,2941.134256797028,s182_10192022,001,2022_Oct_19_1429,test_typingtask_norepeats,2020.2.10,59.983476102419836,
would,would,,,,,,,,,0,30,30,30,,,,,,,,,,,,,,,2946.534471318999,None,"['w', 'o', 'u', 'l', 'd']",1,"[0.6603934139711782, 0.7884507889975794, 0.8524225659784861, 1.0684776229900308, 1.1564664359902963]",2946.534471318999,None,2946.53439446261,2946.6347213350236,s182_10192022,001,2022_Oct_19_1429,test_typingtask_norepeats,2020.2.10,59.983476102419836,
vanru,vanru,,,,,,,,,0,31,31,31,,,,,,,,,,,,,,,2952.0346106840298,None,"['v', 'a', 'n', 'r', 'u']",1,"[0.7602838429738767, 0.8803443890064955, 1.0803465120261535, 1.2403215250233188, 1.4163531369995326]",2952.0346106840298,None,2952.0347311826363,2952.13453593303,s182_10192022,001,2022_Oct_19_1429,test_typingtask_norepeats,2020.2.10,59.983476102419836,
lucky,lucky,,,,,,,,,0,32,32,32,,,,,,,,,,,,,,,2957.534303768014,None,"['l', 'u', 'c', 'k', 'y']",1,"[0.852591359987855, 0.9486593509791419, 1.1326492649968714, 1.2526381659554318, 1.4686316719744354]",2957.534303768014,None,2957.53457980465,2957.634157031018,s182_10192022,001,2022_Oct_19_1429,test_typingtask_norepeats,2020.2.10,59.983476102419836,
theme,theme,,,,,,,,,0,33,33,33,,,,,,,,,,,,,,,2963.0345613120007,None,"['t', 'h', 'e', 'm', 'e']",1,"[0.66433717898326, 0.7603281810297631, 0.9043804610264488, 1.0324056390090846, 1.1284237570362166]",2963.0345613120007,None,2963.034832051623,2963.134534448036,s182_10192022,001,2022_Oct_19_1429,test_typingtask_norepeats,2020.2.10,59.983476102419836,
vodka,vodka,,,,,,,,,0,34,34,34,,,,,,,,,,,,,,,2968.534664768027,None,"['v', 'o', 'd', 'k', 'a']",1,"[0.7642650560010225, 0.9642438659793697, 1.6762042400077917, 1.8442765509826131, 1.9562044690246694]",2968.534664768027,None,2968.5347197806286,2968.6346533420146,s182_10192022,001,2022_Oct_19_1429,test_typingtask_norepeats,2020.2.10,59.983476102419836,
there,there,,,,,,,,,0,35,35,35,,,,,,,,,,,,,,,2974.0347767990315,None,"['t', 'h', 'e', 'r', 'e']",1,"[0.6561500360257924, 0.7680890089832246, 0.8961902899900451, 0.9681742219836451, 1.0801308879745193]",2974.0347767990315,None,2974.0346911416445,2974.1347277940367,s182_10192022,001,2022_Oct_19_1429,test_typingtask_norepeats,2020.2.10,59.983476102419836,
puppy,puppy,,,,,,,,,0,36,36,36,,,,,,,,,,,,,,,2979.534420714015,None,"['p', 'u', 'p', 'p', 'y']",1,"[0.9805538519867696, 1.1165453550056554, 1.3325193939963356, 1.4685547149856575, 1.5804867889964953]",2979.534420714015,None,2979.534557513619,2979.634355543996,s182_10192022,001,2022_Oct_19_1429,test_typingtask_norepeats,2020.2.10,59.983476102419836,
zibja,zibja,,,,,,,,,0,37,37,37,,,,,,,,,,,,,,,2985.0342074910295,None,"['z', 'i', 'b', 'j', 'a']",1,"[1.1527405939996243, 1.3127022509579547, 1.576643994951155, 1.8006533609586768, 1.9207434459822252]",2985.0342074910295,None,2985.03471572565,2985.134223964007,s182_10192022,001,2022_Oct_19_1429,test_typingtask_norepeats,2020.2.10,59.983476102419836,
theme,theme,,,,,,,,,0,38,38,38,,,,,,,,,,,,,,,2990.5342966790195,None,"['t', 'h', 'e', 'm', 'e']",1,"[0.6125773760140873, 0.700593443994876, 0.81257203000132, 0.9486359059810638, 1.036641847982537]",2990.5342966790195,None,2990.5343005056084,2990.6345703200204,s182_10192022,001,2022_Oct_19_1429,test_typingtask_norepeats,2020.2.10,59.983476102419836,
heond,heond,,,,,,,,,0,39,39,39,,,,,,,,,,,,,,,2996.034612988995,None,"['h', 'e', 'o', 'n', 'd']",1,"[0.7683968070195988, 0.8963653559912927, 1.0563213150016963, 1.2083023180020973, 1.3523176939925179]",2996.034612988995,None,2996.034838975599,2996.1347484370344,s182_10192022,001,2022_Oct_19_1429,test_typingtask_norepeats,2020.2.10,59.983476102419836,
think,think,,,,,,,,,0,40,40,40,,,,,,,,,,,,,,,3001.5344822610496,None,"['t', 'h', 'i', 'n', 'k']",1,"[0.6285002950462513, 0.7164814890129492, 0.8763843370252289, 0.9804234740440734, 1.1004899520194158]",3001.5344822610496,None,3001.534209669643,3001.6341891170014,s182_10192022,001,2022_Oct_19_1429,test_typingtask_norepeats,2020.2.10,59.983476102419836,
edthe,edthe,,,,,,,,,0,41,41,41,,,,,,,,,,,,,,,3007.0344928270206,None,"['e', 'd', 't', 'h', 'e']",1,"[0.6004100689897314, 0.9204580099903978, 1.144455645000562, 1.272442409012001, 1.3763737169792876]",3007.0344928270206,None,3007.0344180596467,3007.1342858989956,s182_10192022,001,2022_Oct_19_1429,test_typingtask_norepeats,2020.2.10,59.983476102419836,
puppy,puppy,,,,,,,,,0,42,42,42,,,,,,,,,,,,,,,3012.534471687046,None,"['p', 'u', 'p', 'p', 'y']",1,"[0.8924696579924785, 1.0044622630230151, 1.2204667759942822, 1.3564659940311685, 1.4763793860329315]",3012.534471687046,None,3012.5343619065998,3012.6346672990476,s182_10192022,001,2022_Oct_19_1429,test_typingtask_norepeats,2020.2.10,59.983476102419836,
edthe,edthe,,,,,,,,,0,43,43,43,,,,,,,,,,,,,,,3018.0343703560065,None,"['e', 'd', 't', 'h', 'e']",1,"[0.6005297470255755, 0.7845105570158921, 0.9446223700069822, 1.0726137930178083, 1.1844930539955385]",3018.0343703560065,None,3018.034195521631,3018.134417074034,s182_10192022,001,2022_Oct_19_1429,test_typingtask_norepeats,2020.2.10,59.983476102419836,
puppy,puppy,,,,,,,,,0,44,44,44,,,,,,,,,,,,,,,3023.534442941018,None,"['p', 'u', 'p', 'p', 'y']",1,"[0.8685266870306805, 1.0045057710376568, 1.3245401730528101, 1.4685001450125128, 1.5805041360436007]",3023.534442941018,None,3023.5345817316147,3023.6342371980427,s182_10192022,001,2022_Oct_19_1429,test_typingtask_norepeats,2020.2.10,59.983476102419836,
kremp,kremp,,,,,,,,,0,45,45,45,,,,,,,,,,,,,,,3029.0345338930492,None,"['k', 'r', 'e', 'm', 'p']",1,"[0.8804235690040514, 0.9923490280052647, 1.0643267609993927, 1.2164223350118846, 1.4323900130111724]",3029.0345338930492,None,3029.034341499634,3029.1342176379985,s182_10192022,001,2022_Oct_19_1429,test_typingtask_norepeats,2020.2.10,59.983476102419836,
buddy,buddy,,,,,,,,,0,46,46,46,,,,,,,,,,,,,,,3034.534567292023,None,"['b', 'u', 'd', 'd', 'y']",1,"[1.0523364290129393, 1.1722949800314382, 1.3722938320133835, 1.5403618410346098, 1.7483686180203222]",3034.534567292023,None,3034.5345110516237,3034.6345786220045,s182_10192022,001,2022_Oct_19_1429,test_typingtask_norepeats,2020.2.10,59.983476102419836,
cooed,cooed,,,,,,,,,0,47,47,47,,,,,,,,,,,,,,,3040.034737873997,None,"['c', 'o', 'o', 'e', 'd']",1,"[0.7282715320470743, 0.8721965710283257, 1.0082446029991843, 1.1121797540108673, 1.2802092570345849]",3040.034737873997,None,3040.035010138602,3040.1348855179967,s182_10192022,001,2022_Oct_19_1429,test_typingtask_norepeats,2020.2.10,59.983476102419836,
about,about,,,,,,,,,0,48,48,48,,,,,,,,,,,,,,,3045.5347612700425,None,"['a', 'b', 'o', 'u', 't']",1,"[0.5881754120346159, 0.716216886008624, 0.9081801700522192, 0.9881255500367843, 1.0841041760286316]",3045.5347612700425,None,3045.5344234646354,3045.634501983004,s182_10192022,001,2022_Oct_19_1429,test_typingtask_norepeats,2020.2.10,59.983476102419836,
therm,therm,,,,,,,,,0,49,49,49,,,,,,,,,,,,,,,3051.0345017870422,None,"['t', 'h', 'e', 'r', 'm']",1,"[0.5923659150139429, 0.6883732349961065, 0.7923518170136958, 0.8484451770200394, 1.0164378950139508]",3051.0345017870422,None,3051.03440689565,3051.1344955600216,s182_10192022,001,2022_Oct_19_1429,test_typingtask_norepeats,2020.2.10,59.983476102419836,
zibja,zibja,,,,,,,,,0,50,50,50,,,,,,,,,,,,,,,3056.5342524390435,None,"['x', 'i', 'b', 'j', 'a']",0,"[1.0527181669604033, 1.2367053129710257, 1.6287360049900599, 1.8687142140115611, 1.9887285740114748]",3056.5342524390435,None,3056.5343977326,3056.634219038009,s182_10192022,001,2022_Oct_19_1429,test_typingtask_norepeats,2020.2.10,59.983476102419836,
puppy,puppy,,,,,,,,,0,51,51,51,,,,,,,,,,,,,,,3062.034413987014,None,"['p', 'u', 'p', 'p', 'y']",1,"[0.8565738559700549, 0.9604366819839925, 1.1525555760017596, 1.2805379530182108, 1.376452105003409]",3062.034413987014,None,3062.0345892116484,3062.134721475013,s182_10192022,001,2022_Oct_19_1429,test_typingtask_norepeats,2020.2.10,59.983476102419836,
zibja,zibja,,,,,,,,,0,52,52,52,,,,,,,,,,,,,,,3067.5342594950343,None,"['z', 'i', 'b', 'j', 'a']",1,"[1.2926032070536166, 1.476611471036449, 1.7407612330280244, 1.9966819930123165, 2.1086184800369665]",3067.5342594950343,None,3067.5344864826357,3067.634330792993,s182_10192022,001,2022_Oct_19_1429,test_typingtask_norepeats,2020.2.10,59.983476102419836,
about,about,,,,,,,,,0,53,53,53,,,,,,,,,,,,,,,3073.0343624660163,None,"['a', 'b', 'o', 'u', 't']",1,"[0.5525929849827662, 0.6565308549907058, 0.9045615249779075, 0.9845018339692615, 1.09654789196793]",3073.0343624660163,None,3073.03445836461,3073.134471034049,s182_10192022,001,2022_Oct_19_1429,test_typingtask_norepeats,2020.2.10,59.983476102419836,
druze,druze,,,,,,,,,0,54,54,54,,,,,,,,,,,,,,,3078.5344315830152,None,"['d', 'r', 'u', 'z', 'e']",1,"[0.97250344598433, 1.1804283029632643, 1.4684496559784748, 1.860424054961186, 2.1325749940006062]",3078.5344315830152,None,3078.5345183246127,3078.6343281620066,s182_10192022,001,2022_Oct_19_1429,test_typingtask_norepeats,2020.2.10,59.983476102419836,
vodka,vodka,,,,,,,,,0,55,55,55,,,,,,,,,,,,,,,3084.0345172420493,None,"['v', 'o', 'd', 'k', 'a']",1,"[0.760337675048504, 0.9124238110380247, 1.2483506260323338, 1.4324170729960315, 1.5603608520468697]",3084.0345172420493,None,3084.0344583526194,3084.1346668149927,s182_10192022,001,2022_Oct_19_1429,test_typingtask_norepeats,2020.2.10,59.983476102419836,
cooed,cooed,,,,,,,,,0,56,56,56,,,,,,,,,,,,,,,3089.534521091031,None,"['c', 'o', 'o', 'e', 'd']",1,"[0.6603457749588415, 0.8204482189612463, 0.9643886379781179, 1.0844408719567582, 1.2603306079981849]",3089.534521091031,None,3089.5343467015946,3089.6344996400294,s182_10192022,001,2022_Oct_19_1429,test_typingtask_norepeats,2020.2.10,59.983476102419836,
heond,heond,,,,,,,,,0,57,57,57,,,,,,,,,,,,,,,3095.034541389032,None,"['h', 'e', 'o', 'n', 'd']",1,"[0.7843273309990764, 0.9123113619862124, 1.0483661919715814, 1.3043274839874357, 1.4083976449910551]",3095.034541389032,None,3095.0345568155926,3095.1345412990195,s182_10192022,001,2022_Oct_19_1429,test_typingtask_norepeats,2020.2.10,59.983476102419836,
champ,champ,,,,,,,,,0,58,58,58,,,,,,,,,,,,,,,3100.5345666290377,None,"['c', 'h', 'a', 'm', 'p']",1,"[0.6762960479827598, 0.7723585189669393, 0.8683063439675607, 1.012292263971176, 1.212361391982995]",3100.5345666290377,None,3100.5346138406485,3100.6345307440497,s182_10192022,001,2022_Oct_19_1429,test_typingtask_norepeats,2020.2.10,59.983476102419836,
tithe,tithe,,,,,,,,,0,59,59,59,,,,,,,,,,,,,,,3106.034496535023,None,"['t', 'i', 't', 'h', 'e']",1,"[0.6324942039791495, 0.8164680330082774, 1.0243871770217083, 1.216477854992263, 1.3204441859852523]",3106.034496535023,None,3106.0345255156453,3106.1343240510323,s182_10192022,001,2022_Oct_19_1429,test_typingtask_norepeats,2020.2.10,59.983476102419836,
therm,therm,,,,,,,,,0,60,60,60,,,,,,,,,,,,,,,3111.5347351630335,None,"['t', 'h', 'e', 'r', 'm']",1,"[0.5802332370076329, 0.6761097200214863, 0.8121349909924902, 0.8601547250291333, 1.0121586020104587]",3111.5347351630335,None,3111.5348325596015,3111.6347401620005,s182_10192022,001,2022_Oct_19_1429,test_typingtask_norepeats,2020.2.10,59.983476102419836,
haole,haole,,,,,,,,,0,61,61,61,,,,,,,,,,,,,,,3117.0344489160343,None,"['b', 'a', 'o', 'l', 'e']",0,"[0.7525146669941023, 1.2564851409988478, 1.5044930609874427, 1.792411892034579, 1.9525063980254345]",3117.0344489160343,None,3117.034567698621,3117.134798815998,s182_10192022,001,2022_Oct_19_1429,test_typingtask_norepeats,2020.2.10,59.983476102419836,
cooed,cooed,,,,,,,,,0,62,62,62,,,,,,,,,,,,,,,3122.5345755520393,None,"['c', 'o', 'o', 'e', 'd']",1,"[0.7564085750491358, 0.9883496750262566, 1.1324168750434183, 1.236397022032179, 1.404368774034083]",3122.5345755520393,None,3122.5344792356073,3122.6345641410444,s182_10192022,001,2022_Oct_19_1429,test_typingtask_norepeats,2020.2.10,59.983476102419836,
cheer,cheer,,,,,,,,,0,63,63,63,,,,,,,,,,,,,,,3128.0347756910487,None,"['c', 'h', 'e', 'e', 'r']",1,"[0.7441735140164383, 0.848159454006236, 1.0960959090152755, 1.2721931809792295, 1.392085699015297]",3128.0347756910487,None,3128.034887124627,3128.134790557029,s182_10192022,001,2022_Oct_19_1429,test_typingtask_norepeats,2020.2.10,59.983476102419836,
heond,heond,,,,,,,,,0,64,64,64,,,,,,,,,,,,,,,3133.5346734140185,None,"['h', 'e', 'o', 'n', 'd']",1,"[0.7243003189796582, 0.8443047520122491, 1.0841773019637913, 1.1962013809825294, 1.3642017479869537]",3133.5346734140185,None,3133.5346872886466,3133.6343862320064,s182_10192022,001,2022_Oct_19_1429,test_typingtask_norepeats,2020.2.10,59.983476102419836,
cheer,cheer,,,,,,,,,0,65,65,65,,,,,,,,,,,,,,,3139.0348307890235,None,"['c', 'h', 'e', 'e', 'r']",1,"[0.9440394380362704, 1.0561562739894725, 1.2561584850191139, 1.4001079649897292, 1.5040807879995555]",3139.0348307890235,None,3139.034909480618,3139.1348713450134,s182_10192022,001,2022_Oct_19_1429,test_typingtask_norepeats,2020.2.10,59.983476102419836,
druze,druze,,,,,,,,,0,66,66,66,,,,,,,,,,,,,,,3144.5344568550354,None,"['d', 'r', 'u', 'z', 'e']",1,"[0.8444561730138958, 1.0525679240236059, 1.2763826590380631, 1.7725147180026397, 1.9644863480352797]",3144.5344568550354,None,3144.534645251598,3144.6345515000285,s182_10192022,001,2022_Oct_19_1429,test_typingtask_norepeats,2020.2.10,59.983476102419836,
there,there,,,,,,,,,0,67,67,67,,,,,,,,,,,,,,,3150.034485406999,None,"['t', 'h', 'e', 'r', 'e']",1,"[0.6003794349962845, 0.6963853999623097, 0.8324832299840637, 0.9043952079955488, 1.0004799219896086]",3150.034485406999,None,3150.034516200615,3150.134637726005,s182_10192022,001,2022_Oct_19_1429,test_typingtask_norepeats,2020.2.10,59.983476102419836,
cooed,cooed,,,,,,,,,0,68,68,68,,,,,,,,,,,,,,,3155.535031776002,None,"['c', 'o', 'o', 'e', 'd']",1,"[0.6359424709808081, 0.89990893000504, 1.0598702189745381, 1.1239184209844097, 1.2998346739914268]",3155.535031776002,None,3155.5348008076135,3155.6349808720406,s182_10192022,001,2022_Oct_19_1429,test_typingtask_norepeats,2020.2.10,59.983476102419836,
druze,druze,,,,,,,,,0,69,69,69,,,,,,,,,,,,,,,3161.034846255032,None,"['d', 'r', 'u', 'z', 'e']",1,"[0.8480249679996632, 1.0480623369803652, 1.3521205359720625, 1.6640216509695165, 1.896063841006253]",3161.034846255032,None,3161.0347757386216,3161.134998403024,s182_10192022,001,2022_Oct_19_1429,test_typingtask_norepeats,2020.2.10,59.983476102419836,
zibja,zibja,,,,,,,,,0,70,70,70,,,,,,,,,,,,,,,3166.5349077000283,None,"['z', 'i', 'b', 'j', 'a']",1,"[1.0679446010035463, 1.2520644739852287, 1.500057919009123, 1.796022477967199, 1.9000675230054185]",3166.5349077000283,None,3166.5347787896344,3166.6347159350407,s182_10192022,001,2022_Oct_19_1429,test_typingtask_norepeats,2020.2.10,59.983476102419836,
would,would,,,,,,,,,0,71,71,71,,,,,,,,,,,,,,,3172.0346828030306,None,"['w', 'o', 'u', 'd', 'd']",0,"[0.7921726770000532, 0.8882399569847621, 0.97618631698424, 1.248226925963536, 1.928298635990359]",3172.0346828030306,None,3172.035207052616,3172.134523035027,s182_10192022,001,2022_Oct_19_1429,test_typingtask_norepeats,2020.2.10,59.983476102419836,
think,think,,,,,,,,,0,72,72,72,,,,,,,,,,,,,,,3177.5682570580393,None,"['t', 'h', 'i', 'n', 'k']",1,"[0.738722192007117, 0.8586446640547365, 0.9466808800352737, 1.0426065620267764, 1.1466828310512938]",3177.5682570580393,None,3177.5680117216134,3177.6678616710124,s182_10192022,001,2022_Oct_19_1429,test_typingtask_norepeats,2020.2.10,59.983476102419836,
faqir,faqir,,,,,,,,,0,73,73,73,,,,,,,,,,,,,,,3183.0678978500073,None,"['f', 'a', 'q', 'i', 'r']",1,"[0.8229614379815757, 0.9911192000145093, 1.255119725014083, 1.4230281389900483, 1.6310579160344787]",3183.0678978500073,None,3183.0678740546164,3183.168363461038,s182_10192022,001,2022_Oct_19_1429,test_typingtask_norepeats,2020.2.10,59.983476102419836,
vanru,vanru,,,,,,,,,0,74,74,74,,,,,,,,,,,,,,,3188.568234113045,None,"['v', 'a', 'n', 'r', 'u']",1,"[0.8586414370220155, 0.9786613170290366, 1.1546971290372312, 1.3306712620542385, 1.5306342590483837]",3188.568234113045,None,3188.5682827266455,3188.6684543060255,s182_10192022,001,2022_Oct_19_1429,test_typingtask_norepeats,2020.2.10,59.983476102419836,
buddy,buddy,,,,,,,,,0,75,75,75,,,,,,,,,,,,,,,3194.068196262,None,"['b', 'u', 'd', 'd', 'y']",1,"[0.9106970530119725, 1.054784814012237, 1.2066450910060667, 1.422664636047557, 1.6547841880237684]",3194.068196262,None,3194.0678167866017,3194.16799018404,s182_10192022,001,2022_Oct_19_1429,test_typingtask_norepeats,2020.2.10,59.983476102419836,
haole,haole,,,,,,,,,0,76,76,76,,,,,,,,,,,,,,,3199.5683923360193,None,"['h', 'a', 'o', 'l', 'e']",1,"[0.7624840409844182, 0.8745725479675457, 0.9946030689752661, 1.2424754329840653, 1.3624785489519127]",3199.5683923360193,None,3199.5679093286335,3199.668429266021,s182_10192022,001,2022_Oct_19_1429,test_typingtask_norepeats,2020.2.10,59.983476102419836,
champ,champ,,,,,,,,,0,77,77,77,,,,,,,,,,,,,,,3205.0680599840125,None,"['c', 'h', 'a', 'm', 'p']",1,"[0.6469159029657021, 0.7667962900013663, 0.9028785100090317, 1.0148518200148828, 1.1908168059890158]",3205.0680599840125,None,3205.0680780306166,3205.16798019805,s182_10192022,001,2022_Oct_19_1429,test_typingtask_norepeats,2020.2.10,59.983476102419836,
about,about,,,,,,,,,0,78,78,78,,,,,,,,,,,,,,,3210.5680187040125,None,"['a', 'o', 'u', 't']",0,"[0.738967159006279, 0.9949947170098312, 1.0908421460189857, 1.3709330239798874]",3210.5680187040125,None,3210.5680298106336,3210.668015222007,s182_10192022,001,2022_Oct_19_1429,test_typingtask_norepeats,2020.2.10,59.983476102419836,
tithe,tithe,,,,,,,,,0,79,79,79,,,,,,,,,,,,,,,3216.06810789305,None,"['t', 'i', 't', 'h', 'e']",1,"[0.6388675639755093, 0.9028094779932871, 1.06289913400542, 1.2068302229745314, 1.302940335997846]",3216.06810789305,None,3216.068002298608,3216.167922896042,s182_10192022,001,2022_Oct_19_1429,test_typingtask_norepeats,2020.2.10,59.983476102419836,
lucky,lucky,,,,,,,,,0,80,80,80,,,,,,,,,,,,,,,3221.5683909060317,None,"['l', 'u', 'c', 'k', 'y']",1,"[0.8664696870255284, 0.9624811990070157, 1.1065356850158423, 1.2505124210147187, 1.4104985590092838]",3221.5683909060317,None,3221.568287991645,3221.6683842920465,s182_10192022,001,2022_Oct_19_1429,test_typingtask_norepeats,2020.2.10,59.983476102419836,
therm,therm,,,,,,,,,0,81,81,81,,,,,,,,,,,,,,,3227.068012616015,None,"['t', 'h', 'e', 'r', 'm']",1,"[0.6628638250404038, 0.7428365750238299, 0.8629199080169201, 0.9189382630283944, 1.0949220550246537]",3227.068012616015,None,3227.068016736611,3227.16820227704,s182_10192022,001,2022_Oct_19_1429,test_typingtask_norepeats,2020.2.10,59.983476102419836,
pykka,pykka,,,,,,,,,0,82,82,82,,,,,,,,,,,,,,,3232.5686281680246,None,"['p', 'y', 'k', 'k', 'a']",1,"[0.9622842409880832, 1.490240701008588, 1.7063732650130987, 1.8342562020407058, 1.9302611200255342]",3232.5686281680246,None,3232.5683172675954,3232.668471078039,s182_10192022,001,2022_Oct_19_1429,test_typingtask_norepeats,2020.2.10,59.983476102419836,
zibja,zibja,,,,,,,,,0,83,83,83,,,,,,,,,,,,,,,3238.068014674005,None,"['z', 'i', 'b', 'j', 'a']",1,"[1.3348752859747037, 1.5349066680064425, 1.8148712660185993, 2.174886137014255, 2.238912547007203]",3238.068014674005,None,3238.068019925634,3238.1679636430345,s182_10192022,001,2022_Oct_19_1429,test_typingtask_norepeats,2020.2.10,59.983476102419836,
buddy,buddy,,,,,,,,,0,84,84,84,,,,,,,,,,,,,,,3243.5682997599943,None,"['b', 'u', 'd', 'd', 'y']",1,"[0.8666763700312003, 0.9946550620370544, 1.1386184900184162, 1.330626741051674, 1.5466049410169944]",3243.5682997599943,None,3243.56870237565,3243.6684177440475,s182_10192022,001,2022_Oct_19_1429,test_typingtask_norepeats,2020.2.10,59.983476102419836,
belly,belly,,,,,,,,,0,85,85,85,,,,,,,,,,,,,,,3249.067971912038,None,"['b', 'e', 'l', 'l', 'y']",1,"[0.8149705429677851, 0.9350032109650783, 1.158920935005881, 1.310940851981286, 1.470981911988929]",3249.067971912038,None,3249.067969711631,3249.1680546990247,s182_10192022,001,2022_Oct_19_1429,test_typingtask_norepeats,2020.2.10,59.983476102419836,
faqir,faqir,,,,,,,,,0,86,86,86,,,,,,,,,,,,,,,3254.568150015024,None,"['f', 'a', 'q', 'i', 'r']",1,"[1.3867866760119796, 1.5228151410119608, 1.7627053059986793, 1.9068249120027758, 2.0827937540016137]",3254.568150015024,None,3254.5680649756277,3254.6681115270476,s182_10192022,001,2022_Oct_19_1429,test_typingtask_norepeats,2020.2.10,59.983476102419836,
pykka,pykka,,,,,,,,,0,87,87,87,,,,,,,,,,,,,,,3260.068023724016,None,"['p', 'y', 'k', 'k', 'a']",1,"[0.8389471479458734, 1.046900826971978, 1.286937188997399, 1.4469993069651537, 1.566934845992364]",3260.068023724016,None,3260.0682254776066,3260.168331730005,s182_10192022,001,2022_Oct_19_1429,test_typingtask_norepeats,2020.2.10,59.983476102419836,
faqir,faqir,,,,,,,,,0,88,88,88,,,,,,,,,,,,,,,3265.568421996024,None,"['f', 'a', 'q', 'i', 'r']",1,"[1.5465246670064516, 1.650433462986257, 1.9384930449887179, 2.050422154017724, 2.2184703780221753]",3265.568421996024,None,3265.5680766716423,3265.6682432250236,s182_10192022,001,2022_Oct_19_1429,test_typingtask_norepeats,2020.2.10,59.983476102419836,
there,there,,,,,,,,,0,89,89,89,,,,,,,,,,,,,,,3271.0684672130155,None,"['t', 'h', 'e', 'r', 'e']",1,"[0.6385168469860218, 0.6945272579905577, 0.8304920949740335, 0.910386451985687, 0.9985031349933706]",3271.0684672130155,None,3271.068221669603,3271.1683889980195,s182_10192022,001,2022_Oct_19_1429,test_typingtask_norepeats,2020.2.10,59.983476102419836,
haole,haole,,,,,,,,,0,90,90,90,,,,,,,,,,,,,,,3276.568174189015,None,"['h', 'a', 'o', 'l', 'e']",1,"[0.7787886799778789, 0.8988920889678411, 1.0506831539678387, 1.2667961060069501, 1.3467596030095592]",3276.568174189015,None,3276.568123923632,3276.667983227002,s182_10192022,001,2022_Oct_19_1429,test_typingtask_norepeats,2020.2.10,59.983476102419836,
would,would,,,,,,,,,0,91,91,91,,,,,,,,,,,,,,,3282.0683548120433,None,"['w', 'o', 'u', 'l', 'd']",1,"[0.6945938479620963, 0.7985765989869833, 0.8545078299939632, 1.0545538479927927, 1.1425132349831983]",3282.0683548120433,None,3282.0684648695924,3282.168086577032,s182_10192022,001,2022_Oct_19_1429,test_typingtask_norepeats,2020.2.10,59.983476102419836,
kremp,kremp,,,,,,,,,0,92,92,92,,,,,,,,,,,,,,,3287.5681411050027,None,"['k', 'r', 'e', 'm', 'p']",1,"[0.7547863239888102, 0.8987937460187823, 0.9788081760052592, 1.130765076028183, 1.346833328017965]",3287.5681411050027,None,3287.568110614625,3287.6680467760307,s182_10192022,001,2022_Oct_19_1429,test_typingtask_norepeats,2020.2.10,59.983476102419836,
think,think,,,,,,,,,0,93,93,93,,,,,,,,,,,,,,,3293.0682232790277,None,"['t', 'h', 'i', 'n', 'k']",1,"[0.5746488050208427, 0.6787280609714799, 0.8066772849997506, 0.8867457180167548, 1.0067141989711672]",3293.0682232790277,None,3293.0681286006175,3293.168083605997,s182_10192022,001,2022_Oct_19_1429,test_typingtask_norepeats,2020.2.10,59.983476102419836,
pykka,pykka,,,,,,,,,0,94,94,94,,,,,,,,,,,,,,,3298.5685820319923,None,"['p', 'y', 'k', 'k', 'a']",1,"[0.858363120991271, 1.2583642629906535, 1.4742800919921137, 1.6183850299566984, 1.8023595080012456]",3298.5685820319923,None,3298.5684407736,3298.66842738603,s182_10192022,001,2022_Oct_19_1429,test_typingtask_norepeats,2020.2.10,59.983476102419836,
heond,heond,,,,,,,,,0,95,95,95,,,,,,,,,,,,,,,3304.068800209032,None,"['h', 'e', 'o', 'n', 'd']",1,"[0.7581552009796724, 0.9021722119650804, 1.0301666000159457, 1.2861742319655605, 1.4140699399868026]",3304.068800209032,None,3304.0683956896128,3304.1685710879974,s182_10192022,001,2022_Oct_19_1429,test_typingtask_norepeats,2020.2.10,59.983476102419836,
haole,haole,,,,,,,,,0,96,96,96,,,,,,,,,,,,,,,3309.568053052004,None,"['h', 'a', 'o', 'l', 'e']",1,"[0.7309003709815443, 0.8749431219766848, 0.9948989609838463, 1.1869154239539057, 1.2828787279431708]",3309.568053052004,None,3309.568208742613,3309.668219580024,s182_10192022,001,2022_Oct_19_1429,test_typingtask_norepeats,2020.2.10,59.983476102419836,
cheer,cheer,,,,,,,,,0,97,97,97,,,,,,,,,,,,,,,3315.068029008049,None,"['c', 'h', 'e', 'e', 'r']",1,"[0.7029276569955982, 0.8069726870162413, 0.9588486700085923, 1.1029010430211201, 1.2228224290302023]",3315.068029008049,None,3315.0680077186144,3315.168384946999,s182_10192022,001,2022_Oct_19_1429,test_typingtask_norepeats,2020.2.10,59.983476102419836,
theme,theme,,,,,,,,,0,98,98,98,,,,,,,,,,,,,,,3320.568272495002,None,"['t', 'h', 'e', 'm', 'e']",1,"[0.6587142479838803, 0.778720221016556, 0.87457878398709, 1.2026699280249886, 1.3146407959866337]",3320.568272495002,None,3320.568497168616,3320.6684734430164,s182_10192022,001,2022_Oct_19_1429,test_typingtask_norepeats,2020.2.10,59.983476102419836,
haole,haole,,,,,,,,,0,99,99,99,,,,,,,,,,,,,,,3326.0682809120044,None,"['h', 'a', 'o', 'l', 'e']",1,"[0.7026282669976354, 0.8225897419615649, 0.950578975956887, 1.1505848499946296, 1.2386509139905684]",3326.0682809120044,None,3326.068532207649,3326.1685422559967,s182_10192022,001,2022_Oct_19_1429,test_typingtask_norepeats,2020.2.10,59.983476102419836,
cheer,cheer,,,,,,,,,0,100,100,100,,,,,,,,,,,,,,,3331.5685975500382,None,"['c', 'h', 'e', 'e', 'r']",1,"[0.7543925790232606, 0.8422602130449377, 1.0422617660369724, 1.2023735670372844, 1.3303795590181835]",3331.5685975500382,None,3331.5684730446255,3331.668559879996,s182_10192022,001,2022_Oct_19_1429,test_typingtask_norepeats,2020.2.10,59.983476102419836,
theme,theme,,,,,,,,,0,101,101,101,,,,,,,,,,,,,,,3337.0684288120246,None,"['t', 'h', 'e', 'm', 'e']",1,"[0.47852206602692604, 0.5984977160114795, 0.6785643830080517, 0.8064948010141961, 0.8865427449927665]",3337.0684288120246,None,3337.068349002645,3337.168558622012,s182_10192022,001,2022_Oct_19_1429,test_typingtask_norepeats,2020.2.10,59.983476102419836,
edthe,edthe,,,,,,,,,0,102,102,102,,,,,,,,,,,,,,,3342.568529234035,None,"['e', 'd', 't', 'h', 'e']",1,"[0.6503537700045854, 0.8423549630097114, 1.0664470720221289, 1.1784268060000613, 1.298389044997748]",3342.568529234035,None,3342.5682970386288,3342.6684281390044,s182_10192022,001,2022_Oct_19_1429,test_typingtask_norepeats,2020.2.10,59.983476102419836,
kremp,kremp,,,,,,,,,0,103,103,103,,,,,,,,,,,,,,,3348.0684642190463,None,"['k', 'r', 'e', 'm', 'p']",1,"[0.7185162439709529, 0.9104095209622756, 0.9904735509771854, 1.190519811003469, 1.430446652986575]",3348.0684642190463,None,3348.0684534736383,3348.168512011005,s182_10192022,001,2022_Oct_19_1429,test_typingtask_norepeats,2020.2.10,59.983476102419836,
druze,druze,,,,,,,,,0,104,104,104,,,,,,,,,,,,,,,3353.5684464040096,None,"['d', 'r', 'u', 'z', 'e']",1,"[0.6585276480182074, 0.8424097240203992, 1.3144637010409497, 1.8585822600289248, 2.0585797800449654]",3353.5684464040096,None,3353.5685005876176,3353.668438679015,s182_10192022,001,2022_Oct_19_1429,test_typingtask_norepeats,2020.2.10,59.983476102419836,
buddy,buddy,,,,,,,,,0,105,105,105,,,,,,,,,,,,,,,3359.0685197180137,None,"['b', 'u', 'd', 'd', 'y']",1,"[0.8784590699942783, 0.9744324859930202, 1.1423332479898818, 1.3024680700036697, 1.4944672309793532]",3359.0685197180137,None,3359.068668162642,3359.1683992799954,s182_10192022,001,2022_Oct_19_1429,test_typingtask_norepeats,2020.2.10,59.983476102419836,
would,would,,,,,,,,,0,106,106,106,,,,,,,,,,,,,,,3364.5686630220152,None,"['w', 'o', 'u', 'l', 'd']",1,"[0.7062723340350203, 0.8421889049932361, 0.9142458160058595, 1.098263391002547, 1.1863155760220252]",3364.5686630220152,None,3364.5684910105947,3364.6686147450237,s182_10192022,001,2022_Oct_19_1429,test_typingtask_norepeats,2020.2.10,59.983476102419836,
pykka,pykka,,,,,,,,,0,107,107,107,,,,,,,,,,,,,,,3370.0684284699964,None,"['p', 'y', 'k', 'k', 'a']",1,"[0.998469626007136, 1.2465217259596102, 1.470503882970661, 1.6065062250127085, 1.7104604479973204]",3370.0684284699964,None,3370.0682422146374,3370.1683133270126,s182_10192022,001,2022_Oct_19_1429,test_typingtask_norepeats,2020.2.10,59.983476102419836,
heond,heond,,,,,,,,,0,108,108,108,,,,,,,,,,,,,,,3375.5687814150006,None,"['h', 'e', 'o', 'n', 'd']",1,"[0.9941664839861915, 1.170197467028629, 1.330151517991908, 1.4260937130311504, 1.5380921210162342]",3375.5687814150006,None,3375.5685678326,3375.668692483043,s182_10192022,001,2022_Oct_19_1429,test_typingtask_norepeats,2020.2.10,59.983476102419836,
buddy,buddy,,,,,,,,,0,109,109,109,,,,,,,,,,,,,,,3381.068591124029,None,"['b', 'u', 'd', 'd', 'y']",1,"[0.814266424975358, 0.9262704189750366, 1.0703309899545275, 1.2143118089879863, 1.3983730939798988]",3381.068591124029,None,3381.068595392647,3381.168559551006,s182_10192022,001,2022_Oct_19_1429,test_typingtask_norepeats,2020.2.10,59.983476102419836,
vanru,vanru,,,,,,,,,0,110,110,110,,,,,,,,,,,,,,,3386.5681570530287,None,"['v', 'a', 'n', 'r', 'u']",1,"[0.802772628958337, 0.9387708809808828, 1.1228283389937133, 1.3467277019517496, 1.4668317519826815]",3386.5681570530287,None,3386.5682668755935,3386.6681755290483,s182_10192022,001,2022_Oct_19_1429,test_typingtask_norepeats,2020.2.10,59.983476102419836,
lucky,lucky,,,,,,,,,0,111,111,111,,,,,,,,,,,,,,,3392.068379767996,None,"['l', 'u', 'c', 'k', 'y']",1,"[0.7584890690050088, 0.8705629340256564, 0.998557259037625, 1.1425361040164717, 1.3586356040323153]",3392.068379767996,None,3392.068350919598,3392.168575409043,s182_10192022,001,2022_Oct_19_1429,test_typingtask_norepeats,2020.2.10,59.983476102419836,
kremp,kremp,,,,,,,,,0,112,112,112,,,,,,,,,,,,,,,3397.5684098880156,None,"['k', 'r', 'e', 'm', 'p']",1,"[0.7706025760271586, 0.9065401169937104, 0.9865184950176626, 1.14653836900834, 1.3225165670155548]",3397.5684098880156,None,3397.568754543626,3397.6686352080433,s182_10192022,001,2022_Oct_19_1429,test_typingtask_norepeats,2020.2.10,59.983476102419836,
tithe,tithe,,,,,,,,,0,113,113,113,,,,,,,,,,,,,,,3403.0686279510264,None,"['t', 'i', 't', 'h', 'e']",1,"[0.6542555279447697, 0.806237913959194, 0.9502457599737681, 1.0543585189734586, 1.1663424389553256]",3403.0686279510264,None,3403.0685714525926,3403.168618144002,s182_10192022,001,2022_Oct_19_1429,test_typingtask_norepeats,2020.2.10,59.983476102419836,
vodka,vodka,,,,,,,,,0,114,114,114,,,,,,,,,,,,,,,3408.568712980021,None,"['v', 'o', 'd', 'k', 'a']",1,"[0.7462539480184205, 0.8662123139947653, 1.0101663840468973, 1.1622048640274443, 1.3221820309991017]",3408.568712980021,None,3408.568509575637,3408.6686687930487,s182_10192022,001,2022_Oct_19_1429,test_typingtask_norepeats,2020.2.10,59.983476102419836,
champ,champ,,,,,,,,,0,115,115,115,,,,,,,,,,,,,,,3414.0686596170417,None,"['c', 'h', 'a', 'm', 'p']",1,"[0.6062689699465409, 0.710194902960211, 0.8303124369704165, 0.974267853947822, 1.1182794889900833]",3414.0686596170417,None,3414.0683939556066,3414.1685421830043,s182_10192022,001,2022_Oct_19_1429,test_typingtask_norepeats,2020.2.10,59.983476102419836,
belly,belly,,,,,,,,,0,116,116,116,,,,,,,,,,,,,,,3419.568257986044,None,"['b', 'e', 'l', 'l', 'y']",1,"[0.7387299810070544, 0.8427149939816445, 1.0106165320030414, 1.1867303680046462, 1.3146124779595993]",3419.568257986044,None,3419.568174400617,3419.6684893280035,s182_10192022,001,2022_Oct_19_1429,test_typingtask_norepeats,2020.2.10,59.983476102419836,
cooed,cooed,,,,,,,,,0,117,117,117,,,,,,,,,,,,,,,3425.068539109023,None,"['c', 'o', 'o', 'e', 'd']",1,"[0.622446522989776, 0.7984071399550885, 0.9263296319986694, 1.022397642955184, 1.1983981920056976]",3425.068539109023,None,3425.0687007786064,3425.1686109020375,s182_10192022,001,2022_Oct_19_1429,test_typingtask_norepeats,2020.2.10,59.983476102419836,
tithe,tithe,,,,,,,,,0,118,118,118,,,,,,,,,,,,,,,3430.568593249016,None,"['t', 'i', 't', 'h', 'e']",1,"[0.5943372060428374, 0.7703344430192374, 0.8983487890218385, 1.074379810015671, 1.1544076980208047]",3430.568593249016,None,3430.5686477245936,3430.668437316024,s182_10192022,001,2022_Oct_19_1429,test_typingtask_norepeats,2020.2.10,59.983476102419836,
about,about,,,,,,,,,0,119,119,119,,,,,,,,,,,,,,,3436.0687591860187,None,"['a', 'b', 'o', 'u', 't']",1,"[0.5181942299823277, 0.6941294620046392, 0.9422524659894407, 1.0301695349626243, 1.1741759739816189]",3436.0687591860187,None,3436.0689258786324,3436.1687038620003,s182_10192022,001,2022_Oct_19_1429,test_typingtask_norepeats,2020.2.10,59.983476102419836,
