string,corrAns,practice_trials.thisRepN,practice_trials.thisTrialN,practice_trials.thisN,practice_trials.thisIndex,trials_1.thisRepN,trials_1.thisTrialN,trials_1.thisN,trials_1.thisIndex,trials_2.thisRepN,trials_2.thisTrialN,trials_2.thisN,trials_2.thisIndex,key_resp_0.keys,key_resp_0.corr,key_resp_0.rt,text_1.started,text_1.stopped,key_resp_1.keys,key_resp_1.corr,key_resp_1.rt,key_resp_1.started,key_resp_1.stopped,sound_1A_1.started,sound_1A_1.stopped,break_time.started,break_time.stopped,text_2.started,text_2.stopped,key_resp_2.keys,key_resp_2.corr,key_resp_2.rt,key_resp_2.started,key_resp_2.stopped,sound_1A_2.started,sound_1A_2.stopped,participant,session,date,expName,psychopyVersion,frameRate,
fresh,fresh,0,0,0,0,,,,,,,,,"['f', 'r', 'e', 's', 'h']",1,"[0.7790844090000064, 0.8430860139999368, 1.0430935449999197, 1.3552027480000106, 1.5311185670000214]",,,,,,,,,,,,,,,,,,,,,s183_10272022 (redo),001,2022_Oct_27_1550,test_typingtask_norepeats,2020.2.10,60.141151643757,
dream,dream,0,1,1,1,,,,,,,,,"['d', 'r', 'e', 'a', 'm']",1,"[0.8788639609999791, 1.1188918230000127, 1.302854907999972, 1.486943255000142, 1.7507808570001089]",,,,,,,,,,,,,,,,,,,,,s183_10272022 (redo),001,2022_Oct_27_1550,test_typingtask_norepeats,2020.2.10,60.141151643757,
slime,slime,0,2,2,2,,,,,,,,,"['s', 'l', 'i', 'm', 'n', 'e']",0,"[0.8105742900002042, 0.9546142320000399, 1.1785980010001822, 1.322527576000084, 1.322527576000084, 1.4026185280001755]",,,,,,,,,,,,,,,,,,,,,s183_10272022 (redo),001,2022_Oct_27_1550,test_typingtask_norepeats,2020.2.10,60.141151643757,
zibja,zibja,,,,,0,0,0,0,,,,,,,,130.585221757,None,"['z', 'i', 'b', 'j', 'a']",1,"[1.1359702600000219, 1.3599487240001054, 1.5839731220000886, 1.7919857530000627, 1.9279891549999775]",130.585221757,None,130.5748772286001,130.67458266599988,,,,,,,,,,,,s183_10272022 (redo),001,2022_Oct_27_1550,test_typingtask_norepeats,2020.2.10,60.141151643757,
theme,theme,,,,,0,1,1,1,,,,,,,,136.07437148200006,None,"['t', 'h', 'e', 'm', 'e']",1,"[0.862717750999991, 0.9427914899999905, 1.1107779100000243, 1.1907547890000387, 1.3507685500001116]",136.07437148200006,None,136.0744467586,136.17433703799998,,,,,,,,,,,,s183_10272022 (redo),001,2022_Oct_27_1550,test_typingtask_norepeats,2020.2.10,60.141151643757,
cheer,cheer,,,,,0,2,2,2,,,,,,,,141.57458458799988,None,"['c', 'h', 'e', 'e', 'r']",1,"[0.9465990799999418, 1.1065622369999346, 1.29858569299995, 1.466557187000035, 1.6345164489998751]",141.57458458799988,None,141.5748448706001,141.67480642400005,,,,,,,,,,,,s183_10272022 (redo),001,2022_Oct_27_1550,test_typingtask_norepeats,2020.2.10,60.141151643757,
faqir,faqir,,,,,0,3,3,3,,,,,,,,147.07427775199994,None,"['f', 'a', 'q', 'i', 'r']",1,"[0.8708167130000675, 1.0389570249999451, 1.3108840479999344, 1.6148985970000922, 1.7989380240001083]",147.07427775199994,None,147.07444702259994,147.174474079,,,,,,,,,,,,s183_10272022 (redo),001,2022_Oct_27_1550,test_typingtask_norepeats,2020.2.10,60.141151643757,
buddy,buddy,,,,,0,4,4,4,,,,,,,,152.57473494600004,None,"['b', 'u', 'd', 'd', 'y']",1,"[0.9143914969999969, 1.074438101999931, 1.186479726000016, 1.346474839999928, 1.4584650009999223]",152.57473494600004,None,152.57479722559987,152.67478999399987,,,,,,,,,,,,s183_10272022 (redo),001,2022_Oct_27_1550,test_typingtask_norepeats,2020.2.10,60.141151643757,
puppy,puppy,,,,,0,5,5,5,,,,,,,,158.091021017,None,"['p', 'u', 'p', 'p', 'y']",1,"[0.7980984239998179, 1.054105846999846, 1.25410527799977, 1.406165632000011, 1.5580894770000668]",158.091021017,None,158.0908756725998,158.1904996600001,,,,,,,,,,,,s183_10272022 (redo),001,2022_Oct_27_1550,test_typingtask_norepeats,2020.2.10,60.141151643757,
druze,druze,,,,,0,6,6,6,,,,,,,,163.59136904700017,None,"['d', 'r', 'i', 'z', 'e']",0,"[0.7537947989999338, 0.9298519089998081, 1.105821049000042, 1.5457666339998468, 1.7457599229996958]",163.59136904700017,None,163.5915497385999,163.691219371,,,,,,,,,,,,s183_10272022 (redo),001,2022_Oct_27_1550,test_typingtask_norepeats,2020.2.10,60.141151643757,
therm,therm,,,,,0,7,7,7,,,,,,,,169.09137620499996,None,"['t', 'h', 'e', 'r', 'm']",1,"[0.8618113130000893, 0.9498211259997333, 1.1337195900000552, 1.213813941999888, 1.4057950809997237]",169.09137620499996,None,169.09163437559977,169.19131450999976,,,,,,,,,,,,s183_10272022 (redo),001,2022_Oct_27_1550,test_typingtask_norepeats,2020.2.10,60.141151643757,
zibja,zibja,,,,,0,8,8,8,,,,,,,,174.59138001600013,None,"['z', 'i', 'n', 'j', 'backspace', 'backspace', 'b', 'j', 'a']",0,"[1.145752148000156, 1.321843127000193, 1.5217851550000887, 1.705793796999842, 2.369834100999924, 2.5218416329998945, 3.0257563039999695, 3.1617993939998996, 3.241851778000182]",174.59138001600013,None,174.59106557460012,174.6913680570001,,,,,,,,,,,,s183_10272022 (redo),001,2022_Oct_27_1550,test_typingtask_norepeats,2020.2.10,60.141151643757,
belly,belly,,,,,0,9,9,9,,,,,,,,180.09164152699987,None,"['b', 'r', 'e', 'l', 'l', 'y']",0,"[0.8375701080003637, 1.0295447870003045, 1.0375653950000014, 1.4135208110001258, 1.5895760930002325, 1.7015590800001519]",180.09164152699987,None,180.09141249660019,180.19137963100002,,,,,,,,,,,,s183_10272022 (redo),001,2022_Oct_27_1550,test_typingtask_norepeats,2020.2.10,60.141151643757,
tithe,tithe,,,,,0,10,10,10,,,,,,,,185.5915529230001,None,"['t', 'i', 't', 'h', 'e', 'w']",0,"[0.8736717410001802, 1.0335619890001908, 1.2095600369998465, 1.3455991119999453, 1.497620108999854, 1.5056278339998244]",185.5915529230001,None,185.5915937795998,185.69123603399976,,,,,,,,,,,,s183_10272022 (redo),001,2022_Oct_27_1550,test_typingtask_norepeats,2020.2.10,60.141151643757,
cheer,cheer,,,,,0,11,11,11,,,,,,,,191.0909908409999,None,"['c', 'h', 'e', 'e', 'r']",1,"[0.7902675619998263, 0.9582320599997729, 1.1502053269996395, 1.3181123089998437, 1.4862214329996277]",191.0909908409999,None,191.09117591360013,191.19143874500014,,,,,,,,,,,,s183_10272022 (redo),001,2022_Oct_27_1550,test_typingtask_norepeats,2020.2.10,60.141151643757,
puppy,puppy,,,,,0,12,12,12,,,,,,,,196.591427931,None,"['p', 'u', 'p', 'p', 'y']",1,"[1.0096889860001284, 1.2657462650004163, 1.6976810720002504, 1.8497447450004074, 1.953776831000141]",196.591427931,None,196.59150169360004,196.69152961300006,,,,,,,,,,,,s183_10272022 (redo),001,2022_Oct_27_1550,test_typingtask_norepeats,2020.2.10,60.141151643757,
haole,haole,,,,,0,13,13,13,,,,,,,,202.09138804299982,None,"['h', 'a', 'o', 'l', 'e']",1,"[0.8858221249997769, 1.5097214990000793, 1.701772556999913, 1.8538272319997304, 1.9977379829997517]",202.09138804299982,None,202.0917103356,202.19145181300019,,,,,,,,,,,,s183_10272022 (redo),001,2022_Oct_27_1550,test_typingtask_norepeats,2020.2.10,60.141151643757,
edthe,edthe,,,,,0,14,14,14,,,,,,,,207.59132629099986,None,"['e', 'd', 't', 'h', 'e']",1,"[0.8977702820002378, 1.0577700270000605, 1.2818707610003912, 1.4259190679999847, 1.5138561120002123]",207.59132629099986,None,207.5916024125999,207.6915379090001,,,,,,,,,,,,s183_10272022 (redo),001,2022_Oct_27_1550,test_typingtask_norepeats,2020.2.10,60.141151643757,
think,think,,,,,0,15,15,15,,,,,,,,213.0914146770001,None,"['t', 'h', 'i', 'n', 'k']",1,"[0.7817895210000643, 0.8778363629999149, 1.0056982930000231, 1.133661372000006, 1.2456878160000997]",213.0914146770001,None,213.09149780559977,213.19150061699975,,,,,,,,,,,,s183_10272022 (redo),001,2022_Oct_27_1550,test_typingtask_norepeats,2020.2.10,60.141151643757,
there,there,,,,,0,16,16,16,,,,,,,,218.5916255699999,None,"['t', 'h', 'e', 'r']",0,"[0.7615742330003741, 0.8655468000001747, 1.0496079009999448, 1.1215544330002558]",218.5916255699999,None,218.5914162796002,218.69175532600002,,,,,,,,,,,,s183_10272022 (redo),001,2022_Oct_27_1550,test_typingtask_norepeats,2020.2.10,60.141151643757,
would,would,,,,,0,17,17,17,,,,,,,,224.09153118799986,None,"['w', 'o', 'u', 'l', 'd']",1,"[0.8536826709996603, 0.9736430299999483, 1.1576890319997801, 1.3175694789997578, 1.4216833599998608]",224.09153118799986,None,224.0915013866001,224.19148078399985,,,,,,,,,,,,s183_10272022 (redo),001,2022_Oct_27_1550,test_typingtask_norepeats,2020.2.10,60.141151643757,
lucky,lucky,,,,,0,18,18,18,,,,,,,,229.59143000199992,None,"['l', 'u', 'c', 'k', 'y']",1,"[0.7776971509997566, 1.0176984519998769, 1.1217923059998611, 1.2257651169998098, 1.3857768679999936]",229.59143000199992,None,229.59160599960018,229.691405262,,,,,,,,,,,,s183_10272022 (redo),001,2022_Oct_27_1550,test_typingtask_norepeats,2020.2.10,60.141151643757,
therm,therm,,,,,0,19,19,19,,,,,,,,235.0915126949999,None,"['t', 'h', 'e', 'r', 'm']",1,"[0.6856999379997433, 0.7577212969999891, 0.9017002709997541, 0.981665294999857, 1.1255966139997327]",235.0915126949999,None,235.0916994036001,235.19147559800012,,,,,,,,,,,,s183_10272022 (redo),001,2022_Oct_27_1550,test_typingtask_norepeats,2020.2.10,60.141151643757,
theme,theme,,,,,0,20,20,20,,,,,,,,240.5913198100002,None,"['t', 'h', 'm', 'e']",0,"[0.6978077379999377, 0.8498540020000291, 1.1057748179996452, 1.2097920579999482]",240.5913198100002,None,240.59143523059987,240.69155659099988,,,,,,,,,,,,s183_10272022 (redo),001,2022_Oct_27_1550,test_typingtask_norepeats,2020.2.10,60.141151643757,
tithe,tithe,,,,,0,21,21,21,,,,,,,,246.09163185999978,None,"['t', 'i', 't', 'h', 'e']",1,"[0.7415416419999019, 0.909477489999972, 1.1334699859999091, 1.149539422000089, 1.3334949299996879]",246.09163185999978,None,246.09141017960013,246.19183910399988,,,,,,,,,,,,s183_10272022 (redo),001,2022_Oct_27_1550,test_typingtask_norepeats,2020.2.10,60.141151643757,
theme,theme,,,,,0,22,22,22,,,,,,,,251.59169355799986,None,"['t', 'h', 'e', 'm', 'e']",1,"[0.7054184250000617, 0.8093870249999782, 0.9454092290002336, 1.1374562860000879, 1.2654289219999555]",251.59169355799986,None,251.59155714759976,251.69152683699986,,,,,,,,,,,,s183_10272022 (redo),001,2022_Oct_27_1550,test_typingtask_norepeats,2020.2.10,60.141151643757,
about,about,,,,,0,23,23,23,,,,,,,,257.09162194600003,None,"['a', 'b', 'o', 'u', 't']",1,"[0.8455376459996842, 0.9575821689995792, 1.1575972249997903, 1.349562524999783, 1.4135468309996213]",257.09162194600003,None,257.0915782376,257.1916481200001,,,,,,,,,,,,s183_10272022 (redo),001,2022_Oct_27_1550,test_typingtask_norepeats,2020.2.10,60.141151643757,
champ,champ,,,,,0,24,24,24,,,,,,,,262.591553192,None,"['c', 'h', 'a', 's', 'm', 'p']",0,"[0.6656538699999146, 0.8175509739999143, 0.9616841960000784, 0.9616841960000784, 1.0496463270001186, 1.2016551749998143]",262.591553192,None,262.59172703559983,262.6914831240001,,,,,,,,,,,,s183_10272022 (redo),001,2022_Oct_27_1550,test_typingtask_norepeats,2020.2.10,60.141151643757,
cooed,cooed,,,,,0,25,25,25,,,,,,,,268.09139807300016,None,"['c', 'o', 'o', 'e', 'd']",1,"[0.837767397999869, 1.0617936069997995, 1.229806974999974, 1.4377423119999548, 1.6298328839998248]",268.09139807300016,None,268.0915969615998,268.19142574499983,,,,,,,,,,,,s183_10272022 (redo),001,2022_Oct_27_1550,test_typingtask_norepeats,2020.2.10,60.141151643757,
belly,belly,,,,,0,26,26,26,,,,,,,,273.59116847199994,None,"['b', 'e', 'l', 'l', 'y']",1,"[0.7620299540003543, 0.890042597000047, 1.2099421980001352, 1.4099395140001434, 1.4420482290001928]",273.59116847199994,None,273.59125818160004,273.6916956760001,,,,,,,,,,,,s183_10272022 (redo),001,2022_Oct_27_1550,test_typingtask_norepeats,2020.2.10,60.141151643757,
champ,champ,,,,,0,27,27,27,,,,,,,,279.0915442209998,None,"['c', 'h', 'a', 'm', 'p']",1,"[0.6616507440003261, 0.8455988370001251, 0.9415694610001992, 1.061652243000026, 1.2136509440001646]",279.0915442209998,None,279.09165921359994,279.19148702799976,,,,,,,,,,,,s183_10272022 (redo),001,2022_Oct_27_1550,test_typingtask_norepeats,2020.2.10,60.141151643757,
vodka,vodka,,,,,0,28,28,28,,,,,,,,284.59167088000004,None,"['v', 'o', 'd', 'k', 'a']",1,"[0.8655469359996459, 1.1214633889999277, 1.4014227769998797, 1.6014833409999483, 1.7135636739999427]",284.59167088000004,None,284.59174286659976,284.692047772,,,,,,,,,,,,s183_10272022 (redo),001,2022_Oct_27_1550,test_typingtask_norepeats,2020.2.10,60.141151643757,
cheer,cheer,,,,,0,29,29,29,,,,,,,,290.091426898,None,"['c', 'h', 'e', 'e', 'r']",1,"[0.6697818759998881, 0.837678873999721, 1.0617708780000612, 1.2457227299996703, 1.4217844519998835]",290.091426898,None,290.09113495159994,290.1912587910001,,,,,,,,,,,,s183_10272022 (redo),001,2022_Oct_27_1550,test_typingtask_norepeats,2020.2.10,60.141151643757,
lucky,lucky,,,,,0,30,30,30,,,,,,,,295.59130457599986,None,"['l', 'u', 'c', 'k', 'y']",1,"[0.7538622150000265, 1.0419064590000744, 1.1538598689999162, 1.3059073809999973, 1.5139295929998298]",295.59130457599986,None,295.59132456560013,295.69146467500013,,,,,,,,,,,,s183_10272022 (redo),001,2022_Oct_27_1550,test_typingtask_norepeats,2020.2.10,60.141151643757,
think,think,,,,,0,31,31,31,,,,,,,,301.09151397799997,None,"['t', 'h', 'i', 'n', 'k']",1,"[0.7095898709999346, 0.7975979170000755, 0.8935868700000356, 1.037710054999934, 1.133622940999885]",301.09151397799997,None,301.0916016746,301.1913996180001,,,,,,,,,,,,s183_10272022 (redo),001,2022_Oct_27_1550,test_typingtask_norepeats,2020.2.10,60.141151643757,
vanru,vanru,,,,,0,32,32,32,,,,,,,,306.5915613389998,None,"['v', 'a', 'n', 'r', 'u']",1,"[1.113657651000267, 1.2735470860002351, 1.4335882200002743, 1.657656445000157, 1.8736616950000098]",306.5915613389998,None,306.59164803259995,306.69149508400005,,,,,,,,,,,,s183_10272022 (redo),001,2022_Oct_27_1550,test_typingtask_norepeats,2020.2.10,60.141151643757,
kremp,kremp,,,,,0,33,33,33,,,,,,,,312.0915913640001,None,"['k', 'r', 'e', 'm', 'p']",1,"[0.9975209979997999, 1.1416408639997826, 1.213623102999918, 1.381617763000122, 1.5255394279997745]",312.0915913640001,None,312.09189764060005,312.1914787420001,,,,,,,,,,,,s183_10272022 (redo),001,2022_Oct_27_1550,test_typingtask_norepeats,2020.2.10,60.141151643757,
vodka,vodka,,,,,0,34,34,34,,,,,,,,317.59148798299975,None,"['v', 'o', 'k', 'backspace', 'd', 'k', 'a']",0,"[0.8736293560000377, 1.065722124000331, 1.2417440970002644, 1.745689276000121, 1.9617309560003378, 2.113685922000059, 2.18570430400041]",317.59148798299975,None,317.5913171646002,317.691573823,,,,,,,,,,,,s183_10272022 (redo),001,2022_Oct_27_1550,test_typingtask_norepeats,2020.2.10,60.141151643757,
there,there,,,,,0,35,35,35,,,,,,,,323.0920149650001,None,"['t', 'h', 'e', 'r', 'e']",1,"[0.7570789009996588, 0.8531192499999634, 0.9732068289999916, 1.0691633910000746, 1.2212080629997217]",323.0920149650001,None,323.0913873416002,323.19162822399994,,,,,,,,,,,,s183_10272022 (redo),001,2022_Oct_27_1550,test_typingtask_norepeats,2020.2.10,60.141151643757,
tithe,tithe,,,,,0,36,36,36,,,,,,,,328.59128723799995,None,"['t', 'i', 't', 'h', 'e']",1,"[0.7218874839995806, 0.8258377349998227, 1.0338107099996705, 1.0818815769998764, 1.2338186959996165]",328.59128723799995,None,328.5915084225998,328.69134472299993,,,,,,,,,,,,s183_10272022 (redo),001,2022_Oct_27_1550,test_typingtask_norepeats,2020.2.10,60.141151643757,
heond,heond,,,,,0,37,37,37,,,,,,,,334.09164809899994,None,"['h', 'e', 'o', 'n', 'd']",1,"[1.0055727680000928, 1.125436751000052, 1.2615508449998742, 1.4375720799998817, 1.6215750369997295]",334.09164809899994,None,334.09193247060006,334.19157284799985,,,,,,,,,,,,s183_10272022 (redo),001,2022_Oct_27_1550,test_typingtask_norepeats,2020.2.10,60.141151643757,
vodka,vodka,,,,,0,38,38,38,,,,,,,,339.59144858499985,None,"['v', 'o', 'd', 'k', 'a']",1,"[1.113743119999981, 1.2657669350001015, 1.4737746989999323, 1.6497816979999698, 1.7377701099999285]",339.59144858499985,None,339.59141412759976,339.69135123299975,,,,,,,,,,,,s183_10272022 (redo),001,2022_Oct_27_1550,test_typingtask_norepeats,2020.2.10,60.141151643757,
heond,heond,,,,,0,39,39,39,,,,,,,,345.091225099,None,"['h', 'e', 'o', 'n', 'd']",1,"[0.9819560620003358, 1.2058775010000318, 1.3499851620003938, 1.5339338140001928, 1.8540280720003466]",345.091225099,None,345.0913989035998,345.19131554800015,,,,,,,,,,,,s183_10272022 (redo),001,2022_Oct_27_1550,test_typingtask_norepeats,2020.2.10,60.141151643757,
faqir,faqir,,,,,0,40,40,40,,,,,,,,350.591449648,None,"['f', 'a', 'q', 'i', 'r']",1,"[0.7777224729998125, 0.9137553959999423, 1.1216425470001923, 1.3377137460001904, 1.5296613569998954]",350.591449648,None,350.59169701759987,350.69152934199974,,,,,,,,,,,,s183_10272022 (redo),001,2022_Oct_27_1550,test_typingtask_norepeats,2020.2.10,60.141151643757,
buddy,buddy,,,,,0,41,41,41,,,,,,,,356.09163151699977,None,"['b', 'u', 'd', 'd', 'y']",1,"[0.6855861969997932, 0.8375719800001207, 1.1014729029998307, 1.2535799349998342, 1.3815756740000324]",356.09163151699977,None,356.09177594160013,356.1919411670001,,,,,,,,,,,,s183_10272022 (redo),001,2022_Oct_27_1550,test_typingtask_norepeats,2020.2.10,60.141151643757,
puppy,puppy,,,,,0,42,42,42,,,,,,,,361.59145352899986,None,"['p', 'u', 'p', 'p', 'y']",1,"[0.8976549620001606, 1.1376531739997517, 1.3377522229998249, 1.473767050999868, 1.6176494119999916]",361.59145352899986,None,361.5911938986,361.6912952060002,,,,,,,,,,,,s183_10272022 (redo),001,2022_Oct_27_1550,test_typingtask_norepeats,2020.2.10,60.141151643757,
therm,therm,,,,,0,43,43,43,,,,,,,,367.09180418200003,None,"['t', 'h', 'e', 'r', 'm']",1,"[0.9414277070000026, 1.0452783989999261, 1.1814060570000038, 1.2853708650000044, 1.453407698999854]",367.09180418200003,None,367.0915179956,367.1917686040001,,,,,,,,,,,,s183_10272022 (redo),001,2022_Oct_27_1550,test_typingtask_norepeats,2020.2.10,60.141151643757,
vanru,vanru,,,,,0,44,44,44,,,,,,,,372.5913882099999,None,"['v', 'a', 'n', 'r', 'u']",1,"[0.8018265220002831, 0.9218340010002066, 1.0658231800002795, 1.313852123000288, 1.5937104489999]",372.5913882099999,None,372.5916917606,372.6916124630002,,,,,,,,,,,,s183_10272022 (redo),001,2022_Oct_27_1550,test_typingtask_norepeats,2020.2.10,60.141151643757,
zibja,zibja,,,,,0,45,45,45,,,,,,,,378.091346617,None,"['z', 'i', 'b', 'j', 'a']",1,"[1.197754625000016, 1.4537823840000783, 1.6457334570000057, 1.8138214809996498, 1.9498617720000766]",378.091346617,None,378.0915881306,378.19125076,,,,,,,,,,,,s183_10272022 (redo),001,2022_Oct_27_1550,test_typingtask_norepeats,2020.2.10,60.141151643757,
kremp,kremp,,,,,0,46,46,46,,,,,,,,383.5934785139998,None,"['k', 'r', 'e', 'm', 'p']",1,"[0.9356158329997015, 1.0956187219999265, 1.1597067229999993, 1.2637211960000059, 1.3915987639998093]",383.5934785139998,None,383.5922697795999,383.69228592499985,,,,,,,,,,,,s183_10272022 (redo),001,2022_Oct_27_1550,test_typingtask_norepeats,2020.2.10,60.141151643757,
therm,therm,,,,,0,47,47,47,,,,,,,,389.09163390799995,None,"['t', 'h', 'e', 'r', 'm']",1,"[0.6855727010001829, 0.7815719929999432, 0.8935719790001713, 0.9815609770002993, 1.0854974900003072]",389.09163390799995,None,389.0915874396,389.1917184099998,,,,,,,,,,,,s183_10272022 (redo),001,2022_Oct_27_1550,test_typingtask_norepeats,2020.2.10,60.141151643757,
belly,belly,,,,,0,48,48,48,,,,,,,,394.59171702699996,None,"['b', 'e', 'l', 'l', 'y']",1,"[0.6573878049998712, 0.7695119539998814, 0.8895111100000577, 1.0333802539998942, 1.1214606950002235]",394.59171702699996,None,394.59161210660017,394.69155652300014,,,,,,,,,,,,s183_10272022 (redo),001,2022_Oct_27_1550,test_typingtask_norepeats,2020.2.10,60.141151643757,
about,about,,,,,0,49,49,49,,,,,,,,400.0919762479998,None,"['a', 'b', 'o', 'u', 't']",1,"[0.6532357549999688, 0.7572348349999629, 0.9171139149998453, 1.0931084680000822, 1.1971241370001735]",400.0919762479998,None,400.09181615360006,400.1918947280001,,,,,,,,,,,,s183_10272022 (redo),001,2022_Oct_27_1550,test_typingtask_norepeats,2020.2.10,60.141151643757,
kremp,kremp,,,,,0,50,50,50,,,,,,,,405.59174429099994,None,"['k', 'r', 'e', 'm', 'l', 'o', 'p']",0,"[0.7054309009999997, 0.8654935129998194, 0.9214693600001738, 1.0173600660000375, 1.1775207710002178, 1.1853528309998183, 1.2973869020001985]",405.59174429099994,None,405.5918085926,405.6917409150001,,,,,,,,,,,,s183_10272022 (redo),001,2022_Oct_27_1550,test_typingtask_norepeats,2020.2.10,60.141151643757,
vodka,vodka,,,,,0,51,51,51,,,,,,,,411.09161770699984,None,"['v', 'o', 'd', 'k', 'a']",1,"[0.7815715360002287, 0.9495976860002884, 1.2216022370002975, 1.405501034000281, 1.5094873390003158]",411.09161770699984,None,411.0919439046001,411.19166485200003,,,,,,,,,,,,s183_10272022 (redo),001,2022_Oct_27_1550,test_typingtask_norepeats,2020.2.10,60.141151643757,
there,there,,,,,0,52,52,52,,,,,,,,416.59125153800005,None,"['t', 'h', 'e', 'r', 'e']",1,"[0.7619179299999814, 0.8499557529999038, 0.9458969840002283, 1.0499555430001237, 1.161933640999905]",416.59125153800005,None,416.5914466456001,416.69162695199975,,,,,,,,,,,,s183_10272022 (redo),001,2022_Oct_27_1550,test_typingtask_norepeats,2020.2.10,60.141151643757,
cheer,cheer,,,,,0,53,53,53,,,,,,,,422.0918583739999,None,"['c', 'h', 'e', 'e', 'r']",1,"[0.6773761619997458, 0.8613321459997678, 1.0133315260000018, 1.22136353399992, 1.3413394959998186]",422.0918583739999,None,422.09183166860015,422.191801898,,,,,,,,,,,,s183_10272022 (redo),001,2022_Oct_27_1550,test_typingtask_norepeats,2020.2.10,60.141151643757,
buddy,buddy,,,,,0,54,54,54,,,,,,,,427.59167132599987,None,"['b', 'u', 'f', 'f', 'd', 'y']",0,"[0.6094222319998153, 0.7854981589998715, 0.9854630999998335, 1.169550049999998, 1.8734356360000675, 2.001541768000152]",427.59167132599987,None,427.5918512995999,427.69174682699986,,,,,,,,,,,,s183_10272022 (redo),001,2022_Oct_27_1550,test_typingtask_norepeats,2020.2.10,60.141151643757,
tithe,tithe,,,,,0,55,55,55,,,,,,,,433.091606557,None,"['t', 'i', 't', 'h', 'e']",1,"[0.6776445070004229, 0.8696072890002142, 1.0454893590003849, 1.1334865430003447, 1.253606067000419]",433.091606557,None,433.0915067526002,433.1915590839999,,,,,,,,,,,,s183_10272022 (redo),001,2022_Oct_27_1550,test_typingtask_norepeats,2020.2.10,60.141151643757,
therm,therm,,,,,0,56,56,56,,,,,,,,438.5916683549999,None,"['t', 'h', 'e', 'r', 'm']",1,"[0.6254497760000959, 0.7375493829999868, 0.7934312790002878, 0.9054378570003792, 1.0014370630001395]",438.5916683549999,None,438.5917950276002,438.6922299170001,,,,,,,,,,,,s183_10272022 (redo),001,2022_Oct_27_1550,test_typingtask_norepeats,2020.2.10,60.141151643757,
edthe,edthe,,,,,0,57,57,57,,,,,,,,444.0917976239998,None,"['e', 'd', 't', 'h', 'e']",1,"[0.8373789359998227, 1.0133897719997549, 1.2214159249997465, 1.3573213859999669, 1.4533489989998998]",444.0917976239998,None,444.09169370859985,444.19182232,,,,,,,,,,,,s183_10272022 (redo),001,2022_Oct_27_1550,test_typingtask_norepeats,2020.2.10,60.141151643757,
pykka,pykka,,,,,0,58,58,58,,,,,,,,449.5916728379998,None,"['p', 'y', 'k', 'k', 'a']",1,"[1.481481074000385, 1.6174313440001242, 2.0174285670000245, 2.1695026820002568, 2.265538669000307]",449.5916728379998,None,449.59186617559993,449.69188469599976,,,,,,,,,,,,s183_10272022 (redo),001,2022_Oct_27_1550,test_typingtask_norepeats,2020.2.10,60.141151643757,
about,about,,,,,0,59,59,59,,,,,,,,455.0915720799999,None,"['a', 'b', 'o', 'u', 't']",1,"[0.6455293370004256, 0.7175193980001495, 0.8775916930003405, 1.0616371109999818, 1.1256867030001558]",455.0915720799999,None,455.0916205856001,455.19142264599986,,,,,,,,,,,,s183_10272022 (redo),001,2022_Oct_27_1550,test_typingtask_norepeats,2020.2.10,60.141151643757,
belly,belly,,,,,0,60,60,60,,,,,,,,460.591844002,None,"['b', 'e', 'l', 'l', 'y']",1,"[0.6412938329999633, 0.7614346929999556, 0.8893753949996608, 1.0333671639996282, 1.1534016279997559]",460.591844002,None,460.59232134359985,460.6916823820002,,,,,,,,,,,,s183_10272022 (redo),001,2022_Oct_27_1550,test_typingtask_norepeats,2020.2.10,60.141151643757,
cheer,cheer,,,,,0,61,61,61,,,,,,,,466.0919535610001,None,"['c', 'h', 'e', 'e', 'r']",1,"[0.6692132370003492, 0.8532196959999965, 1.0052744800000255, 1.1892702550003378, 1.35726901299995]",466.0919535610001,None,466.0916863246002,466.19203272699997,,,,,,,,,,,,s183_10272022 (redo),001,2022_Oct_27_1550,test_typingtask_norepeats,2020.2.10,60.141151643757,
belly,belly,,,,,0,62,62,62,,,,,,,,471.59204661900003,None,"['b', 'e', 'l', 'l', 'y']",1,"[0.7211771689999296, 0.8250396089997594, 0.9691527069999211, 1.1290961740000967, 1.2651611539999976]",471.59204661900003,None,471.59191226160004,471.691863988,,,,,,,,,,,,s183_10272022 (redo),001,2022_Oct_27_1550,test_typingtask_norepeats,2020.2.10,60.141151643757,
haole,haole,,,,,0,63,63,63,,,,,,,,477.0915617380001,None,"['h', 'a', 'o', 'l', 'e']",1,"[0.8536589159998584, 0.9496371929999441, 1.2856277000000773, 1.4296446499997728, 1.5576669970000694]",477.0915617380001,None,477.0917099585999,477.19160863399975,,,,,,,,,,,,s183_10272022 (redo),001,2022_Oct_27_1550,test_typingtask_norepeats,2020.2.10,60.141151643757,
champ,champ,,,,,0,64,64,64,,,,,,,,482.59185654700013,None,"['c', 'h', 'a', 'm', 'p']",1,"[1.1053176860000349, 1.2252757109999948, 1.3053770700003042, 1.5373184019999826, 1.6973498209999889]",482.59185654700013,None,482.5919332906,482.69197077299987,,,,,,,,,,,,s183_10272022 (redo),001,2022_Oct_27_1550,test_typingtask_norepeats,2020.2.10,60.141151643757,
haole,haole,,,,,0,65,65,65,,,,,,,,488.0918081089999,None,"['h', 'a', 'o', 'l', 'e']",1,"[0.7894549590000679, 0.8932973689998107, 1.1333858109996982, 1.2932821929998681, 1.453404013999716]",488.0918081089999,None,488.09188703959984,488.19181337300006,,,,,,,,,,,,s183_10272022 (redo),001,2022_Oct_27_1550,test_typingtask_norepeats,2020.2.10,60.141151643757,
vanru,vanru,,,,,0,66,66,66,,,,,,,,493.5914957959999,None,"['v', 'a', 'n', 'r', 'u']",1,"[0.7216516200001024, 0.8815921200002776, 1.0656541840003229, 1.3696919730000445, 1.561716195000372]",493.5914957959999,None,493.5916911596,493.69161465399975,,,,,,,,,,,,s183_10272022 (redo),001,2022_Oct_27_1550,test_typingtask_norepeats,2020.2.10,60.141151643757,
lucky,lucky,,,,,0,67,67,67,,,,,,,,499.0918330599998,None,"['l', 'u', 'c', 'k', 'y']",1,"[0.7253411490000872, 0.9812785980002445, 1.0853786790003142, 1.2213901810000607, 1.4053861100001086]",499.0918330599998,None,499.09203080460014,499.1920222409999,,,,,,,,,,,,s183_10272022 (redo),001,2022_Oct_27_1550,test_typingtask_norepeats,2020.2.10,60.141151643757,
think,think,,,,,0,68,68,68,,,,,,,,504.591950686,None,"['t', 'h', 'i', 'n', 'k']",1,"[0.6171477570001116, 0.7211380359999566, 0.833247005999965, 0.9452886220001346, 1.073219637999955]",504.591950686,None,504.5917636536,504.6920124970002,,,,,,,,,,,,s183_10272022 (redo),001,2022_Oct_27_1550,test_typingtask_norepeats,2020.2.10,60.141151643757,
vanru,vanru,,,,,0,69,69,69,,,,,,,,510.09200892599983,None,"['v', 'a', 'n', 'r', 'u']",1,"[0.7572045090000756, 0.8931356460002462, 1.0692025380003543, 1.4452233790002538, 1.605214272000012]",510.09200892599983,None,510.09183965259984,510.191944444,,,,,,,,,,,,s183_10272022 (redo),001,2022_Oct_27_1550,test_typingtask_norepeats,2020.2.10,60.141151643757,
think,think,,,,,0,70,70,70,,,,,,,,515.5917251149999,None,"['t', 'h', 'n', 'k']",0,"[0.6494623710000269, 0.7614645349999591, 0.9694900599997709, 1.6334874109998054]",515.5917251149999,None,515.5919064315998,515.691927633,,,,,,,,,,,,s183_10272022 (redo),001,2022_Oct_27_1550,test_typingtask_norepeats,2020.2.10,60.141151643757,
faqir,faqir,,,,,0,71,71,71,,,,,,,,521.0918599779998,None,"['f', 'a', 'q', 'i', 'r']",1,"[0.7333457270001418, 0.9172389380000823, 1.20536199199978, 1.4212747390001823, 1.6453072230001453]",521.0918599779998,None,521.0919757306,521.1918857269998,,,,,,,,,,,,s183_10272022 (redo),001,2022_Oct_27_1550,test_typingtask_norepeats,2020.2.10,60.141151643757,
haole,haole,,,,,0,72,72,72,,,,,,,,526.591866236,None,"['h', 'a', 'o', 'l', 'e']",1,"[0.8253239969999413, 0.9213340530000096, 1.1293127439998898, 1.2892985670000598, 1.4012922030001391]",526.591866236,None,526.5922384196,526.6917671840001,,,,,,,,,,,,s183_10272022 (redo),001,2022_Oct_27_1550,test_typingtask_norepeats,2020.2.10,60.141151643757,
there,there,,,,,0,73,73,73,,,,,,,,532.091899813,None,"['t', 'h', 'e', 'r']",0,"[0.701205157000004, 0.7812698689999706, 0.9092074250002042, 1.005325680000169]",532.091899813,None,532.0919853695999,532.1918746229999,,,,,,,,,,,,s183_10272022 (redo),001,2022_Oct_27_1550,test_typingtask_norepeats,2020.2.10,60.141151643757,
buddy,buddy,,,,,0,74,74,74,,,,,,,,537.591954343,None,"['b', 'u', 'd', 'd', 'y']",1,"[0.689213749999908, 0.8091418280000653, 1.0331553139999414, 1.2892055880001863, 1.497242554999957]",537.591954343,None,537.5920860986001,537.6920395030002,,,,,,,,,,,,s183_10272022 (redo),001,2022_Oct_27_1550,test_typingtask_norepeats,2020.2.10,60.141151643757,
cooed,cooed,,,,,0,75,75,75,,,,,,,,543.091604663,None,"['c', 'o', 'o', 'o', 'e', 'd']",0,"[0.8375954299999648, 1.0935071949998019, 1.2455220819997521, 1.3735215399997287, 1.5175002519999907, 1.6695867769999495]",543.091604663,None,543.0917143855999,543.192028209,,,,,,,,,,,,s183_10272022 (redo),001,2022_Oct_27_1550,test_typingtask_norepeats,2020.2.10,60.141151643757,
zibja,zibja,,,,,0,76,76,76,,,,,,,,548.5920521899998,None,"['x', 'backspace', 'z', 'i', 'b', 'j', 'a']",0,"[0.9611546649998672, 1.3451441450001766, 1.5450811269997757, 1.7450800199999321, 1.9051506229998267, 2.0331462700000884, 2.153127003999998]",548.5920521899998,None,548.5920482425998,548.6921199439998,,,,,,,,,,,,s183_10272022 (redo),001,2022_Oct_27_1550,test_typingtask_norepeats,2020.2.10,60.141151643757,
would,would,,,,,0,77,77,77,,,,,,,,554.0919093560001,None,"['w', 'o', 'u', 'l', 'd']",1,"[0.8212694969997756, 0.9091476389999116, 1.0852557529997284, 1.2132560209997791, 1.3572762320000038]",554.0919093560001,None,554.0922719596,554.1917660099998,,,,,,,,,,,,s183_10272022 (redo),001,2022_Oct_27_1550,test_typingtask_norepeats,2020.2.10,60.141151643757,
think,think,,,,,0,78,78,78,,,,,,,,559.5916301309999,None,"['t', 'h', 'i', 'n', 'k']",1,"[0.6575344149996454, 0.7775517739996758, 0.8495757089999643, 1.0094653629998902, 1.145614691999981]",559.5916301309999,None,559.5916885596001,559.6919334039999,,,,,,,,,,,,s183_10272022 (redo),001,2022_Oct_27_1550,test_typingtask_norepeats,2020.2.10,60.141151643757,
cooed,cooed,,,,,0,79,79,79,,,,,,,,565.0918678869998,None,"['c', 'o', 'o', 'e', 'd']",1,"[0.9493081200002962, 1.117236461000175, 1.2613605780002217, 1.4613516280001022, 1.5972884050001994]",565.0918678869998,None,565.0920128465999,565.191845935,,,,,,,,,,,,s183_10272022 (redo),001,2022_Oct_27_1550,test_typingtask_norepeats,2020.2.10,60.141151643757,
edthe,edthe,,,,,0,80,80,80,,,,,,,,570.59177623,None,"['e', 'd', 't', 'h', 'e']",1,"[0.7454366250003659, 0.8974038290002682, 1.0973915470003703, 1.2413887850002538, 1.3293461470002512]",570.59177623,None,570.5920559505997,570.6921631340001,,,,,,,,,,,,s183_10272022 (redo),001,2022_Oct_27_1550,test_typingtask_norepeats,2020.2.10,60.141151643757,
puppy,puppy,,,,,0,81,81,81,,,,,,,,576.0916390309999,None,"['p', 'u', 'p', 'p', 'y']",1,"[0.797522367000056, 1.0454702729998644, 1.2535745959999076, 1.405463827999938, 1.5495672490001198]",576.0916390309999,None,576.0917364346,576.191602292,,,,,,,,,,,,s183_10272022 (redo),001,2022_Oct_27_1550,test_typingtask_norepeats,2020.2.10,60.141151643757,
haole,haole,,,,,0,82,82,82,,,,,,,,581.5914709590002,None,"['h', 'a', 'o', 'l', 'e']",1,"[0.8416925490000722, 0.9457249780002712, 1.1296440190003523, 1.273695790000147, 1.3776814940001714]",581.5914709590002,None,581.5914229476001,581.6915458109997,,,,,,,,,,,,s183_10272022 (redo),001,2022_Oct_27_1550,test_typingtask_norepeats,2020.2.10,60.141151643757,
druze,druze,,,,,0,83,83,83,,,,,,,,587.0924678410001,None,"['d', 'r', 'i', 'z', 'e']",0,"[0.8127183270003115, 0.9886964910001552, 1.140706696000052, 1.4286985180001466, 1.6607277340003748]",587.0924678410001,None,587.0917843776,587.1918907429999,,,,,,,,,,,,s183_10272022 (redo),001,2022_Oct_27_1550,test_typingtask_norepeats,2020.2.10,60.141151643757,
faqir,faqir,,,,,0,84,84,84,,,,,,,,592.5919893,None,"['f', 'a', 'q', 'i', 'r']",1,"[0.785197523000079, 0.9451773750001848, 1.1852202999998553, 1.4091492090001339, 1.5692178300000705]",592.5919893,None,592.5920020955999,592.6920752739998,,,,,,,,,,,,s183_10272022 (redo),001,2022_Oct_27_1550,test_typingtask_norepeats,2020.2.10,60.141151643757,
tithe,tithe,,,,,0,85,85,85,,,,,,,,598.09202306,None,"['t', 'i', 't', 'h', 'e']",1,"[0.6691943979999451, 0.8370778620001147, 1.0131724689999828, 1.0851870799997414, 1.2291064790001656]",598.09202306,None,598.0921373045998,598.1918166589999,,,,,,,,,,,,s183_10272022 (redo),001,2022_Oct_27_1550,test_typingtask_norepeats,2020.2.10,60.141151643757,
zibja,zibja,,,,,0,86,86,86,,,,,,,,603.5921433990002,None,"['z', 'i', 'b', 'j', 'a']",1,"[1.0169575260001693, 1.1929626679998364, 1.4089567510000052, 1.5530712049999238, 1.6890807859999768]",603.5921433990002,None,603.5921522165999,603.6918431700001,,,,,,,,,,,,s183_10272022 (redo),001,2022_Oct_27_1550,test_typingtask_norepeats,2020.2.10,60.141151643757,
theme,theme,,,,,0,87,87,87,,,,,,,,609.0921090850002,None,"['t', 'h', 'e', 'm', 'e']",1,"[0.7491197809999903, 0.8371083379997799, 0.9731221849997382, 1.0930118609999226, 1.2211153959997318]",609.0921090850002,None,609.0919923286,609.1919195790001,,,,,,,,,,,,s183_10272022 (redo),001,2022_Oct_27_1550,test_typingtask_norepeats,2020.2.10,60.141151643757,
about,about,,,,,0,88,88,88,,,,,,,,614.5921489030002,None,"['a', 'b', 'o', 'u', 't']",1,"[0.7050172730000668, 0.8089602420000119, 0.9610687720000897, 1.1370557420000296, 1.2409646900000553]",614.5921489030002,None,614.5918911946,614.6921329349998,,,,,,,,,,,,s183_10272022 (redo),001,2022_Oct_27_1550,test_typingtask_norepeats,2020.2.10,60.141151643757,
pykka,pykka,,,,,0,89,89,89,,,,,,,,620.0917525219998,None,"['p', 'y', 'k', 'k', 'a']",1,"[1.0694226450000315, 1.3255278980000185, 1.557478139000068, 1.685463364000043, 1.7974030549999043]",620.0917525219998,None,620.0918265136,620.1916029549998,,,,,,,,,,,,s183_10272022 (redo),001,2022_Oct_27_1550,test_typingtask_norepeats,2020.2.10,60.141151643757,
druze,druze,,,,,0,90,90,90,,,,,,,,625.5920305159998,None,"['d', 'r', 'u', 'z', 'e']",1,"[0.7691838239998106, 0.953184274999785, 1.24917407599969, 1.4091540629997326, 1.609141941999951]",625.5920305159998,None,625.5921773956001,625.6920454390001,,,,,,,,,,,,s183_10272022 (redo),001,2022_Oct_27_1550,test_typingtask_norepeats,2020.2.10,60.141151643757,
cooed,cooed,,,,,0,91,91,91,,,,,,,,631.091771931,None,"['c', 'o', 'o', 'e', 'd']",1,"[1.133434214999852, 1.3974061489998348, 1.5413351059996785, 1.7094003929996688, 1.8694424450000042]",631.091771931,None,631.0917099985999,631.191746903,,,,,,,,,,,,s183_10272022 (redo),001,2022_Oct_27_1550,test_typingtask_norepeats,2020.2.10,60.141151643757,
druze,druze,,,,,0,92,92,92,,,,,,,,636.5916134849999,None,"['d', 'r', 'u', 'z', 'e']",1,"[0.7695600629999717, 0.9535317509999004, 1.241622555000049, 1.3934848280000551, 1.5774835069996698]",636.5916134849999,None,636.5918494316,636.6923072199997,,,,,,,,,,,,s183_10272022 (redo),001,2022_Oct_27_1550,test_typingtask_norepeats,2020.2.10,60.141151643757,
vanru,vanru,,,,,0,93,93,93,,,,,,,,642.091920845,None,"['v', 'a', 'n', 'r', 'u']",1,"[0.7652920159998757, 0.9253597970000556, 1.1492871020000166, 1.333262280999861, 1.5011808700000984]",642.091920845,None,642.0921391525998,642.1921299390001,,,,,,,,,,,,s183_10272022 (redo),001,2022_Oct_27_1550,test_typingtask_norepeats,2020.2.10,60.141151643757,
pykka,pykka,,,,,0,94,94,94,,,,,,,,647.591781916,None,"['p', 'y', 'k', 'k', 'a']",1,"[0.7614125300001433, 1.0813791310001761, 1.3374295870003152, 1.4813670180001282, 1.5614096150002297]",647.591781916,None,647.5917902095997,647.6918000320002,,,,,,,,,,,,s183_10272022 (redo),001,2022_Oct_27_1550,test_typingtask_norepeats,2020.2.10,60.141151643757,
puppy,puppy,,,,,0,95,95,95,,,,,,,,653.092268637,None,"['p', 'u', 'p', 'p', 't', 'y']",0,"[0.7969234560000586, 1.028871251000055, 1.2208996140002455, 1.372951372999978, 1.5089673980000953, 1.5249689840002247]",653.092268637,None,653.0921665865998,653.1922160630002,,,,,,,,,,,,s183_10272022 (redo),001,2022_Oct_27_1550,test_typingtask_norepeats,2020.2.10,60.141151643757,
lucky,lucky,,,,,0,96,96,96,,,,,,,,658.5919786730001,None,"['l', 'u', 'c', 'k', 'y']",1,"[0.8091148630001044, 1.0091314360001888, 1.561210833000132, 1.6971969780001928, 1.8731958769999437]",658.5919786730001,None,658.5919611225999,658.6921646000001,,,,,,,,,,,,s183_10272022 (redo),001,2022_Oct_27_1550,test_typingtask_norepeats,2020.2.10,60.141151643757,
kremp,kremp,,,,,0,97,97,97,,,,,,,,664.0918580550001,None,"['k', 'r', 'e', 'm', 'p', 'o']",0,"[0.8213520029999017, 0.9572357609999926, 0.9973560550001821, 1.0932402820003517, 1.19730007499993, 1.2053588630001286]",664.0918580550001,None,664.0921084336,664.19199712,,,,,,,,,,,,s183_10272022 (redo),001,2022_Oct_27_1550,test_typingtask_norepeats,2020.2.10,60.141151643757,
heond,heond,,,,,0,98,98,98,,,,,,,,669.59213925,None,"['h', 'e', 'o', 'n', 'd']",1,"[0.7610591749999003, 0.9530774720001318, 1.0810101920001216, 1.249078850999922, 1.4410833649999404]",669.59213925,None,669.5921279575999,669.6920418039999,,,,,,,,,,,,s183_10272022 (redo),001,2022_Oct_27_1550,test_typingtask_norepeats,2020.2.10,60.141151643757,
champ,champ,,,,,0,99,99,99,,,,,,,,675.0920367260001,None,"['c', 'h', 'a', 'm', 'p']",1,"[0.893061779999698, 1.0051895319998039, 1.0770602509996934, 1.2290759039997283, 1.3811281949997465]",675.0920367260001,None,675.0921092066,675.191832812,,,,,,,,,,,,s183_10272022 (redo),001,2022_Oct_27_1550,test_typingtask_norepeats,2020.2.10,60.141151643757,
pykka,pykka,,,,,0,100,100,100,,,,,,,,680.5920635580001,None,"['p', 'y', 'k', 'k', 'a']",1,"[0.7851463110000623, 1.0811036609998155, 1.3290520589998778, 1.4651148069997362, 1.5531502779999755]",680.5920635580001,None,680.5922978625998,680.6922998710002,,,,,,,,,,,,s183_10272022 (redo),001,2022_Oct_27_1550,test_typingtask_norepeats,2020.2.10,60.141151643757,
cooed,cooed,,,,,0,101,101,101,,,,,,,,686.0922416630001,None,"['c', 'o', 'o', 'e', 'd']",1,"[0.8369608019997941, 1.0209791429997495, 1.1569836630001191, 1.2849459899998692, 1.4288909110000532]",686.0922416630001,None,686.0920552615997,686.1922413249999,,,,,,,,,,,,s183_10272022 (redo),001,2022_Oct_27_1550,test_typingtask_norepeats,2020.2.10,60.141151643757,
theme,theme,,,,,0,102,102,102,,,,,,,,691.5923886370001,None,"['y', 't', 'h', 'e', 'm', 'e']",0,"[0.696787299999869, 0.7128279429998656, 0.7927545969996572, 0.9048325379999369, 1.0327879070000563, 1.144839266999952]",691.5923886370001,None,691.5920929705998,691.692227477,,,,,,,,,,,,s183_10272022 (redo),001,2022_Oct_27_1550,test_typingtask_norepeats,2020.2.10,60.141151643757,
heond,heond,,,,,0,103,103,103,,,,,,,,697.0919135139998,None,"['h', 'e', 'o', 'n', 'd']",1,"[0.7891918770001212, 0.9253719769999407, 1.0373045289998117, 1.213325070999872, 1.2931935739998153]",697.0919135139998,None,697.0920865945999,697.1917283379998,,,,,,,,,,,,s183_10272022 (redo),001,2022_Oct_27_1550,test_typingtask_norepeats,2020.2.10,60.141151643757,
would,would,,,,,0,104,104,104,,,,,,,,702.591986033,None,"['w', 'o', 'u', 'l', 'd']",1,"[0.9613841810000849, 1.0731981990002168, 1.2732448240003578, 1.4412325780003812, 1.5532217760001004]",702.591986033,None,702.5922895555999,702.6922742789998,,,,,,,,,,,,s183_10272022 (redo),001,2022_Oct_27_1550,test_typingtask_norepeats,2020.2.10,60.141151643757,
champ,champ,,,,,0,105,105,105,,,,,,,,708.09175056,None,"['c', 'h', 'a', 'm', 'p']",1,"[0.7733595059999061, 0.8773658740001338, 0.9813717199999701, 1.0933586440000909, 1.229419832000076]",708.09175056,None,708.0920231415997,708.1916762410001,,,,,,,,,,,,s183_10272022 (redo),001,2022_Oct_27_1550,test_typingtask_norepeats,2020.2.10,60.141151643757,
lucky,lucky,,,,,0,106,106,106,,,,,,,,713.5920991799999,None,"['l', 'u', 'c', 'k', 'y']",1,"[0.8251714359998914, 1.081049466999957, 1.2091656319998947, 1.3290625710001223, 1.529015927999808]",713.5920991799999,None,713.5921431355999,713.6921202990002,,,,,,,,,,,,s183_10272022 (redo),001,2022_Oct_27_1550,test_typingtask_norepeats,2020.2.10,60.141151643757,
faqir,faqir,,,,,0,107,107,107,,,,,,,,719.0920742160001,None,"['f', 'a', 'q', 'i', 'r']",1,"[0.8371106109998436, 0.9650888920000398, 1.205145770999934, 1.4611495019998983, 1.6130587419997937]",719.0920742160001,None,719.0923312016001,719.192207693,,,,,,,,,,,,s183_10272022 (redo),001,2022_Oct_27_1550,test_typingtask_norepeats,2020.2.10,60.141151643757,
there,there,,,,,0,108,108,108,,,,,,,,724.591878106,None,"['t', 'h', 'e', 'r', 'e']",1,"[0.7453496059997633, 0.857347562999621, 0.9533349529997395, 1.025218187000064, 1.2253296649996628]",724.591878106,None,724.5919739666,724.691907942,,,,,,,,,,,,s183_10272022 (redo),001,2022_Oct_27_1550,test_typingtask_norepeats,2020.2.10,60.141151643757,
heond,heond,,,,,0,109,109,109,,,,,,,,730.0921768970002,None,"['h', 'e', 'o', 'n', 'd']",1,"[0.7809513970000808, 0.932994588999918, 1.0450147470000957, 1.2209877740001502, 1.3170103170000402]",730.0921768970002,None,730.0922023836,730.192278217,,,,,,,,,,,,s183_10272022 (redo),001,2022_Oct_27_1550,test_typingtask_norepeats,2020.2.10,60.141151643757,
about,about,,,,,0,110,110,110,,,,,,,,735.5922288830002,None,"['a', 'b', 'o', 'u', 't']",1,"[0.6889910999998392, 0.8008739599999899, 0.968942590000097, 1.136889237000105, 1.208948140999837]",735.5922288830002,None,735.5920985276001,735.6923107349999,,,,,,,,,,,,s183_10272022 (redo),001,2022_Oct_27_1550,test_typingtask_norepeats,2020.2.10,60.141151643757,
vodka,vodka,,,,,0,111,111,111,,,,,,,,741.092033036,None,"['v', 'o', 'd', 'a', 'k']",0,"[0.9170567500000288, 1.1010736799998995, 1.3331739989998823, 1.525192572999913, 1.5810658939999485]",741.092033036,None,741.0923100795998,741.1919122859999,,,,,,,,,,,,s183_10272022 (redo),001,2022_Oct_27_1550,test_typingtask_norepeats,2020.2.10,60.141151643757,
edthe,edthe,,,,,0,112,112,112,,,,,,,,746.59220362,None,"['e', 'd', 't', 'h', 'e']",1,"[1.249005066999871, 1.3769272989998171, 1.5369635309998557, 1.6650010939997628, 1.7450040629996693]",746.59220362,None,746.5924126385997,746.6922584949998,,,,,,,,,,,,s183_10272022 (redo),001,2022_Oct_27_1550,test_typingtask_norepeats,2020.2.10,60.141151643757,
pykka,pykka,,,,,0,113,113,113,,,,,,,,752.092122221,None,"['p', 'y', 'k', 'k', 'a']",1,"[0.7090575000001991, 0.997088972000256, 1.205042190000313, 1.3330923010003062, 1.428995469000256]",752.092122221,None,752.0920090325998,752.1921220280001,,,,,,,,,,,,s183_10272022 (redo),001,2022_Oct_27_1550,test_typingtask_norepeats,2020.2.10,60.141151643757,
buddy,buddy,,,,,0,114,114,114,,,,,,,,757.5922985940001,None,"['b', 'u', 'd', 'd', 'y']",1,"[0.6888801780000904, 0.8328721859998041, 1.0249103229998582, 1.1928062859997226, 1.296912839000015]",757.5922985940001,None,757.5921340675999,757.6922634389998,,,,,,,,,,,,s183_10272022 (redo),001,2022_Oct_27_1550,test_typingtask_norepeats,2020.2.10,60.141151643757,
would,would,,,,,0,115,115,115,,,,,,,,763.0924157579998,None,"['w', 'o', 'u', 'l', 'd']",1,"[0.9487752029999683, 1.092692801999874, 1.2767092039998715, 1.4127789640001538, 1.500684832999923]",763.0924157579998,None,763.0923505546001,763.1922229759998,,,,,,,,,,,,s183_10272022 (redo),001,2022_Oct_27_1550,test_typingtask_norepeats,2020.2.10,60.141151643757,
kremp,kremp,,,,,0,116,116,116,,,,,,,,768.59226919,None,"['k', 'r', 'e', 'm', 'p']",1,"[0.8408373899997059, 0.9768195910000941, 1.0329298139999992, 1.1608697209999264, 1.2888344540001526]",768.59226919,None,768.5922917386,768.6924993480002,,,,,,,,,,,,s183_10272022 (redo),001,2022_Oct_27_1550,test_typingtask_norepeats,2020.2.10,60.141151643757,
edthe,edthe,,,,,0,117,117,117,,,,,,,,774.0921988509999,None,"['e', 'd', 't', 'h', 'e']",1,"[0.8208985820001544, 0.9809503729998141, 1.1569865840001512, 1.3089457659998516, 1.3809101970000484]",774.0921988509999,None,774.0924766316001,774.1921836649999,,,,,,,,,,,,s183_10272022 (redo),001,2022_Oct_27_1550,test_typingtask_norepeats,2020.2.10,60.141151643757,
would,would,,,,,0,118,118,118,,,,,,,,779.5921849480001,None,"['w', 'o', 'u', 'l', 'd']",1,"[0.9289142299999185, 1.4330322569999225, 1.6809261170001264, 1.8489945329997681, 1.928907445999812]",779.5921849480001,None,779.5922585726001,779.6923047330001,,,,,,,,,,,,s183_10272022 (redo),001,2022_Oct_27_1550,test_typingtask_norepeats,2020.2.10,60.141151643757,
druze,druze,,,,,0,119,119,119,,,,,,,,785.092081064,None,"['d', 'r', 'u', 'z', 'e']",1,"[0.949132140999609, 1.1251281299996663, 1.3571296069999335, 1.5491292009996869, 1.7491336250000131]",785.092081064,None,785.0924231846001,785.1921422199998,,,,,,,,,,,,s183_10272022 (redo),001,2022_Oct_27_1550,test_typingtask_norepeats,2020.2.10,60.141151643757,
there,there,,,,,,,,,0,0,0,0,,,,,,,,,,,,,790.592130042,None,831.632009081,None,"['t', 'h', 'e', 'r', 'e']",1,"[0.9212223230001655, 1.017128902999957, 1.137085285000012, 1.2172133429999121, 1.369089489000089]",831.632009081,None,831.6258633185997,831.725806814,s183_10272022 (redo),001,2022_Oct_27_1550,test_typingtask_norepeats,2020.2.10,60.141151643757,
kremp,kremp,,,,,,,,,0,1,1,1,,,,,,,,,,,,,,,837.142460431,None,"['k', 'r', 'e', 'm', 'p']",1,"[0.7947272530000191, 0.9467530269998861, 0.9867134179999084, 1.1067128390000107, 1.5547610990001886]",837.142460431,None,837.1425319675999,837.242290227,s183_10272022 (redo),001,2022_Oct_27_1550,test_typingtask_norepeats,2020.2.10,60.141151643757,
tithe,tithe,,,,,,,,,0,2,2,2,,,,,,,,,,,,,,,842.6423157509998,None,"['t', 'h', 'i', 'r', 'h', 'e']",0,"[0.6787793049998072, 0.7988596669997605, 1.6469006219999756, 1.8148063399999046, 1.9507891059997746, 2.1188953070000025]",842.6423157509998,None,842.6421975346001,842.7423453289998,s183_10272022 (redo),001,2022_Oct_27_1550,test_typingtask_norepeats,2020.2.10,60.141151643757,
cooed,cooed,,,,,,,,,0,3,3,3,,,,,,,,,,,,,,,848.1424722699999,None,"['c', 'o', 'o', 'e', 'd']",1,"[0.8026780860000144, 1.0107405579997248, 1.154695031999836, 1.3066347609997138, 1.4426402359999884]",848.1424722699999,None,848.1421492106,848.242308891,s183_10272022 (redo),001,2022_Oct_27_1550,test_typingtask_norepeats,2020.2.10,60.141151643757,
heond,heond,,,,,,,,,0,4,4,4,,,,,,,,,,,,,,,853.642293424,None,"['h', 'e', 'o', 'n', 'd']",1,"[0.7828702930000873, 0.9587933100001464, 1.4148783470000126, 1.57496197699993, 1.7988455459999386]",853.642293424,None,853.6423750675998,853.74266549,s183_10272022 (redo),001,2022_Oct_27_1550,test_typingtask_norepeats,2020.2.10,60.141151643757,
tithe,tithe,,,,,,,,,0,5,5,5,,,,,,,,,,,,,,,859.142416835,None,"['t', 'i', 't', 'h', 'e']",1,"[0.8587065490000896, 1.0506828770003267, 1.3146914280000601, 1.3867414370001825, 1.546803195999928]",859.142416835,None,859.1424796216,859.2421697310001,s183_10272022 (redo),001,2022_Oct_27_1550,test_typingtask_norepeats,2020.2.10,60.141151643757,
haole,haole,,,,,,,,,0,6,6,6,,,,,,,,,,,,,,,864.6424510669999,None,"['h', 'a', 'o', 'l', 'e']",1,"[0.806717289000062, 1.0467383499999414, 1.24672742499979, 1.3987194649998855, 1.4947734699999273]",864.6424510669999,None,864.6425867585998,864.7422332649999,s183_10272022 (redo),001,2022_Oct_27_1550,test_typingtask_norepeats,2020.2.10,60.141151643757,
think,think,,,,,,,,,0,7,7,7,,,,,,,,,,,,,,,870.1425830540002,None,"['t', 'h', 'i', 'n', 'k']",1,"[0.7146167770001739, 0.8346246480000445, 0.9305242320001526, 1.0826296700001876, 1.1866674630000489]",870.1425830540002,None,870.1424689096001,870.24230868,s183_10272022 (redo),001,2022_Oct_27_1550,test_typingtask_norepeats,2020.2.10,60.141151643757,
kremp,kremp,,,,,,,,,0,8,8,8,,,,,,,,,,,,,,,875.642473852,None,"['k', 'r', 'e', 'm', 'p', 'o']",0,"[0.8706003160000364, 1.0146902260003117, 1.0626848820002124, 1.150618974000281, 1.2467296710001392, 1.2547331590003523]",875.642473852,None,875.6419816686001,875.742010212,s183_10272022 (redo),001,2022_Oct_27_1550,test_typingtask_norepeats,2020.2.10,60.141151643757,
theme,theme,,,,,,,,,0,9,9,9,,,,,,,,,,,,,,,881.1420708199998,None,"['t', 'h', 'e', 'm', 'e']",1,"[0.659099390999927, 0.7951166429998011, 0.907094431999667, 1.0671057659997132, 1.2110813179997422]",881.1420708199998,None,881.1422220456001,881.242481535,s183_10272022 (redo),001,2022_Oct_27_1550,test_typingtask_norepeats,2020.2.10,60.141151643757,
druze,druze,,,,,,,,,0,10,10,10,,,,,,,,,,,,,,,886.6421389980001,None,"['d', 'r', 'u', 'z', 'e']",1,"[0.8550274160002118, 1.0389701200001582, 1.255026767000345, 1.4710446860003685, 1.6870356410004206]",886.6421389980001,None,886.6422289515998,886.7420377909998,s183_10272022 (redo),001,2022_Oct_27_1550,test_typingtask_norepeats,2020.2.10,60.141151643757,
faqir,faqir,,,,,,,,,0,11,11,11,,,,,,,,,,,,,,,892.142353919,None,"['f', 'a', 'q', 'i', 'r']",1,"[0.8667914840002595, 1.3387519070001872, 1.546861772000284, 1.7868176000001768, 1.914753271000336]",892.142353919,None,892.1424285915999,892.242307726,s183_10272022 (redo),001,2022_Oct_27_1550,test_typingtask_norepeats,2020.2.10,60.141151643757,
cooed,cooed,,,,,,,,,0,12,12,12,,,,,,,,,,,,,,,897.642318917,None,"['c', 'o', 'o', 'e', 'd']",1,"[0.7748991240000578, 1.0307796490001238, 1.1828775859999041, 1.318906855000023, 1.4627989400000843]",897.642318917,None,897.6424903636001,897.7424169609999,s183_10272022 (redo),001,2022_Oct_27_1550,test_typingtask_norepeats,2020.2.10,60.141151643757,
belly,belly,,,,,,,,,0,13,13,13,,,,,,,,,,,,,,,903.1423227270002,None,"['b', 'e', 'l', 'l', 'y']",1,"[0.7388157589998627, 0.8587779650001721, 1.0268069590001687, 1.1868918870000016, 1.2748991930002376]",903.1423227270002,None,903.1425222635997,903.2425205280001,s183_10272022 (redo),001,2022_Oct_27_1550,test_typingtask_norepeats,2020.2.10,60.141151643757,
theme,theme,,,,,,,,,0,14,14,14,,,,,,,,,,,,,,,908.6425177329997,None,"['t', 'h', 'e', 'm', 'e']",1,"[0.7187010960001317, 0.8387026870000227, 0.9986506059999556, 1.1666781369999626, 1.2706313960002262]",908.6425177329997,None,908.6425876446,908.7422838910002,s183_10272022 (redo),001,2022_Oct_27_1550,test_typingtask_norepeats,2020.2.10,60.141151643757,
lucky,lucky,,,,,,,,,0,15,15,15,,,,,,,,,,,,,,,914.1424793659999,None,"['l', 'u', 'c', 'k', 'y']",1,"[0.8826915049999116, 1.114631374000055, 1.266698690999874, 1.4347173179999118, 1.6026917559997855]",914.1424793659999,None,914.1424326556001,914.242375371,s183_10272022 (redo),001,2022_Oct_27_1550,test_typingtask_norepeats,2020.2.10,60.141151643757,
about,about,,,,,,,,,0,16,16,16,,,,,,,,,,,,,,,919.6425132640002,None,"['a', 'b', 'p', 'o', 'u', 't']",0,"[0.6946723599999132, 0.8067041599997538, 0.966695227999935, 1.0066969069998777, 1.1265840719997868, 1.2626200199997584]",919.6425132640002,None,919.6423768305998,919.7425118659999,s183_10272022 (redo),001,2022_Oct_27_1550,test_typingtask_norepeats,2020.2.10,60.141151643757,
haole,haole,,,,,,,,,0,17,17,17,,,,,,,,,,,,,,,925.1422808080001,None,"['h', 'a', 'o', 'l', 'e']",1,"[0.7628488569998808, 0.8989072529998339, 1.450818713999979, 1.586855665999792, 1.66691240199998]",925.1422808080001,None,925.1424315675998,925.2423366349999,s183_10272022 (redo),001,2022_Oct_27_1550,test_typingtask_norepeats,2020.2.10,60.141151643757,
heond,heond,,,,,,,,,0,18,18,18,,,,,,,,,,,,,,,930.6422647019999,None,"['h', 'e', 'o', 'n', 'd']",1,"[0.7588309049997406, 0.8949630029997024, 1.0069321529999797, 1.1989366210000298, 1.4708896309998636]",930.6422647019999,None,930.6422862456001,930.7419222789999,s183_10272022 (redo),001,2022_Oct_27_1550,test_typingtask_norepeats,2020.2.10,60.141151643757,
belly,belly,,,,,,,,,0,19,19,19,,,,,,,,,,,,,,,936.1424294089998,None,"['b', 'e', 'l', 'l', 'y']",1,"[0.6907817440001054, 0.8027844319999531, 0.9547002290000819, 1.098787865000304, 1.2027817220000543]",936.1424294089998,None,936.1424845276,936.2422842360002,s183_10272022 (redo),001,2022_Oct_27_1550,test_typingtask_norepeats,2020.2.10,60.141151643757,
lucky,lucky,,,,,,,,,0,20,20,20,,,,,,,,,,,,,,,941.6423982010001,None,"['l', 'u', 'c', 'k', 'y']",1,"[0.8307510989998264, 1.0706927900000665, 1.2307514119997904, 1.3507084900002155, 1.5188222329998098]",941.6423982010001,None,941.6425595395998,941.742433595,s183_10272022 (redo),001,2022_Oct_27_1550,test_typingtask_norepeats,2020.2.10,60.141151643757,
vodka,vodka,,,,,,,,,0,21,21,21,,,,,,,,,,,,,,,947.1426499519998,None,"['v', 'o', 'd', 'k', 'a']",1,"[1.0185258589999648, 1.2185599659997024, 1.4264627259999543, 1.6825242999998409, 1.8025841049998235]",947.1426499519998,None,947.1424532885998,947.2427039889999,s183_10272022 (redo),001,2022_Oct_27_1550,test_typingtask_norepeats,2020.2.10,60.141151643757,
edthe,edthe,,,,,,,,,0,22,22,22,,,,,,,,,,,,,,,952.6427871609999,None,"['e', 'd', 't', 'h', 'e']",1,"[0.9983766310001556, 1.1664421310001671, 1.2783345279999594, 1.4063980270002503, 1.4944967179999367]",952.6427871609999,None,952.6425139376,952.7426988249999,s183_10272022 (redo),001,2022_Oct_27_1550,test_typingtask_norepeats,2020.2.10,60.141151643757,
belly,belly,,,,,,,,,0,23,23,23,,,,,,,,,,,,,,,958.1424955349999,None,"['b', 'e', 'l', 'l', 'y']",1,"[0.6986866479996934, 0.8187099100000523, 0.9547318969998742, 1.0987169469999571, 1.1867178269999386]",958.1424955349999,None,958.1426774985997,958.2423412869998,s183_10272022 (redo),001,2022_Oct_27_1550,test_typingtask_norepeats,2020.2.10,60.141151643757,
heond,heond,,,,,,,,,0,24,24,24,,,,,,,,,,,,,,,963.6421024669999,None,"['h', 'e', 'o', 'n', 'd']",1,"[0.8310414289999244, 0.9509974799998417, 1.0631361060000017, 1.2150463989996751, 1.311067998999988]",963.6421024669999,None,963.6421833635999,963.7420492299998,s183_10272022 (redo),001,2022_Oct_27_1550,test_typingtask_norepeats,2020.2.10,60.141151643757,
about,about,,,,,,,,,0,25,25,25,,,,,,,,,,,,,,,969.1426184850002,None,"['a', 'b', 'o', 'u', 't']",1,"[0.7145679810000729, 0.7705994699999792, 0.9385496330000933, 1.098595639999985, 1.2585379189999912]",969.1426184850002,None,969.1425613955997,969.2424855009999,s183_10272022 (redo),001,2022_Oct_27_1550,test_typingtask_norepeats,2020.2.10,60.141151643757,
tithe,tithe,,,,,,,,,0,26,26,26,,,,,,,,,,,,,,,974.6425447400002,None,"['t', 'i', 't', 'h', 'e']",1,"[0.7026707559998613, 0.838682315999904, 0.9986307929998475, 1.1026681940002163, 1.214564289000009]",974.6425447400002,None,974.6425464645998,974.7426969369999,s183_10272022 (redo),001,2022_Oct_27_1550,test_typingtask_norepeats,2020.2.10,60.141151643757,
theme,theme,,,,,,,,,0,27,27,27,,,,,,,,,,,,,,,980.142445252,None,"['t', 'h', 'e', 'm', 'e']",1,"[0.6667388299997583, 0.7307671999997183, 0.9386678379996738, 0.9867612029997872, 1.1786585529998774]",980.142445252,None,980.1426865585998,980.2427134069999,s183_10272022 (redo),001,2022_Oct_27_1550,test_typingtask_norepeats,2020.2.10,60.141151643757,
cheer,cheer,,,,,,,,,0,28,28,28,,,,,,,,,,,,,,,985.6426119799999,None,"['c', 'h', 'e', 'e', 'r']",1,"[0.782593377000012, 0.942480784000054, 1.07060245699995, 1.2465296720001788, 1.4065147169999364]",985.6426119799999,None,985.6425666685999,985.7425740939998,s183_10272022 (redo),001,2022_Oct_27_1550,test_typingtask_norepeats,2020.2.10,60.141151643757,
think,think,,,,,,,,,0,29,29,29,,,,,,,,,,,,,,,991.1425601749997,None,"['t', 'h', 'i', 'n', 'k']",1,"[0.7466557620000458, 0.8505421380000371, 0.9546036219999223, 1.0986478290001287, 1.202611555999738]",991.1425601749997,None,991.1423866305998,991.2425133349998,s183_10272022 (redo),001,2022_Oct_27_1550,test_typingtask_norepeats,2020.2.10,60.141151643757,
heond,heond,,,,,,,,,0,30,30,30,,,,,,,,,,,,,,,996.6422490979999,None,"['h', 'e', 'o', 'n', 'd']",1,"[0.7669630469999902, 0.8869664290000401, 1.0149362150000343, 1.166879278000124, 1.3589232080003057]",996.6422490979999,None,996.6421394106,996.742229387,s183_10272022 (redo),001,2022_Oct_27_1550,test_typingtask_norepeats,2020.2.10,60.141151643757,
buddy,buddy,,,,,,,,,0,31,31,31,,,,,,,,,,,,,,,1002.1423795659998,None,"['b', 'u', 'd', 'd', 'y']",1,"[1.1068445810001322, 1.2588267989999622, 1.4347237179999865, 1.5868536940001832, 1.7147666410000966]",1002.1423795659998,None,1002.1427101916,1002.2425216329998,s183_10272022 (redo),001,2022_Oct_27_1550,test_typingtask_norepeats,2020.2.10,60.141151643757,
druze,druze,,,,,,,,,0,32,32,32,,,,,,,,,,,,,,,1007.642673202,None,"['d', 'r', 'u', 'z', 'e']",1,"[0.8705350149998594, 1.1185057589996177, 1.3905360409999048, 1.6225353689997064, 1.878542520999872]",1007.642673202,None,1007.6427401905997,1007.7424956999998,s183_10272022 (redo),001,2022_Oct_27_1550,test_typingtask_norepeats,2020.2.10,60.141151643757,
therm,therm,,,,,,,,,0,33,33,33,,,,,,,,,,,,,,,1013.142527169,None,"['t', 'h', 'e', 'r', 'm']",1,"[0.6505627249998724, 0.8186327250000431, 0.9305759029998626, 1.018642932000148, 1.114610748999894]",1013.142527169,None,1013.1426138575997,1013.2425481659998,s183_10272022 (redo),001,2022_Oct_27_1550,test_typingtask_norepeats,2020.2.10,60.141151643757,
tithe,tithe,,,,,,,,,0,34,34,34,,,,,,,,,,,,,,,1018.642326439,None,"['t', 'i', 't', 'h', 'e']",1,"[0.7427728170000591, 0.8468522250000206, 1.046878291000212, 1.1108445300001222, 1.2788590230002228]",1018.642326439,None,1018.6421868165997,1018.7423870100001,s183_10272022 (redo),001,2022_Oct_27_1550,test_typingtask_norepeats,2020.2.10,60.141151643757,
zibja,zibja,,,,,,,,,0,35,35,35,,,,,,,,,,,,,,,1024.1427606480001,None,"['z', 'i', 'b', 'j', 'a']",1,"[1.0824093579999499, 1.322418283999923, 1.5304233009997006, 1.658443762999923, 1.8343396309996933]",1024.1427606480001,None,1024.1426215476,1024.242718599,s183_10272022 (redo),001,2022_Oct_27_1550,test_typingtask_norepeats,2020.2.10,60.141151643757,
champ,champ,,,,,,,,,0,36,36,36,,,,,,,,,,,,,,,1029.642673978,None,"['c', 'h', 'a', 'm', 'p']",1,"[0.9185263790000135, 1.0465048299997761, 1.1584509360000084, 1.2624226329999146, 1.382520244999796]",1029.642673978,None,1029.6426680236,1029.742880547,s183_10272022 (redo),001,2022_Oct_27_1550,test_typingtask_norepeats,2020.2.10,60.141151643757,
cheer,cheer,,,,,,,,,0,37,37,37,,,,,,,,,,,,,,,1035.142593855,None,"['c', 'h', 'e', 'e', 'r']",1,"[0.7306189540004198, 0.8585905950003507, 1.0026187470002697, 1.1705840260001423, 1.3306092430002536]",1035.142593855,None,1035.1427669486002,1035.242819994,s183_10272022 (redo),001,2022_Oct_27_1550,test_typingtask_norepeats,2020.2.10,60.141151643757,
heond,heond,,,,,,,,,0,38,38,38,,,,,,,,,,,,,,,1040.6421388449999,None,"['h', 'e', 'o', 'n', 'd']",1,"[0.8550163310001153, 1.0070801290003146, 1.110989962000076, 1.247064500000306, 1.3349551830001474]",1040.6421388449999,None,1040.6421873516001,1040.7424281529998,s183_10272022 (redo),001,2022_Oct_27_1550,test_typingtask_norepeats,2020.2.10,60.141151643757,
champ,champ,,,,,,,,,0,39,39,39,,,,,,,,,,,,,,,1046.1422533669997,None,"['c', 'h', 'a', 'm', 'p']",1,"[0.6909686609997152, 0.8268608209996273, 0.9229716349996124, 1.0268350989999817, 1.1469564319995698]",1046.1422533669997,None,1046.1423600196,1046.242551492,s183_10272022 (redo),001,2022_Oct_27_1550,test_typingtask_norepeats,2020.2.10,60.141151643757,
belly,belly,,,,,,,,,0,40,40,40,,,,,,,,,,,,,,,1051.6422333679998,None,"['b', 'e', 'l', 'l', 'y']",1,"[0.6869955080001091, 0.7908714860000146, 0.9268862860003537, 1.0790024870002526, 1.1829260780000368]",1051.6422333679998,None,1051.6425135736,1051.7423610649998,s183_10272022 (redo),001,2022_Oct_27_1550,test_typingtask_norepeats,2020.2.10,60.141151643757,
zibja,zibja,,,,,,,,,0,41,41,41,,,,,,,,,,,,,,,1057.142667903,None,"['z', 'o', 'b', 'j', 'a']",0,"[0.8825123209999219, 1.3305198570001266, 1.570514792999802, 1.6985513589997936, 1.826452431999769]",1057.142667903,None,1057.1427786266,1057.2427035760002,s183_10272022 (redo),001,2022_Oct_27_1550,test_typingtask_norepeats,2020.2.10,60.141151643757,
edthe,edthe,,,,,,,,,0,42,42,42,,,,,,,,,,,,,,,1062.658910518,None,"['e', 'd', 't', 'h', 'e']",1,"[0.7823061950002739, 0.9583014730001196, 1.1663044450001507, 1.3101881190000313, 1.3181897520003076]",1062.658910518,None,1062.6587025016001,1062.7587350109998,s183_10272022 (redo),001,2022_Oct_27_1550,test_typingtask_norepeats,2020.2.10,60.141151643757,
would,would,,,,,,,,,0,43,43,43,,,,,,,,,,,,,,,1068.159081529,None,"['w', 'o', 'u', 'y', 'l', 'd']",0,"[0.6421469550000438, 0.8501068239997949, 1.0100105899996379, 1.018022777999704, 1.1701304680000248, 1.290142793999621]",1068.159081529,None,1068.1590336305999,1068.259395046,s183_10272022 (redo),001,2022_Oct_27_1550,test_typingtask_norepeats,2020.2.10,60.141151643757,
lucky,lucky,,,,,,,,,0,44,44,44,,,,,,,,,,,,,,,1073.6594735939998,None,"['l', 'u', 'c', 'k', 'y']",1,"[0.6697208509999655, 0.877716805000091, 0.9896649499996784, 1.109689526999773, 1.253654768999695]",1073.6594735939998,None,1073.6594424736,1073.7592714389998,s183_10272022 (redo),001,2022_Oct_27_1550,test_typingtask_norepeats,2020.2.10,60.141151643757,
pykka,pykka,,,,,,,,,0,45,45,45,,,,,,,,,,,,,,,1079.159593148,None,"['p', 'y', 'k', 'k', 'a']",1,"[0.9135905359999015, 1.2334992169999168, 1.497507929999756, 1.6335036169998602, 1.697569982999994]",1079.159593148,None,1079.1592275576,1079.259407689,s183_10272022 (redo),001,2022_Oct_27_1550,test_typingtask_norepeats,2020.2.10,60.141151643757,
buddy,buddy,,,,,,,,,0,46,46,46,,,,,,,,,,,,,,,1084.6591860610001,None,"['b', 'u', 'd', 'd', 'y']",1,"[0.709949732000041, 0.8459848630000124, 1.2860460570000214, 1.470032478000121, 1.6380540710001696]",1084.6591860610001,None,1084.6591690666,1084.759043385,s183_10272022 (redo),001,2022_Oct_27_1550,test_typingtask_norepeats,2020.2.10,60.141151643757,
kremp,kremp,,,,,,,,,0,47,47,47,,,,,,,,,,,,,,,1090.1592682689998,None,"['k', 'r', 'e', 'm', 'p']",1,"[0.8579468830002952, 0.9859179539998877, 1.033821739999894, 1.1219463160000487, 1.2019325470000695]",1090.1592682689998,None,1090.1595006326002,1090.259321773,s183_10272022 (redo),001,2022_Oct_27_1550,test_typingtask_norepeats,2020.2.10,60.141151643757,
buddy,buddy,,,,,,,,,0,48,48,48,,,,,,,,,,,,,,,1095.659229036,None,"['b', 'u', 'd', 'd', 'y']",1,"[0.8539579299999787, 0.9739796909998404, 1.1899446990000797, 1.341894603000128, 1.493869653999809]",1095.659229036,None,1095.6595752086,1095.7593808319998,s183_10272022 (redo),001,2022_Oct_27_1550,test_typingtask_norepeats,2020.2.10,60.141151643757,
vanru,vanru,,,,,,,,,0,49,49,49,,,,,,,,,,,,,,,1101.1589946979998,None,"['v', 'a', 'n', 'r', 'u']",1,"[0.8661744139999428, 1.0661775879998459, 1.2661746249996213, 1.5142178559999593, 1.6821547810000084]",1101.1589946979998,None,1101.1591463876002,1101.2590661939998,s183_10272022 (redo),001,2022_Oct_27_1550,test_typingtask_norepeats,2020.2.10,60.141151643757,
theme,theme,,,,,,,,,0,50,50,50,,,,,,,,,,,,,,,1106.659239172,None,"['t', 'h', 'e', 'm', 'e']",1,"[0.7259218979997968, 0.8539371709998704, 0.9739264780000667, 1.1099247229999492, 1.1978554389997953]",1106.659239172,None,1106.6595726885998,1106.7593941129999,s183_10272022 (redo),001,2022_Oct_27_1550,test_typingtask_norepeats,2020.2.10,60.141151643757,
champ,champ,,,,,,,,,0,51,51,51,,,,,,,,,,,,,,,1112.1592175609999,None,"['c', 'h', 'a', 'm', 'p']",1,"[0.7139202810003553, 0.8659562610000648, 0.9539594689999831, 1.0660032120003962, 1.1859570760002498]",1112.1592175609999,None,1112.1593384686003,1112.2594137699998,s183_10272022 (redo),001,2022_Oct_27_1550,test_typingtask_norepeats,2020.2.10,60.141151643757,
vanru,vanru,,,,,,,,,0,52,52,52,,,,,,,,,,,,,,,1117.65911926,None,"['v', 'a', 's', 'n', 'r', 'u']",0,"[0.6940576199999668, 0.8380075520003629, 0.8460535340000206, 0.9901100770002813, 1.238112210000054, 1.3739921210003558]",1117.65911926,None,1117.6589346286,1117.759142497,s183_10272022 (redo),001,2022_Oct_27_1550,test_typingtask_norepeats,2020.2.10,60.141151643757,
zibja,zibja,,,,,,,,,0,53,53,53,,,,,,,,,,,,,,,1123.159522548,None,"['z', 'i', 'b', 'j', 'a']",1,"[0.9776698340001531, 1.3536700979998386, 1.5216974810000465, 1.785689014000127, 1.9296745719998398]",1123.159522548,None,1123.1592148775999,1123.259458211,s183_10272022 (redo),001,2022_Oct_27_1550,test_typingtask_norepeats,2020.2.10,60.141151643757,
there,there,,,,,,,,,0,54,54,54,,,,,,,,,,,,,,,1128.659046153,None,"['t', 'h', 'e', 'r']",0,"[0.686167827999725, 0.8062386609999521, 0.894084152999767, 0.9740575430000717]",1128.659046153,None,1128.6591641556001,1128.7590467229998,s183_10272022 (redo),001,2022_Oct_27_1550,test_typingtask_norepeats,2020.2.10,60.141151643757,
buddy,buddy,,,,,,,,,0,55,55,55,,,,,,,,,,,,,,,1134.1593607619998,None,"['b', 'u', 'd', 'd', 'y']",1,"[0.7778277329998673, 0.9058104470000217, 1.0818542289998732, 1.2578651730000274, 1.4257556899997326]",1134.1593607619998,None,1134.1596003636,1134.259360214,s183_10272022 (redo),001,2022_Oct_27_1550,test_typingtask_norepeats,2020.2.10,60.141151643757,
cooed,cooed,,,,,,,,,0,56,56,56,,,,,,,,,,,,,,,1139.6594450040002,None,"['c', 'o', 'o', 'e', 'd']",1,"[0.9176533569998355, 1.2216432989998793, 1.3657224279995717, 1.5017387419998158, 1.6298020269996414]",1139.6594450040002,None,1139.6594247546,1139.7593521099998,s183_10272022 (redo),001,2022_Oct_27_1550,test_typingtask_norepeats,2020.2.10,60.141151643757,
puppy,puppy,,,,,,,,,0,57,57,57,,,,,,,,,,,,,,,1145.1593751609998,None,"['p', 'u', 'p', 'p', 'y']",1,"[0.7937972509998872, 1.1057159530000717, 1.3138100460000715, 1.4337189980001313, 1.5618009820000225]",1145.1593751609998,None,1145.1591798365998,1145.2591915799999,s183_10272022 (redo),001,2022_Oct_27_1550,test_typingtask_norepeats,2020.2.10,60.141151643757,
cooed,cooed,,,,,,,,,0,58,58,58,,,,,,,,,,,,,,,1150.659627988,None,"['c', 'o', 'o', 'e', 'd']",1,"[0.8615574139998898, 1.0296120039997732, 1.1815767140001299, 1.3174583330001042, 1.4615527760001896]",1150.659627988,None,1150.6593500226,1150.759349259,s183_10272022 (redo),001,2022_Oct_27_1550,test_typingtask_norepeats,2020.2.10,60.141151643757,
druze,druze,,,,,,,,,0,59,59,59,,,,,,,,,,,,,,,1156.1596875209998,None,"['d', 'r', 't', 'u', 'z', 'e']",0,"[0.8094213579997813, 0.9934187469998506, 1.0014147929996398, 1.2495234049997634, 1.5614965169997959, 1.8334159109999746]",1156.1596875209998,None,1156.1596009606,1156.259582739,s183_10272022 (redo),001,2022_Oct_27_1550,test_typingtask_norepeats,2020.2.10,60.141151643757,
about,about,,,,,,,,,0,60,60,60,,,,,,,,,,,,,,,1161.659414929,None,"['a', 'b', 'o', 'u', 't']",1,"[0.6537754190003398, 0.7976944010001716, 0.9497128840002915, 1.101758067999981, 1.1976919329999873]",1161.659414929,None,1161.6595627056,1161.759304999,s183_10272022 (redo),001,2022_Oct_27_1550,test_typingtask_norepeats,2020.2.10,60.141151643757,
there,there,,,,,,,,,0,61,61,61,,,,,,,,,,,,,,,1167.159415575,None,"['t', 'h', 'e', 'r', 'e']",1,"[0.8177024569999958, 0.9297666050001681, 1.0578107649998856, 1.185755741000321, 1.3217561159999605]",1167.159415575,None,1167.1595744246001,1167.259416814,s183_10272022 (redo),001,2022_Oct_27_1550,test_typingtask_norepeats,2020.2.10,60.141151643757,
vanru,vanru,,,,,,,,,0,62,62,62,,,,,,,,,,,,,,,1172.659347015,None,"['v', 'a', 'n', 'r', 'u']",1,"[0.757875002000219, 0.9737498419999611, 1.1498127989998466, 1.4057543590001842, 1.5498591189998479]",1172.659347015,None,1172.6595129796,1172.7596014619999,s183_10272022 (redo),001,2022_Oct_27_1550,test_typingtask_norepeats,2020.2.10,60.141151643757,
about,about,,,,,,,,,0,63,63,63,,,,,,,,,,,,,,,1178.1593295459998,None,"['a', 'b', 'o', 'u', 't']",1,"[0.617780319999838, 0.7058923939998749, 0.849879675000011, 1.0097852179997062, 1.113869840999996]",1178.1593295459998,None,1178.1596228136,1178.2594657250002,s183_10272022 (redo),001,2022_Oct_27_1550,test_typingtask_norepeats,2020.2.10,60.141151643757,
cheer,cheer,,,,,,,,,0,64,64,64,,,,,,,,,,,,,,,1183.6595834999998,None,"['c', 'h', 'e', 'e', 'r']",1,"[0.7415474019999237, 0.9256459539997195, 1.0776645549999557, 1.2455663629998526, 1.413634267999896]",1183.6595834999998,None,1183.6595660066,1183.759448929,s183_10272022 (redo),001,2022_Oct_27_1550,test_typingtask_norepeats,2020.2.10,60.141151643757,
pykka,pykka,,,,,,,,,0,65,65,65,,,,,,,,,,,,,,,1189.1596348019998,None,"['p', 'y', 'k', 'k', 'a']",1,"[0.8094654259998606, 1.0974624320001567, 1.3775444200000493, 1.5055310809998446, 1.617458417999842]",1189.1596348019998,None,1189.1595324916002,1189.259546541,s183_10272022 (redo),001,2022_Oct_27_1550,test_typingtask_norepeats,2020.2.10,60.141151643757,
vodka,vodka,,,,,,,,,0,66,66,66,,,,,,,,,,,,,,,1194.6593927979998,None,"['v', 'o', 'd', 'a', 'k']",0,"[1.085825616999955, 1.2778466349996052, 1.62983825099991, 1.7817811390000315, 1.9578308129998732]",1194.6593927979998,None,1194.6593609236002,1194.759594783,s183_10272022 (redo),001,2022_Oct_27_1550,test_typingtask_norepeats,2020.2.10,60.141151643757,
druze,druze,,,,,,,,,0,67,67,67,,,,,,,,,,,,,,,1200.1593113969998,None,"['d', 'r', 'u', 'z', 'e']",1,"[0.8019016830003238, 0.9859059410000555, 1.2578396910002994, 1.4018976639999892, 1.6337875980002536]",1200.1593113969998,None,1200.1595179376,1200.259362358,s183_10272022 (redo),001,2022_Oct_27_1550,test_typingtask_norepeats,2020.2.10,60.141151643757,
belly,belly,,,,,,,,,0,68,68,68,,,,,,,,,,,,,,,1205.659602363,None,"['b', 'e', 'l', 'l', 'y']",1,"[0.7735619180002686, 0.9255760810001448, 1.0535696750002899, 1.2056095719999576, 1.3254940480001096]",1205.659602363,None,1205.6595911805998,1205.7593125869998,s183_10272022 (redo),001,2022_Oct_27_1550,test_typingtask_norepeats,2020.2.10,60.141151643757,
edthe,edthe,,,,,,,,,0,69,69,69,,,,,,,,,,,,,,,1211.159526935,None,"['e', 'd', 't', 'h', 'e']",1,"[0.7936032320003505, 0.9456000140003198, 1.089700424000057, 1.2175635280000279, 1.2656756810001752]",1211.159526935,None,1211.1597007435998,1211.2593312149997,s183_10272022 (redo),001,2022_Oct_27_1550,test_typingtask_norepeats,2020.2.10,60.141151643757,
cheer,cheer,,,,,,,,,0,70,70,70,,,,,,,,,,,,,,,1216.659399004,None,"['c', 'h', 'e', 'e', 'r']",1,"[0.7257436949998919, 0.8937029160001657, 1.0857909299998028, 1.2457105039998169, 1.41383196400011]",1216.659399004,None,1216.6591866096,1216.7592399740001,s183_10272022 (redo),001,2022_Oct_27_1550,test_typingtask_norepeats,2020.2.10,60.141151643757,
vanru,vanru,,,,,,,,,0,71,71,71,,,,,,,,,,,,,,,1222.1597367499999,None,"['v', 'a', 'n', 'r', 'u']",1,"[0.8574882240000079, 1.0333618260001458, 1.3933903269999064, 1.7054862449999746, 1.8814742569998089]",1222.1597367499999,None,1222.1596107356,1222.2599125840002,s183_10272022 (redo),001,2022_Oct_27_1550,test_typingtask_norepeats,2020.2.10,60.141151643757,
would,would,,,,,,,,,0,72,72,72,,,,,,,,,,,,,,,1227.659565595,None,"['w', 'o', 'u', 'l', 'd']",1,"[0.7895593990001544, 0.9015323590001572, 1.0855872570000429, 1.2536471880002864, 1.357646589000069]",1227.659565595,None,1227.6595641416002,1227.7595598409998,s183_10272022 (redo),001,2022_Oct_27_1550,test_typingtask_norepeats,2020.2.10,60.141151643757,
about,about,,,,,,,,,0,73,73,73,,,,,,,,,,,,,,,1233.159539097,None,"['a', 'b', 'o', 'u', 't']",1,"[0.6576803369998743, 0.7536304559998825, 0.921644649999962, 1.0656115299998419, 1.1777009980000912]",1233.159539097,None,1233.1598607945998,1233.259352266,s183_10272022 (redo),001,2022_Oct_27_1550,test_typingtask_norepeats,2020.2.10,60.141151643757,
lucky,lucky,,,,,,,,,0,74,74,74,,,,,,,,,,,,,,,1238.6594241530001,None,"['l', 'u', 'c', 'k', 'y']",1,"[0.7336784380004246, 0.9817161959999794, 1.1577988840003854, 1.3017798240002776, 1.461762975000056]",1238.6594241530001,None,1238.6597013146002,1238.7594942689998,s183_10272022 (redo),001,2022_Oct_27_1550,test_typingtask_norepeats,2020.2.10,60.141151643757,
edthe,edthe,,,,,,,,,0,75,75,75,,,,,,,,,,,,,,,1244.159182376,None,"['e', 'd', 't', 'h', 'e']",1,"[0.7780348119999871, 0.9300060220002706, 1.0820308470001692, 1.2420453859999725, 1.2499932929999886]",1244.159182376,None,1244.1592964486,1244.259328532,s183_10272022 (redo),001,2022_Oct_27_1550,test_typingtask_norepeats,2020.2.10,60.141151643757,
champ,champ,,,,,,,,,0,76,76,76,,,,,,,,,,,,,,,1249.659526816,None,"['c', 'h', 'a', 'm', 'p']",1,"[0.6777220339999985, 0.8215737750001608, 0.9095802260003438, 1.0296926190003433, 1.1496482110001125]",1249.659526816,None,1249.6595791006002,1249.7595659939998,s183_10272022 (redo),001,2022_Oct_27_1550,test_typingtask_norepeats,2020.2.10,60.141151643757,
haole,haole,,,,,,,,,0,77,77,77,,,,,,,,,,,,,,,1255.159534339,None,"['h', 'a', 'o', 'l', 'e']",1,"[0.6896370989998104, 0.8175681799998529, 0.9537075049997839, 1.0975977729999613, 1.1935943929997848]",1255.159534339,None,1255.1597536916001,1255.2595159520001,s183_10272022 (redo),001,2022_Oct_27_1550,test_typingtask_norepeats,2020.2.10,60.141151643757,
tithe,tithe,,,,,,,,,0,78,78,78,,,,,,,,,,,,,,,1260.659553864,None,"['t', 'i', 't', 'h', 'e']",1,"[0.7656505699997069, 0.9016533320000235, 1.0856581650000408, 1.2296681190000527, 1.3256342549998408]",1260.659553864,None,1260.6594177866,1260.7595759619999,s183_10272022 (redo),001,2022_Oct_27_1550,test_typingtask_norepeats,2020.2.10,60.141151643757,
therm,therm,,,,,,,,,0,79,79,79,,,,,,,,,,,,,,,1266.159600423,None,"['t', 'h', 'e', 'r', 'm']",1,"[0.6975097539998387, 0.8015730219999568, 0.9135515039997699, 1.0335723569996844, 1.1056162939999012]",1266.159600423,None,1266.1594164685998,1266.259557492,s183_10272022 (redo),001,2022_Oct_27_1550,test_typingtask_norepeats,2020.2.10,60.141151643757,
champ,champ,,,,,,,,,0,80,80,80,,,,,,,,,,,,,,,1271.6594041419999,None,"['c', 'h', 'a', 'm', 'p']",1,"[0.7417222860003676, 0.8858103790003042, 0.9418130779999956, 1.0777628290002212, 1.1818213430001379]",1271.6594041419999,None,1271.6599810215998,1271.759488368,s183_10272022 (redo),001,2022_Oct_27_1550,test_typingtask_norepeats,2020.2.10,60.141151643757,
haole,haole,,,,,,,,,0,81,81,81,,,,,,,,,,,,,,,1277.159514177,None,"['h', 'a', 'o', 'l', 'e']",1,"[0.8095864719998644, 0.9936475190002056, 1.329643267999927, 1.4897087700001066, 1.6096007129999634]",1277.159514177,None,1277.1598636016001,1277.259565244,s183_10272022 (redo),001,2022_Oct_27_1550,test_typingtask_norepeats,2020.2.10,60.141151643757,
cooed,cooed,,,,,,,,,0,82,82,82,,,,,,,,,,,,,,,1282.6593796779998,None,"['c', 'o', 'o', 'e', 'd']",1,"[0.7977420419997543, 0.9977287469996554, 1.1418427849998807, 1.285819163999804, 1.4219597729997986]",1282.6593796779998,None,1282.6595633956,1282.7595296700001,s183_10272022 (redo),001,2022_Oct_27_1550,test_typingtask_norepeats,2020.2.10,60.141151643757,
think,think,,,,,,,,,0,83,83,83,,,,,,,,,,,,,,,1288.159441455,None,"['t', 'h', 'i', 'n', 'k']",1,"[0.6897341610001604, 0.7697701940001025, 0.8657655540000633, 1.0016538209997634, 1.0977099649999218]",1288.159441455,None,1288.1593597016,1288.259421615,s183_10272022 (redo),001,2022_Oct_27_1550,test_typingtask_norepeats,2020.2.10,60.141151643757,
vodka,vodka,,,,,,,,,0,84,84,84,,,,,,,,,,,,,,,1293.659761685,None,"['v', 'o', 'd', 'k', 'a']",1,"[0.7734600859998864, 0.9253761959998883, 1.1654529239999647, 1.3573417350003183, 1.4933931360001225]",1293.659761685,None,1293.6595515616,1293.759637878,s183_10272022 (redo),001,2022_Oct_27_1550,test_typingtask_norepeats,2020.2.10,60.141151643757,
faqir,faqir,,,,,,,,,0,85,85,85,,,,,,,,,,,,,,,1299.159328911,None,"['f', 'a', 'q', 'i', 'r']",1,"[1.17789833300003, 1.3298792010000398, 1.4977820069998415, 1.6978325350000887, 1.8658443270001044]",1299.159328911,None,1299.1594839986,1299.259494635,s183_10272022 (redo),001,2022_Oct_27_1550,test_typingtask_norepeats,2020.2.10,60.141151643757,
therm,therm,,,,,,,,,0,86,86,86,,,,,,,,,,,,,,,1304.6596544959998,None,"['t', 'h', 'e', 'r', 'm']",1,"[0.6935115480000604, 0.8056109670001206, 0.877499016999991, 0.9974736930003019, 1.0855737820002105]",1304.6596544959998,None,1304.6596417246,1304.759574741,s183_10272022 (redo),001,2022_Oct_27_1550,test_typingtask_norepeats,2020.2.10,60.141151643757,
faqir,faqir,,,,,,,,,0,87,87,87,,,,,,,,,,,,,,,1310.1596694649998,None,"['f', 'a', 'q', 'i', 'r']",1,"[0.9295236630000545, 1.065627152000161, 1.2495396499998606, 1.473557208999864, 1.609440586999881]",1310.1596694649998,None,1310.1597284066002,1310.2595843489999,s183_10272022 (redo),001,2022_Oct_27_1550,test_typingtask_norepeats,2020.2.10,60.141151643757,
druze,druze,,,,,,,,,0,88,88,88,,,,,,,,,,,,,,,1315.6597220119997,None,"['d', 'r', 'u', 'z', 'e']",1,"[0.8374935709998681, 1.0134888960001263, 1.2453863949999686, 1.437381034000282, 1.6454584709999835]",1315.6597220119997,None,1315.6597693426002,1315.759750799,s183_10272022 (redo),001,2022_Oct_27_1550,test_typingtask_norepeats,2020.2.10,60.141151643757,
zibja,zibja,,,,,,,,,0,89,89,89,,,,,,,,,,,,,,,1321.1595670880001,None,"['z', 'i', 'b', 'j', 'a']",1,"[0.9856519670001944, 1.2896477660001437, 1.529542198999934, 1.6336257610000757, 1.7935251560002143]",1321.1595670880001,None,1321.1597531336001,1321.2598041659999,s183_10272022 (redo),001,2022_Oct_27_1550,test_typingtask_norepeats,2020.2.10,60.141151643757,
theme,theme,,,,,,,,,0,90,90,90,,,,,,,,,,,,,,,1326.6597532209998,None,"['t', 'h', 'e', 'm', 'e']",1,"[0.7093454609998844, 0.8214708519999476, 0.965448104999723, 1.093339248999655, 1.22146047599972]",1326.6597532209998,None,1326.6597787546002,1326.7597543749998,s183_10272022 (redo),001,2022_Oct_27_1550,test_typingtask_norepeats,2020.2.10,60.141151643757,
zibja,zibja,,,,,,,,,0,91,91,91,,,,,,,,,,,,,,,1332.1595183499999,None,"['z', 'i', 'b', 'j', 'a']",1,"[0.9376555039998493, 1.2577058780002517, 1.4015764480000144, 1.529733687999851, 1.673581237000235]",1332.1595183499999,None,1332.1593118296,1332.2593515929998,s183_10272022 (redo),001,2022_Oct_27_1550,test_typingtask_norepeats,2020.2.10,60.141151643757,
think,think,,,,,,,,,0,92,92,92,,,,,,,,,,,,,,,1337.6594062559998,None,"['t', 'h', 'i', 'n', 'k']",1,"[0.7176977399999487, 0.8377638570000272, 0.9097020369999882, 1.0698952759998974, 1.1736958030001006]",1337.6594062559998,None,1337.6593420246,1337.7595227399997,s183_10272022 (redo),001,2022_Oct_27_1550,test_typingtask_norepeats,2020.2.10,60.141151643757,
would,would,,,,,,,,,0,93,93,93,,,,,,,,,,,,,,,1343.1595778639999,None,"['w', 'o', 'u', 'l', 'd']",1,"[0.9455573570003253, 1.057641779000278, 1.2896446110003126, 1.4576479490001475, 1.5776751010002954]",1343.1595778639999,None,1343.1596252526,1343.259808363,s183_10272022 (redo),001,2022_Oct_27_1550,test_typingtask_norepeats,2020.2.10,60.141151643757,
kremp,kremp,,,,,,,,,0,94,94,94,,,,,,,,,,,,,,,1348.659337297,None,"['k', 'r', 'e', 'm', 'p']",1,"[0.9018654960000276, 1.0698675329999787, 1.101830794000307, 1.197767173000102, 1.3097692920000554]",1348.659337297,None,1348.6593962766,1348.7592014410002,s183_10272022 (redo),001,2022_Oct_27_1550,test_typingtask_norepeats,2020.2.10,60.141151643757,
would,would,,,,,,,,,0,95,95,95,,,,,,,,,,,,,,,1354.15963861,None,"['w', 'o', 'u', 'l', 'd']",1,"[0.7775289709998106, 0.9295635749999747, 1.161548923999817, 1.329589840999688, 1.4735733090001304]",1354.15963861,None,1354.1598726296002,1354.25953127,s183_10272022 (redo),001,2022_Oct_27_1550,test_typingtask_norepeats,2020.2.10,60.141151643757,
faqir,faqir,,,,,,,,,0,96,96,96,,,,,,,,,,,,,,,1359.6596477150001,None,"['f', 'a', 'q', 'i', 'r']",1,"[0.7655394839998735, 0.9415848710000319, 1.173582715000066, 1.3575225049999062, 1.5334528690000298]",1359.6596477150001,None,1359.6599461216001,1359.759791594,s183_10272022 (redo),001,2022_Oct_27_1550,test_typingtask_norepeats,2020.2.10,60.141151643757,
cheer,cheer,,,,,,,,,0,97,97,97,,,,,,,,,,,,,,,1365.159714602,None,"['c', 'h', 'e', 'e', 'r']",1,"[0.7134936909997123, 0.8814595059998283, 1.0494986329999847, 1.2333836509997127, 1.3854958590000024]",1365.159714602,None,1365.1595288675999,1365.2603493309998,s183_10272022 (redo),001,2022_Oct_27_1550,test_typingtask_norepeats,2020.2.10,60.141151643757,
puppy,puppy,,,,,,,,,0,98,98,98,,,,,,,,,,,,,,,1370.6599903269998,None,"['p', 'u', 'p', 'p', 'y']",1,"[0.7492190490002031, 1.0212515419998454, 1.221239575999789, 1.3732265660000849, 1.5332059649999792]",1370.6599903269998,None,1370.6598038585998,1370.7597289619998,s183_10272022 (redo),001,2022_Oct_27_1550,test_typingtask_norepeats,2020.2.10,60.141151643757,
therm,therm,,,,,,,,,0,99,99,99,,,,,,,,,,,,,,,1376.159891678,None,"['t', 'h', 'e', 'r', 'm']",1,"[0.7053349699999671, 0.8012201719998302, 0.8892726399999447, 1.0012391860000207, 1.0573219299999437]",1376.159891678,None,1376.1599358996,1376.2595350860001,s183_10272022 (redo),001,2022_Oct_27_1550,test_typingtask_norepeats,2020.2.10,60.141151643757,
pykka,pykka,,,,,,,,,0,100,100,100,,,,,,,,,,,,,,,1381.659370587,None,"['p', 'y', 'k', 'k', 'a']",1,"[0.7418567800000346, 0.9897306599996227, 1.181736432999969, 1.3338310119997914, 1.4457975199998145]",1381.659370587,None,1381.6595697986,1381.759462387,s183_10272022 (redo),001,2022_Oct_27_1550,test_typingtask_norepeats,2020.2.10,60.141151643757,
there,there,,,,,,,,,0,101,101,101,,,,,,,,,,,,,,,1387.1597682880001,None,"['t', 'h', 'e', 'r']",0,"[0.72139370900004, 0.8334228250000706, 0.9453867050001463, 1.0573182550001547]",1387.1597682880001,None,1387.1597561675999,1387.2597972049998,s183_10272022 (redo),001,2022_Oct_27_1550,test_typingtask_norepeats,2020.2.10,60.141151643757,
vanru,vanru,,,,,,,,,0,102,102,102,,,,,,,,,,,,,,,1392.6597991869999,None,"['v', 'a', 'n', 'r', 'u']",1,"[0.8854149539997707, 1.0214237870000034, 1.1974143480001658, 1.4453688250000596, 1.6214163529998586]",1392.6597991869999,None,1392.6599346186,1392.759683891,s183_10272022 (redo),001,2022_Oct_27_1550,test_typingtask_norepeats,2020.2.10,60.141151643757,
kremp,kremp,,,,,,,,,0,103,103,103,,,,,,,,,,,,,,,1398.1593568879998,None,"['k', 'r', 'e', 'o', 'p']",0,"[0.8498489240000708, 0.9378175409997311, 1.0097502769999664, 1.0738697440001488, 1.185796196999945]",1398.1593568879998,None,1398.1596618006001,1398.259390704,s183_10272022 (redo),001,2022_Oct_27_1550,test_typingtask_norepeats,2020.2.10,60.141151643757,
puppy,puppy,,,,,,,,,0,104,104,104,,,,,,,,,,,,,,,1403.6597255309998,None,"['p', 'u', 'p', 'p', 'y']",1,"[0.7014011490000485, 1.4374519339999097, 1.629422986999998, 1.757393157000024, 1.8694874469997558]",1403.6597255309998,None,1403.6599351646,1403.759998601,s183_10272022 (redo),001,2022_Oct_27_1550,test_typingtask_norepeats,2020.2.10,60.141151643757,
think,think,,,,,,,,,0,105,105,105,,,,,,,,,,,,,,,1409.1596608979999,None,"['t', 'h', 'i', 'n', 'k']",1,"[0.6814510560002418, 0.785494416000347, 0.8655085410000538, 1.0174231720002354, 1.1214987650000694]",1409.1596608979999,None,1409.1593605116,1409.2595040410001,s183_10272022 (redo),001,2022_Oct_27_1550,test_typingtask_norepeats,2020.2.10,60.141151643757,
haole,haole,,,,,,,,,0,106,106,106,,,,,,,,,,,,,,,1414.659693956,None,"['h', 'a', 'o', 'l', 'e']",1,"[0.8374825700002475, 0.9415265130000989, 1.1415281350000441, 1.2855223540000225, 1.3894124090002151]",1414.659693956,None,1414.6597588516001,1414.7599317089998,s183_10272022 (redo),001,2022_Oct_27_1550,test_typingtask_norepeats,2020.2.10,60.141151643757,
vodka,vodka,,,,,,,,,0,107,107,107,,,,,,,,,,,,,,,1420.1596761729998,None,"['v', 'o', 'd', 'k', 'a']",1,"[0.8254586829998516, 1.009420475999832, 1.409434186999988, 1.609430656999848, 1.7535334649996912]",1420.1596761729998,None,1420.1600489696002,1420.259672703,s183_10272022 (redo),001,2022_Oct_27_1550,test_typingtask_norepeats,2020.2.10,60.141151643757,
would,would,,,,,,,,,0,108,108,108,,,,,,,,,,,,,,,1425.659770443,None,"['w', 'o', 'u', 'l', 'd']",1,"[0.7573948799999926, 0.8933209510000779, 1.1013950339997791, 1.245373453999946, 1.3414246839997759]",1425.659770443,None,1425.6601708366002,1425.759706549,s183_10272022 (redo),001,2022_Oct_27_1550,test_typingtask_norepeats,2020.2.10,60.141151643757,
pykka,pykka,,,,,,,,,0,109,109,109,,,,,,,,,,,,,,,1431.1599507269998,None,"['p', 'y', 'k', 'k', 'a']",1,"[0.8252175809998334, 1.1212345809999533, 1.3212594289998378, 1.4652287019998766, 1.5612730050002028]",1431.1599507269998,None,1431.1599709236002,1431.2598347160001,s183_10272022 (redo),001,2022_Oct_27_1550,test_typingtask_norepeats,2020.2.10,60.141151643757,
puppy,puppy,,,,,,,,,0,110,110,110,,,,,,,,,,,,,,,1436.6598869579998,None,"['p', 'u', 'p', 'p', 'y']",1,"[0.7413425499998993, 1.0133218689998102, 1.1973305729998174, 1.3413236759997744, 1.4852757909998218]",1436.6598869579998,None,1436.6597491726002,1436.7600141789999,s183_10272022 (redo),001,2022_Oct_27_1550,test_typingtask_norepeats,2020.2.10,60.141151643757,
pykka,pykka,,,,,,,,,0,111,111,111,,,,,,,,,,,,,,,1442.159720102,None,"['p', 'y', 'k', 'k', 'a']",1,"[0.6733987849997902, 0.9615138419999312, 1.16949303399997, 1.3054489779997311, 1.4093904599999405]",1442.159720102,None,1442.1600822736,1442.2599210909998,s183_10272022 (redo),001,2022_Oct_27_1550,test_typingtask_norepeats,2020.2.10,60.141151643757,
therm,therm,,,,,,,,,0,112,112,112,,,,,,,,,,,,,,,1447.6598536689999,None,"['t', 'h', 'e', 'r', 'm']",1,"[0.7172280519998822, 0.8373497040001894, 0.9172251250001864, 0.9812334869998267, 1.069349382999917]",1447.6598536689999,None,1447.6599237796,1447.7596862589999,s183_10272022 (redo),001,2022_Oct_27_1550,test_typingtask_norepeats,2020.2.10,60.141151643757,
puppy,puppy,,,,,,,,,0,113,113,113,,,,,,,,,,,,,,,1453.159888961,None,"['p', 'u', 'p', 'p', 'y']",1,"[0.6812695559997337, 0.953326713000024, 1.1533280009998634, 1.2892299149998507, 1.4092011439997805]",1453.159888961,None,1453.1597667416,1453.2598478209998,s183_10272022 (redo),001,2022_Oct_27_1550,test_typingtask_norepeats,2020.2.10,60.141151643757,
vodka,vodka,,,,,,,,,0,114,114,114,,,,,,,,,,,,,,,1458.65983681,None,"['v', 'o', 'd', 'k', 'a']",1,"[0.7733723440001086, 0.9413096600001154, 1.133334700999967, 1.333372948000033, 1.461389761999726]",1458.65983681,None,1458.6598206136,1458.759911098,s183_10272022 (redo),001,2022_Oct_27_1550,test_typingtask_norepeats,2020.2.10,60.141151643757,
faqir,faqir,,,,,,,,,0,115,115,115,,,,,,,,,,,,,,,1464.159457058,None,"['f', 'a', 'q', 'i', 'r']",1,"[0.817647818000296, 1.04975342500029, 1.1536740460001056, 1.4337289390000478, 1.5857512760003374]",1464.159457058,None,1464.1596088505999,1464.2595572330001,s183_10272022 (redo),001,2022_Oct_27_1550,test_typingtask_norepeats,2020.2.10,60.141151643757,
lucky,lucky,,,,,,,,,0,116,116,116,,,,,,,,,,,,,,,1469.6597217839999,None,"['l', 'u', 'c', 'k', 'y']",1,"[0.6854869989997496, 0.9334521969999514, 1.0373805189997256, 1.15749513999981, 1.3173798499997247]",1469.6597217839999,None,1469.6599539755998,1469.7597314260001,s183_10272022 (redo),001,2022_Oct_27_1550,test_typingtask_norepeats,2020.2.10,60.141151643757,
buddy,buddy,,,,,,,,,0,117,117,117,,,,,,,,,,,,,,,1475.1599543940001,None,"['b', 'u', 'd', 'd', 'y']",1,"[0.7211520590003602, 0.8811559810001199, 1.097230460999981, 1.2732649490003496, 1.4251490070000727]",1475.1599543940001,None,1475.1599809166,1475.2599339990002,s183_10272022 (redo),001,2022_Oct_27_1550,test_typingtask_norepeats,2020.2.10,60.141151643757,
there,there,,,,,,,,,0,118,118,118,,,,,,,,,,,,,,,1480.6599376909999,None,"['t', 'h', 'e', 'r', 'e']",1,"[0.6692345830001614, 0.7971992739999223, 0.8851577149998775, 1.0291735210003026, 2.189247325999986]",1480.6599376909999,None,1480.6597541065998,1480.7599976349998,s183_10272022 (redo),001,2022_Oct_27_1550,test_typingtask_norepeats,2020.2.10,60.141151643757,
edthe,edthe,,,,,,,,,0,119,119,119,,,,,,,,,,,,,,,1486.159757472,None,"['e', 'd', 't', 'h', 'e']",1,"[0.8093468609999945, 1.0015077140001267, 1.1453725370001848, 1.2654106190002494, 1.321466207999947]",1486.159757472,None,1486.1599475026,1486.2601846950001,s183_10272022 (redo),001,2022_Oct_27_1550,test_typingtask_norepeats,2020.2.10,60.141151643757,
