string,corrAns,practice_trials.thisRepN,practice_trials.thisTrialN,practice_trials.thisN,practice_trials.thisIndex,trials_1.thisRepN,trials_1.thisTrialN,trials_1.thisN,trials_1.thisIndex,trials_2.thisRepN,trials_2.thisTrialN,trials_2.thisN,trials_2.thisIndex,key_resp_0.keys,key_resp_0.corr,key_resp_0.rt,text_1.started,text_1.stopped,key_resp_1.keys,key_resp_1.corr,key_resp_1.rt,key_resp_1.started,key_resp_1.stopped,sound_1A_1.started,sound_1A_1.stopped,break_time.started,break_time.stopped,text_2.started,text_2.stopped,key_resp_2.keys,key_resp_2.corr,key_resp_2.rt,key_resp_2.started,key_resp_2.stopped,sound_1A_2.started,sound_1A_2.stopped,participant,session,date,expName,psychopyVersion,frameRate,
fresh,fresh,0,0,0,0,,,,,,,,,"['f', 'r', 'e', 's', 'h']",1,"[0.9860140318050981, 1.2100018910132349, 1.3219349710270762, 1.5539350509643555, 1.6979744909331203]",,,,,,,,,,,,,,,,,,,,,s189_11222022,001,2022_Nov_22_1427,test_typingtask_norepeats,2020.2.10,59.978718076087716,
dream,dream,0,1,1,1,,,,,,,,,"['d', 'r', 'e', 'a', 'm']",1,"[0.8067632471211255, 1.030707114841789, 1.1267137601971626, 1.2307439907453954, 1.4227951760403812]",,,,,,,,,,,,,,,,,,,,,s189_11222022,001,2022_Nov_22_1427,test_typingtask_norepeats,2020.2.10,59.978718076087716,
slime,slime,0,2,2,2,,,,,,,,,"['s', 'l', 'i', 'm', 'e']",1,"[0.842764925211668, 0.922780005261302, 1.0267640254460275, 1.210760425310582, 1.3228831812739372]",,,,,,,,,,,,,,,,,,,,,s189_11222022,001,2022_Nov_22_1427,test_typingtask_norepeats,2020.2.10,59.978718076087716,
would,would,,,,,0,0,0,0,,,,,,,,1775.0890043610707,None,"['w', 'o', 'u', 'l', 'd']",1,"[0.8426349689252675, 0.9865408707410097, 1.0986708789132535, 1.2826563999988139, 1.418558632954955]",1775.0890043610707,None,1775.082047517877,1775.1816724059172,,,,,,,,,,,,s189_11222022,001,2022_Nov_22_1427,test_typingtask_norepeats,2020.2.10,59.978718076087716,
belly,belly,,,,,0,1,1,1,,,,,,,,1780.5982596720569,None,"['b', 'e', 'l', 'l', 'y']",1,"[0.8293384211137891, 0.965358573012054, 1.1253738082014024, 1.3013351699337363, 1.4854013309814036]",1780.5982596720569,None,1780.598151520826,1780.6985874222592,,,,,,,,,,,,s189_11222022,001,2022_Nov_22_1427,test_typingtask_norepeats,2020.2.10,59.978718076087716,
vanru,vanru,,,,,0,2,2,2,,,,,,,,1786.0981507431716,None,"['v', 'a', 'n', 'r', 'u']",1,"[1.0013919337652624, 1.2254582270979881, 1.4814064428210258, 1.7694830927066505, 1.929447307717055]",1786.0981507431716,None,1786.0980961271562,1786.1982525279745,,,,,,,,,,,,s189_11222022,001,2022_Nov_22_1427,test_typingtask_norepeats,2020.2.10,59.978718076087716,
tithe,tithe,,,,,0,3,3,3,,,,,,,,1791.5981980729848,None,"['t', 'i', 't', 'h', 'e']",1,"[0.9173519280739129, 1.0773434713482857, 1.3173540262505412, 1.4694639281369746, 1.6374689424410462]",1791.5981980729848,None,1791.5981908291578,1791.698212562129,,,,,,,,,,,,s189_11222022,001,2022_Nov_22_1427,test_typingtask_norepeats,2020.2.10,59.978718076087716,
cooed,cooed,,,,,0,4,4,4,,,,,,,,1797.0981256118976,None,"['c', 'o', 'o', 'e', 'd']",1,"[0.7694928827695549, 1.0094261667691171, 1.169463959056884, 1.5695735439658165, 1.8174156886525452]",1797.0981256118976,None,1797.0981764611788,1797.1980520519428,,,,,,,,,,,,s189_11222022,001,2022_Nov_22_1427,test_typingtask_norepeats,2020.2.10,59.978718076087716,
kremp,kremp,,,,,0,5,5,5,,,,,,,,1802.598204345908,None,"['k', 'r', 'e', 'm', 'p']",1,"[0.7334555322304368, 1.2214620090089738, 1.4293795241974294, 2.2214667359367013, 2.4694997118785977]",1802.598204345908,None,1802.5982592431828,1802.6981086679734,,,,,,,,,,,,s189_11222022,001,2022_Nov_22_1427,test_typingtask_norepeats,2020.2.10,59.978718076087716,
champ,champ,,,,,0,6,6,6,,,,,,,,1808.0982906161807,None,"['c', 'h', 'a', 'm', 'p']",1,"[0.7453648578375578, 0.8973274808377028, 1.0653831236995757, 1.2172658029012382, 1.4092585076577961]",1808.0982906161807,None,1808.0982022471726,1808.1989646139555,,,,,,,,,,,,s189_11222022,001,2022_Nov_22_1427,test_typingtask_norepeats,2020.2.10,59.978718076087716,
cooed,cooed,,,,,0,7,7,7,,,,,,,,1813.598332745023,None,"['c', 'o', 'o', 'e', 'd']",1,"[0.7572384672239423, 0.9973280541598797, 1.1653411244042218, 1.2772174761630595, 1.4853059062734246]",1813.598332745023,None,1813.5982324131764,1813.6983564011753,,,,,,,,,,,,s189_11222022,001,2022_Nov_22_1427,test_typingtask_norepeats,2020.2.10,59.978718076087716,
zibja,zibja,,,,,0,8,8,8,,,,,,,,1819.0991239072755,None,"['z', 'i', 'b', 'j', 'a']",1,"[1.5125391208566725, 1.7364800260402262, 2.5445611979812384, 2.8164284490048885, 2.9365380541421473]",1819.0991239072755,None,1819.0982728018425,1819.1984208119102,,,,,,,,,,,,s189_11222022,001,2022_Nov_22_1427,test_typingtask_norepeats,2020.2.10,59.978718076087716,
belly,belly,,,,,0,9,9,9,,,,,,,,1824.59822588088,None,"['b', 'e', 'l', 'l', 'y']",1,"[0.757445091381669, 0.8694207430817187, 1.0134448590688407, 1.1894504320807755, 1.333443263079971]",1824.59822588088,None,1824.5983591647819,1824.6981968441978,,,,,,,,,,,,s189_11222022,001,2022_Nov_22_1427,test_typingtask_norepeats,2020.2.10,59.978718076087716,
pykka,pykka,,,,,0,10,10,10,,,,,,,,1830.0980853610672,None,"['p', 'y', 'k', 'k', 'a']",1,"[0.8575323903933167, 1.1214551450684667, 1.7934995139949024, 1.9455448961816728, 2.065456801094115]",1830.0980853610672,None,1830.0983053268865,1830.1983202090487,,,,,,,,,,,,s189_11222022,001,2022_Nov_22_1427,test_typingtask_norepeats,2020.2.10,59.978718076087716,
tithe,tithe,,,,,0,11,11,11,,,,,,,,1835.5981915211305,None,"['t', 'i', 't', 'h', 'e']",1,"[0.89341033808887, 1.0374762788414955, 1.2534381281584501, 1.3734528059139848, 1.541484349872917]",1835.5981915211305,None,1835.5984083097428,1835.698303009849,,,,,,,,,,,,s189_11222022,001,2022_Nov_22_1427,test_typingtask_norepeats,2020.2.10,59.978718076087716,
faqir,faqir,,,,,0,12,12,12,,,,,,,,1841.098265780136,None,"['f', 'a', 'q', 'i', 'r']",1,"[1.0333894761279225, 1.2333953869529068, 2.10541280079633, 2.3213576897978783, 2.5853254818357527]",1841.098265780136,None,1841.098314766772,1841.198294939939,,,,,,,,,,,,s189_11222022,001,2022_Nov_22_1427,test_typingtask_norepeats,2020.2.10,59.978718076087716,
cooed,cooed,,,,,0,13,13,13,,,,,,,,1846.5981770842336,None,"['c', 'o', 'o', 'e', 'd']",1,"[0.9015007810667157, 1.2294110376387835, 1.3814206440001726, 1.4854532298631966, 1.6694848877377808]",1846.5981770842336,None,1846.5982641237788,1846.6981159280986,,,,,,,,,,,,s189_11222022,001,2022_Nov_22_1427,test_typingtask_norepeats,2020.2.10,59.978718076087716,
lucky,lucky,,,,,0,14,14,14,,,,,,,,1852.0983067131601,None,"['l', 'u', 'c', 'k', 'y']",1,"[0.6893889489583671, 0.8812569999136031, 0.9453768930397928, 1.1373357912525535, 1.393285539932549]",1852.0983067131601,None,1852.0981106557883,1852.1982725872658,,,,,,,,,,,,s189_11222022,001,2022_Nov_22_1427,test_typingtask_norepeats,2020.2.10,59.978718076087716,
vodka,vodka,,,,,0,15,15,15,,,,,,,,1857.5984159270301,None,"['v', 'o', 'd', 'k', 'a']",1,"[0.9011721019633114, 1.0771439601667225, 1.3571505802683532, 1.5811824901029468, 1.717138031963259]",1857.5984159270301,None,1857.5981887327507,1857.698327831924,,,,,,,,,,,,s189_11222022,001,2022_Nov_22_1427,test_typingtask_norepeats,2020.2.10,59.978718076087716,
haole,haole,,,,,0,16,16,16,,,,,,,,1863.0983276902698,None,"['h', 'a', 'o', 'l', 'e']",1,"[0.8412892925553024, 0.9533442999236286, 1.2095036627724767, 1.521333506796509, 1.6812732839025557]",1863.0983276902698,None,1863.0981869949028,1863.1982620349154,,,,,,,,,,,,s189_11222022,001,2022_Nov_22_1427,test_typingtask_norepeats,2020.2.10,59.978718076087716,
think,think,,,,,0,17,17,17,,,,,,,,1868.5983181060292,None,"['t', 'h', 'i', 'n', 'k']",1,"[0.7733061970211565, 0.9092732290737331, 1.0932417148724198, 1.2772347568534315, 1.4613616219721735]",1868.5983181060292,None,1868.5983306858689,1868.6985373492353,,,,,,,,,,,,s189_11222022,001,2022_Nov_22_1427,test_typingtask_norepeats,2020.2.10,59.978718076087716,
champ,champ,,,,,0,18,18,18,,,,,,,,1874.0983237680048,None,"['c', 'h', 'a', 'm', 'p']",1,"[0.7613234901800752, 0.9052486699074507, 1.0493082371540368, 1.2254034909419715, 1.481237307190895]",1874.0983237680048,None,1874.0984503598884,1874.1982857910916,,,,,,,,,,,,s189_11222022,001,2022_Nov_22_1427,test_typingtask_norepeats,2020.2.10,59.978718076087716,
lucky,lucky,,,,,0,19,19,19,,,,,,,,1879.5984941530041,None,"['l', 'u', 'c', 'k', 'y']",1,"[0.5971668548882008, 0.7890565348789096, 0.9090720410458744, 1.0691659161821008, 1.2851687828078866]",1879.5984941530041,None,1879.5983250220306,1879.69822659716,,,,,,,,,,,,s189_11222022,001,2022_Nov_22_1427,test_typingtask_norepeats,2020.2.10,59.978718076087716,
therm,therm,,,,,0,20,20,20,,,,,,,,1885.0983161958866,None,"['t', 'h', 'e', 'r', 'm']",1,"[0.8092560316435993, 0.9053446906618774, 1.1853371988981962, 1.321347661782056, 1.625307556707412]",1885.0983161958866,None,1885.0983176310547,1885.1986883948557,,,,,,,,,,,,s189_11222022,001,2022_Nov_22_1427,test_typingtask_norepeats,2020.2.10,59.978718076087716,
druze,druze,,,,,0,21,21,21,,,,,,,,1890.5982831632718,None,"['d', 'r', 'u', 'z', 'e']",1,"[0.7333833267912269, 1.213383947033435, 1.3573933877050877, 2.293275034055114, 2.6453558821231127]",1890.5982831632718,None,1890.5983122037724,1890.6985114179552,,,,,,,,,,,,s189_11222022,001,2022_Nov_22_1427,test_typingtask_norepeats,2020.2.10,59.978718076087716,
vanru,vanru,,,,,0,22,22,22,,,,,,,,1896.0982564408332,None,"['v', 'a', 'n', 'r', 'u']",1,"[0.8894055699929595, 0.9933347040787339, 1.2493947339244187, 1.4414221649058163, 1.5773220579139888]",1896.0982564408332,None,1896.0983710298315,1896.1985355401412,,,,,,,,,,,,s189_11222022,001,2022_Nov_22_1427,test_typingtask_norepeats,2020.2.10,59.978718076087716,
heond,heond,,,,,0,23,23,23,,,,,,,,1901.598334751092,None,"['h', 'e', 'o', 'n', 'd']",1,"[0.8133322708308697, 1.0212977319024503, 1.2453677728772163, 1.5412079198285937, 1.7012213650159538]",1901.598334751092,None,1901.5983302379027,1901.698351023253,,,,,,,,,,,,s189_11222022,001,2022_Nov_22_1427,test_typingtask_norepeats,2020.2.10,59.978718076087716,
therm,therm,,,,,0,24,24,24,,,,,,,,1907.0981840728782,None,"['t', 'h', 'e', 'r', 'm']",1,"[0.8573566349223256, 0.9854766391217709, 1.1293943161144853, 1.2413708879612386, 1.417347226291895]",1907.0981840728782,None,1907.098167385906,1907.1984333521686,,,,,,,,,,,,s189_11222022,001,2022_Nov_22_1427,test_typingtask_norepeats,2020.2.10,59.978718076087716,
heond,heond,,,,,0,25,25,25,,,,,,,,1912.598371730186,None,"['h', 'e', 'o', 'n', 'd']",1,"[0.7731907130219042, 0.9092363631352782, 1.061264710035175, 1.3092448231764138, 1.4212873680517077]",1912.598371730186,None,1912.5984519310296,1912.6983303520828,,,,,,,,,,,,s189_11222022,001,2022_Nov_22_1427,test_typingtask_norepeats,2020.2.10,59.978718076087716,
tithe,tithe,,,,,0,26,26,26,,,,,,,,1918.0982757601887,None,"['t', 'i', 't', 'h', 'e']",1,"[0.7693900102749467, 0.9133805241435766, 1.1133556012064219, 1.2012781859375536, 1.3853856241330504]",1918.0982757601887,None,1918.0984879508615,1918.1988012711518,,,,,,,,,,,,s189_11222022,001,2022_Nov_22_1427,test_typingtask_norepeats,2020.2.10,59.978718076087716,
faqir,faqir,,,,,0,27,27,27,,,,,,,,1923.598403613083,None,"['f', 'a', 'q', 'i', 'r']",1,"[0.7892070226371288, 0.9811586500145495, 1.573216110933572, 1.7253111498430371, 1.9332595360465348]",1923.598403613083,None,1923.5982114300132,1923.6983492248692,,,,,,,,,,,,s189_11222022,001,2022_Nov_22_1427,test_typingtask_norepeats,2020.2.10,59.978718076087716,
about,about,,,,,0,28,28,28,,,,,,,,1929.0983792589977,None,"['a', 'b', 'o', 'u', 't']",1,"[0.7212890423834324, 0.8492452711798251, 1.0812170011922717, 1.0972612700425088, 1.2411866872571409]",1929.0983792589977,None,1929.098197373096,1929.198347182013,,,,,,,,,,,,s189_11222022,001,2022_Nov_22_1427,test_typingtask_norepeats,2020.2.10,59.978718076087716,
champ,champ,,,,,0,29,29,29,,,,,,,,1934.5983550548553,None,"['c', 'h', 'a', 'm', 'p']",1,"[0.7732676668092608, 0.9093559440225363, 1.037305450066924, 1.1973424097523093, 1.3732597907073796]",1934.5983550548553,None,1934.5981817711145,1934.6983277848922,,,,,,,,,,,,s189_11222022,001,2022_Nov_22_1427,test_typingtask_norepeats,2020.2.10,59.978718076087716,
belly,belly,,,,,0,30,30,30,,,,,,,,1940.0985819441266,None,"['b', 'e', 'l', 'l', 'y']",1,"[0.7290456239134073, 0.8490726300515234, 0.9850753736682236, 1.1689900318160653, 1.3450294127687812]",1940.0985819441266,None,1940.0983433527872,1940.1982182059437,,,,,,,,,,,,s189_11222022,001,2022_Nov_22_1427,test_typingtask_norepeats,2020.2.10,59.978718076087716,
cheer,cheer,,,,,0,31,31,31,,,,,,,,1945.598392315209,None,"['c', 'h', 'e', 'e', 'r']",1,"[0.8611919679678977, 1.0132185509428382, 1.1732674548402429, 1.3652260419912636, 1.5011597210541368]",1945.598392315209,None,1945.5984132811427,1945.6982160639018,,,,,,,,,,,,s189_11222022,001,2022_Nov_22_1427,test_typingtask_norepeats,2020.2.10,59.978718076087716,
zibja,zibja,,,,,0,32,32,32,,,,,,,,1951.098464550916,None,"['z', 'i', 'b', 'j', 'a']",1,"[1.0972485071979463, 1.2332069501280785, 1.5930924429558218, 1.83322878414765, 1.9531672089360654]",1951.098464550916,None,1951.098565118853,1951.1982670710422,,,,,,,,,,,,s189_11222022,001,2022_Nov_22_1427,test_typingtask_norepeats,2020.2.10,59.978718076087716,
about,about,,,,,0,33,33,33,,,,,,,,1956.5983459660783,None,"['a', 'b', 'o', 'u', 't']",1,"[0.6612801398150623, 0.8133219089359045, 1.0453032981604338, 1.0932047432288527, 1.3412156491540372]",1956.5983459660783,None,1956.5984831540845,1956.6987530351616,,,,,,,,,,,,s189_11222022,001,2022_Nov_22_1427,test_typingtask_norepeats,2020.2.10,59.978718076087716,
theme,theme,,,,,0,34,34,34,,,,,,,,1962.098479297012,None,"['t', 'h', 'e', 'm', 'e']",1,"[0.7290764250792563, 0.8731500660069287, 1.0170195642858744, 1.1691379183903337, 1.3210537931881845]",1962.098479297012,None,1962.0994340879843,None,,,,,,,,,,,,s189_11222022,001,2022_Nov_22_1427,test_typingtask_norepeats,2020.2.10,59.978718076087716,
lucky,lucky,,,,,0,35,35,35,,,,,,,,1967.598488108255,None,"['l', 'u', 'c', 'k', 'y']",1,"[0.6451461841352284, 0.8291141749359667, 0.9170626802369952, 1.0851648799143732, 1.4371825139969587]",1967.598488108255,None,1967.5984548581764,1967.6990088932216,,,,,,,,,,,,s189_11222022,001,2022_Nov_22_1427,test_typingtask_norepeats,2020.2.10,59.978718076087716,
buddy,buddy,,,,,0,36,36,36,,,,,,,,1973.0982574792579,None,"['b', 'u', 'd', 'd', 'y']",1,"[0.7932937629520893, 1.0493958508595824, 1.1694035148248076, 1.345416036900133, 1.4653487419709563]",1973.0982574792579,None,1973.0984339118004,1973.1983164721169,,,,,,,,,,,,s189_11222022,001,2022_Nov_22_1427,test_typingtask_norepeats,2020.2.10,59.978718076087716,
would,would,,,,,0,37,37,37,,,,,,,,1978.5983970742673,None,"['w', 'o', 'u', 'l', 'd']",1,"[0.8212360441684723, 0.9731768001802266, 1.0372263840399683, 1.2291848729364574, 1.3572149127721786]",1978.5983970742673,None,1978.598668540828,1978.6984148700722,,,,,,,,,,,,s189_11222022,001,2022_Nov_22_1427,test_typingtask_norepeats,2020.2.10,59.978718076087716,
puppy,puppy,,,,,0,38,38,38,,,,,,,,1984.0983409131877,None,"['p', 'u', 'p', 'p', 'y']",1,"[0.6892230566591024, 0.8333119261078537, 1.0412110309116542, 1.217202381696552, 1.4333174489438534]",1984.0983409131877,None,1984.0983573407866,1984.1985615291633,,,,,,,,,,,,s189_11222022,001,2022_Nov_22_1427,test_typingtask_norepeats,2020.2.10,59.978718076087716,
pykka,pykka,,,,,0,39,39,39,,,,,,,,1989.5984910610132,None,"['p', 'y', 'k', 'k', 'a']",1,"[0.8531330958940089, 1.1251973598264158, 1.525069419760257, 1.6851882711052895, 1.7971735107712448]",1989.5984910610132,None,1989.5985715929419,1989.6983758970164,,,,,,,,,,,,s189_11222022,001,2022_Nov_22_1427,test_typingtask_norepeats,2020.2.10,59.978718076087716,
druze,druze,,,,,0,40,40,40,,,,,,,,1995.098477885127,None,"['d', 'r', 'u', 'z', 'e']",1,"[0.7371957721188664, 1.2810812518000603, 1.3930920627899468, 1.8091102759353817, 2.1371932891197503]",1995.098477885127,None,1995.0983587750234,1995.1987923299894,,,,,,,,,,,,s189_11222022,001,2022_Nov_22_1427,test_typingtask_norepeats,2020.2.10,59.978718076087716,
heond,heond,,,,,0,41,41,41,,,,,,,,2000.5985546289012,None,"['h', 'e', 'o', 'n', 'd']",1,"[0.781047202181071, 0.9571045101620257, 1.0929989302530885, 1.3009986118413508, 1.4210024238564074]",2000.5985546289012,None,2000.598446933087,2000.6984809772111,,,,,,,,,,,,s189_11222022,001,2022_Nov_22_1427,test_typingtask_norepeats,2020.2.10,59.978718076087716,
vanru,vanru,,,,,0,42,42,42,,,,,,,,2006.0985239241272,None,"['v', 'a', 'n', 'r', 'u']",1,"[0.8491317359730601, 0.9851364023052156, 1.2251553824171424, 1.4010293651372194, 1.569082309026271]",2006.0985239241272,None,2006.0983595801517,2006.198573930189,,,,,,,,,,,,s189_11222022,001,2022_Nov_22_1427,test_typingtask_norepeats,2020.2.10,59.978718076087716,
kremp,kremp,,,,,0,43,43,43,,,,,,,,2011.5985224102624,None,"['k', 'r', 'e', 'm', 'p']",1,"[0.7170242113061249, 0.9411316360346973, 1.0691364742815495, 1.2611542292870581, 1.4691307693719864]",2011.5985224102624,None,2011.5987780489959,2011.6986240050755,,,,,,,,,,,,s189_11222022,001,2022_Nov_22_1427,test_typingtask_norepeats,2020.2.10,59.978718076087716,
therm,therm,,,,,0,44,44,44,,,,,,,,2017.0984967742115,None,"['t', 'h', 'e', 'r', 'm']",1,"[0.8651351621374488, 1.0090874433517456, 1.1770525742322206, 1.2811479610390961, 1.44916826300323]",2017.0984967742115,None,2017.0985718797892,2017.198688678909,,,,,,,,,,,,s189_11222022,001,2022_Nov_22_1427,test_typingtask_norepeats,2020.2.10,59.978718076087716,
puppy,puppy,,,,,0,45,45,45,,,,,,,,2022.5986606641673,None,"['p', 'u', 'p', 'p', 'y']",1,"[0.7649583872407675, 1.1329601812176406, 1.3970066038891673, 1.5890127113088965, 1.7008825461380184]",2022.5986606641673,None,2022.5985100469552,2022.6985457348637,,,,,,,,,,,,s189_11222022,001,2022_Nov_22_1427,test_typingtask_norepeats,2020.2.10,59.978718076087716,
vodka,vodka,,,,,0,46,46,46,,,,,,,,2028.09840769507,None,"['v', 'o', 'd', 'k', 'a']",1,"[0.8412081571295857, 0.985137889161706, 1.2652036491781473, 1.4972453280352056, 1.6091577201150358]",2028.09840769507,None,2028.0982184261084,2028.198197316844,,,,,,,,,,,,s189_11222022,001,2022_Nov_22_1427,test_typingtask_norepeats,2020.2.10,59.978718076087716,
faqir,faqir,,,,,0,47,47,47,,,,,,,,2033.6150242472067,None,"['f', 'a', 'q', 'i', 'r']",1,"[0.8765164762735367, 1.036621421109885, 1.5485517252236605, 1.7005009283311665, 2.076520807109773]",2033.6150242472067,None,2033.614573197905,2033.7149320552126,,,,,,,,,,,,s189_11222022,001,2022_Nov_22_1427,test_typingtask_norepeats,2020.2.10,59.978718076087716,
buddy,buddy,,,,,0,48,48,48,,,,,,,,2039.115064023994,None,"['b', 'u', 'd', 'd', 'y']",1,"[0.7446161448024213, 0.9764935299754143, 1.0886094979941845, 1.432584899943322, 1.5604756698012352]",2039.115064023994,None,2039.1150252441876,2039.214696881827,,,,,,,,,,,,s189_11222022,001,2022_Nov_22_1427,test_typingtask_norepeats,2020.2.10,59.978718076087716,
haole,haole,,,,,0,49,49,49,,,,,,,,2044.6150825801305,None,"['h', 'a', 'o', 'l', 'e']",1,"[0.7485670992173254, 0.8446274832822382, 1.0525923129171133, 1.2764737838879228, 1.3805572031997144]",2044.6150825801305,None,2044.6151440530084,2044.7147596580908,,,,,,,,,,,,s189_11222022,001,2022_Nov_22_1427,test_typingtask_norepeats,2020.2.10,59.978718076087716,
think,think,,,,,0,50,50,50,,,,,,,,2050.1151755428873,None,"['t', 'h', 'i', 'n', 'k']",1,"[0.8164819828234613, 0.9364491221494973, 1.1043792250566185, 1.2564343800768256, 1.4324579257518053]",2050.1151755428873,None,2050.1151057770476,2050.2150875739753,,,,,,,,,,,,s189_11222022,001,2022_Nov_22_1427,test_typingtask_norepeats,2020.2.10,59.978718076087716,
edthe,edthe,,,,,0,51,51,51,,,,,,,,2055.615334062837,None,"['e', 'd', 't', 'h', 'e']",1,"[0.7722939788363874, 1.3163227820768952, 1.5722403600811958, 1.7082520821131766, 1.828348864801228]",2055.615334062837,None,2055.6151389069855,2055.714779827278,,,,,,,,,,,,s189_11222022,001,2022_Nov_22_1427,test_typingtask_norepeats,2020.2.10,59.978718076087716,
theme,theme,,,,,0,52,52,52,,,,,,,,2061.1151171009988,None,"['t', 'h', 'e', 'm', 'e']",1,"[0.6884913695976138, 0.824436844792217, 0.9844331205822527, 1.1205419469624758, 1.2325402018614113]",2061.1151171009988,None,2061.115080941934,2061.2158656371757,,,,,,,,,,,,s189_11222022,001,2022_Nov_22_1427,test_typingtask_norepeats,2020.2.10,59.978718076087716,
zibja,zibja,,,,,0,53,53,53,,,,,,,,2066.615193368867,None,"['z', 'i', 'b', 'j', 'a']",1,"[1.0044317720457911, 1.1964839263819158, 1.5724462512880564, 1.844411221332848, 1.9883535113185644]",2066.615193368867,None,2066.615299340803,2066.715028706938,,,,,,,,,,,,s189_11222022,001,2022_Nov_22_1427,test_typingtask_norepeats,2020.2.10,59.978718076087716,
think,think,,,,,0,54,54,54,,,,,,,,2072.1151577020064,None,"['t', 'h', 'i', 'n', 'k']",1,"[0.6804669313132763, 0.8003382990136743, 0.9445280870422721, 1.0883507682010531, 1.224347610026598]",2072.1151577020064,None,2072.115221966058,2072.215093533043,,,,,,,,,,,,s189_11222022,001,2022_Nov_22_1427,test_typingtask_norepeats,2020.2.10,59.978718076087716,
cheer,cheer,,,,,0,55,55,55,,,,,,,,2077.615343102254,None,"['c', 'h', 'e', 'e', 'r']",1,"[0.6601980249397457, 0.7803228227421641, 0.9483016887679696, 1.1402650456875563, 1.2842105189338326]",2077.615343102254,None,2077.6153141288087,2077.714923339896,,,,,,,,,,,,s189_11222022,001,2022_Nov_22_1427,test_typingtask_norepeats,2020.2.10,59.978718076087716,
belly,belly,,,,,0,56,56,56,,,,,,,,2083.115397042129,None,"['b', 'e', 'l', 'l', 'y']",1,"[0.6882131928578019, 0.7841525319963694, 0.9601615411229432, 1.1443190430290997, 1.3362248009070754]",2083.115397042129,None,2083.1153732561506,2083.215047739912,,,,,,,,,,,,s189_11222022,001,2022_Nov_22_1427,test_typingtask_norepeats,2020.2.10,59.978718076087716,
vanru,vanru,,,,,0,57,57,57,,,,,,,,2088.6151358769275,None,"['v', 'a', 'n', 'r', 'u']",1,"[0.8604049449786544, 0.9964271150529385, 1.2205263320356607, 1.444544387049973, 1.5804790533147752]",2088.6151358769275,None,2088.615350562148,2088.715156584978,,,,,,,,,,,,s189_11222022,001,2022_Nov_22_1427,test_typingtask_norepeats,2020.2.10,59.978718076087716,
druze,druze,,,,,0,58,58,58,,,,,,,,2094.1153493332677,None,"['d', 'r', 'u', 'z', 'e']",1,"[0.7042848989367485, 0.9762042709626257, 1.1202824339270592, 1.4803125220350921, 1.7523101470433176]",2094.1153493332677,None,2094.115368254017,2094.214958004188,,,,,,,,,,,,s189_11222022,001,2022_Nov_22_1427,test_typingtask_norepeats,2020.2.10,59.978718076087716,
faqir,faqir,,,,,0,59,59,59,,,,,,,,2099.6152992071584,None,"['f', 'a', 'q', 'i', 'r']",1,"[0.7723700972273946, 0.9323452520184219, 1.3723744992166758, 1.5403181500732899, 1.6602737521752715]",2099.6152992071584,None,2099.61484379787,2099.714900162071,,,,,,,,,,,,s189_11222022,001,2022_Nov_22_1427,test_typingtask_norepeats,2020.2.10,59.978718076087716,
therm,therm,,,,,0,60,60,60,,,,,,,,2105.115095197223,None,"['t', 'h', 'e', 'r', 'm']",1,"[0.7045662961900234, 0.816558494232595, 0.9604524271562696, 1.0805882108397782, 1.256516617257148]",2105.115095197223,None,2105.1151630990207,2105.2149038552307,,,,,,,,,,,,s189_11222022,001,2022_Nov_22_1427,test_typingtask_norepeats,2020.2.10,59.978718076087716,
pykka,pykka,,,,,0,61,61,61,,,,,,,,2110.615077246912,None,"['p', 'y', 'k', 'k', 'a']",1,"[0.796491542365402, 1.0525461910292506, 1.4604804133996367, 1.6125136259943247, 1.6844755532220006]",2110.615077246912,None,2110.6151672000997,2110.7150467368774,,,,,,,,,,,,s189_11222022,001,2022_Nov_22_1427,test_typingtask_norepeats,2020.2.10,59.978718076087716,
heond,heond,,,,,0,62,62,62,,,,,,,,2116.115205022972,None,"['h', 'e', 'o', 'n', 'd']",1,"[0.7843492240644991, 0.8804550128988922, 1.040359865874052, 1.2564558498561382, 1.3524710987694561]",2116.115205022972,None,2116.115287776105,2116.214943644125,,,,,,,,,,,,s189_11222022,001,2022_Nov_22_1427,test_typingtask_norepeats,2020.2.10,59.978718076087716,
haole,haole,,,,,0,63,63,63,,,,,,,,2121.615313795861,None,"['h', 'a', 'o', 'l', 'e']",1,"[0.7002370860427618, 0.89224654994905, 1.1002386789768934, 1.3163415831513703, 1.4203541311435401]",2121.615313795861,None,2121.615165623836,2121.714826844167,,,,,,,,,,,,s189_11222022,001,2022_Nov_22_1427,test_typingtask_norepeats,2020.2.10,59.978718076087716,
about,about,,,,,0,64,64,64,,,,,,,,2127.115282922052,None,"['a', 'b', 'o', 'u', 't']",1,"[0.6323696780018508, 0.8002553367987275, 1.0002693878486753, 1.1123326229862869, 1.2243280760012567]",2127.115282922052,None,2127.1151810791343,2127.214968737215,,,,,,,,,,,,s189_11222022,001,2022_Nov_22_1427,test_typingtask_norepeats,2020.2.10,59.978718076087716,
heond,heond,,,,,0,65,65,65,,,,,,,,2132.615432452876,None,"['h', 'e', 'o', 'n', 'd']",1,"[0.7402245718985796, 0.8841058067046106, 1.0202404279261827, 1.2282012896612287, 1.3561947369016707]",2132.615432452876,None,2132.615250751842,2132.7150969309732,,,,,,,,,,,,s189_11222022,001,2022_Nov_22_1427,test_typingtask_norepeats,2020.2.10,59.978718076087716,
druze,druze,,,,,0,66,66,66,,,,,,,,2138.1154561322182,None,"['d', 'r', 'u', 'z', 'e']",1,"[0.6722178705967963, 0.9601094536483288, 1.1121412739157677, 1.3681463729590178, 1.6402067225426435]",2138.1154561322182,None,2138.1152868829668,2138.21495251311,,,,,,,,,,,,s189_11222022,001,2022_Nov_22_1427,test_typingtask_norepeats,2020.2.10,59.978718076087716,
would,would,,,,,0,67,67,67,,,,,,,,2143.615374739282,None,"['w', 'o', 'u', 'l', 'd']",1,"[0.7561825797893107, 0.9082534029148519, 1.020247905049473, 1.1721929656341672, 1.2841805927455425]",2143.615374739282,None,2143.615516291,2143.7150670052506,,,,,,,,,,,,s189_11222022,001,2022_Nov_22_1427,test_typingtask_norepeats,2020.2.10,59.978718076087716,
haole,haole,,,,,0,68,68,68,,,,,,,,2149.115419636946,None,"['h', 'a', 'o', 'l', 'e']",1,"[0.7601320589892566, 0.8561623622663319, 1.136247978080064, 1.360124927945435, 1.4482434908859432]",2149.115419636946,None,2149.1155229220167,2149.215157505125,,,,,,,,,,,,s189_11222022,001,2022_Nov_22_1427,test_typingtask_norepeats,2020.2.10,59.978718076087716,
tithe,tithe,,,,,0,69,69,69,,,,,,,,2154.6154995248653,None,"['t', 'i', 't', 'h', 'e']",1,"[0.7641510129906237, 0.9001024118624628, 1.0760617032647133, 1.1801445200107992, 1.3241588231176138]",2154.6154995248653,None,2154.6158260321245,2154.715408544056,,,,,,,,,,,,s189_11222022,001,2022_Nov_22_1427,test_typingtask_norepeats,2020.2.10,59.978718076087716,
vanru,vanru,,,,,0,70,70,70,,,,,,,,2160.1152723240666,None,"['v', 'a', 'n', 'r', 'u']",1,"[0.7444192008115351, 0.8883124408312142, 1.0803881417959929, 1.240385842975229, 1.3682687720283866]",2160.1152723240666,None,2160.1154343509115,2160.2151255910285,,,,,,,,,,,,s189_11222022,001,2022_Nov_22_1427,test_typingtask_norepeats,2020.2.10,59.978718076087716,
pykka,pykka,,,,,0,71,71,71,,,,,,,,2165.6154419151135,None,"['p', 'y', 'k', 'k', 'a']",1,"[0.7162142689339817, 0.9961388790979981, 1.372177669312805, 1.5402295771054924, 1.6601010141894221]",2165.6154419151135,None,2165.6154390787706,2165.7152397981845,,,,,,,,,,,,s189_11222022,001,2022_Nov_22_1427,test_typingtask_norepeats,2020.2.10,59.978718076087716,
zibja,zibja,,,,,0,72,72,72,,,,,,,,2171.1153546762653,None,"['z', 'i', 'b', 'j', 'a']",1,"[0.9841985139064491, 1.1922032530419528, 1.4402166400104761, 1.6642901976592839, 1.7682315446436405]",2171.1153546762653,None,2171.1155017628334,2171.215226745233,,,,,,,,,,,,s189_11222022,001,2022_Nov_22_1427,test_typingtask_norepeats,2020.2.10,59.978718076087716,
kremp,kremp,,,,,0,73,73,73,,,,,,,,2176.6152635491453,None,"['k', 'r', 'e', 'm', 'p']",1,"[0.6284102690406144, 0.9643360590562224, 1.0604371260851622, 1.2203755299560726, 1.4683981579728425]",2176.6152635491453,None,2176.6152233690955,2176.714945917949,,,,,,,,,,,,s189_11222022,001,2022_Nov_22_1427,test_typingtask_norepeats,2020.2.10,59.978718076087716,
champ,champ,,,,,0,74,74,74,,,,,,,,2182.115302210208,None,"['c', 'h', 'a', 'm', 'p']",1,"[0.7283430057577789, 0.8482901798561215, 1.0402373438701034, 1.1762400888837874, 1.3522869707085192]",2182.115302210208,None,2182.115168510936,2182.2150977379642,,,,,,,,,,,,s189_11222022,001,2022_Nov_22_1427,test_typingtask_norepeats,2020.2.10,59.978718076087716,
there,there,,,,,0,75,75,75,,,,,,,,2187.615393199958,None,"['t', 'h', 'e', 'r', 'e', 'space']",0,"[0.756197698879987, 0.8442089762538671, 0.9881743318401277, 1.1322217811830342, 1.2522939522750676, 1.7401817059144378]",2187.615393199958,None,2187.6154277818277,2187.7150069270283,,,,,,,,,,,,s189_11222022,001,2022_Nov_22_1427,test_typingtask_norepeats,2020.2.10,59.978718076087716,
kremp,kremp,,,,,0,76,76,76,,,,,,,,2193.132126885932,None,"['k', 'r', 'e', 'm', 'p']",1,"[0.7035371419042349, 0.9034956148825586, 0.9834560519084334, 1.1594155398197472, 1.3275177720934153]",2193.132126885932,None,2193.132140299771,2193.231892355252,,,,,,,,,,,,s189_11222022,001,2022_Nov_22_1427,test_typingtask_norepeats,2020.2.10,59.978718076087716,
there,there,,,,,0,77,77,77,,,,,,,,2198.632115988992,None,"['t', 'h', 'e', 'r', 'e']",1,"[0.6515142992138863, 0.7475021011196077, 0.8835391099564731, 0.9715564413927495, 1.0995247019454837]",2198.632115988992,None,2198.632191843819,2198.73186359182,,,,,,,,,,,,s189_11222022,001,2022_Nov_22_1427,test_typingtask_norepeats,2020.2.10,59.978718076087716,
vodka,vodka,,,,,0,78,78,78,,,,,,,,2204.132351383101,None,"['v', 'o', 'd', 'k', 'a']",1,"[0.7752418699674308, 0.9513288717716932, 1.2553205001167953, 1.5913243871182203, 1.6873111790046096]",2204.132351383101,None,2204.132125569973,2204.231894955039,,,,,,,,,,,,s189_11222022,001,2022_Nov_22_1427,test_typingtask_norepeats,2020.2.10,59.978718076087716,
belly,belly,,,,,0,79,79,79,,,,,,,,2209.6322693070397,None,"['b', 'e', 'l', 'l', 'y']",1,"[0.7313554272986948, 0.8353189579211175, 0.9713977039791644, 1.115340445190668, 1.3073954628780484]",2209.6322693070397,None,2209.6320200208575,2209.7317571761087,,,,,,,,,,,,s189_11222022,001,2022_Nov_22_1427,test_typingtask_norepeats,2020.2.10,59.978718076087716,
there,there,,,,,0,80,80,80,,,,,,,,2215.132400067989,None,"['t', 'h', 'e', 'r', 'e']",1,"[0.7113259378820658, 0.8072271412238479, 0.9671475468203425, 1.0952447480522096, 1.2232727189548314]",2215.132400067989,None,2215.1320587238297,2215.2319478220306,,,,,,,,,,,,s189_11222022,001,2022_Nov_22_1427,test_typingtask_norepeats,2020.2.10,59.978718076087716,
edthe,edthe,,,,,0,81,81,81,,,,,,,,2220.631944644265,None,"['e', 'd', 't', 'h', 'e']",1,"[0.7556192832998931, 1.0357203083112836, 1.3077185680158436, 1.4277041461318731, 1.531614989042282]",2220.631944644265,None,2220.6321631469764,2220.7320584398694,,,,,,,,,,,,s189_11222022,001,2022_Nov_22_1427,test_typingtask_norepeats,2020.2.10,59.978718076087716,
about,about,,,,,0,82,82,82,,,,,,,,2226.1348139592446,None,"['a', 'b', 'o', 'u', 't']",1,"[0.6848100661300123, 0.8287252718582749, 1.0527984071522951, 1.1088291690684855, 1.2688102112151682]",2226.1348139592446,None,2226.133177814074,2226.233323176857,,,,,,,,,,,,s189_11222022,001,2022_Nov_22_1427,test_typingtask_norepeats,2020.2.10,59.978718076087716,
think,think,,,,,0,83,83,83,,,,,,,,2231.6326095890254,None,"['t', 'h', 'i', 'n', 'k']",1,"[0.6990395300090313, 0.77105931378901, 0.9150281166657805, 1.058943348005414, 1.179031539708376]",2231.6326095890254,None,2231.63165627094,2231.7317411061376,,,,,,,,,,,,s189_11222022,001,2022_Nov_22_1427,test_typingtask_norepeats,2020.2.10,59.978718076087716,
therm,therm,,,,,0,84,84,84,,,,,,,,2237.132046948187,None,"['t', 'h', 'e', 'r', 'm']",1,"[0.7275291550904512, 0.8236141870729625, 0.9755257810465991, 1.0635488186962903, 1.1595067870803177]",2237.132046948187,None,2237.1320866681635,2237.232283982914,,,,,,,,,,,,s189_11222022,001,2022_Nov_22_1427,test_typingtask_norepeats,2020.2.10,59.978718076087716,
buddy,buddy,,,,,0,85,85,85,,,,,,,,2242.632030819077,None,"['b', 'u', 'd', 'd', 'y']",1,"[0.7475796448998153, 1.019639892037958, 1.1075856038369238, 1.2835163557901978, 1.4435200989246368]",2242.632030819077,None,2242.632135959808,2242.7321720379405,,,,,,,,,,,,s189_11222022,001,2022_Nov_22_1427,test_typingtask_norepeats,2020.2.10,59.978718076087716,
cheer,cheer,,,,,0,86,86,86,,,,,,,,2248.1321408832446,None,"['c', 'h', 'e', 'e', 'r']",1,"[0.7194572519510984, 0.8554808679036796, 1.0154767748899758, 1.1914473571814597, 1.3754782383330166]",2248.1321408832446,None,2248.132112898864,2248.232085776981,,,,,,,,,,,,s189_11222022,001,2022_Nov_22_1427,test_typingtask_norepeats,2020.2.10,59.978718076087716,
would,would,,,,,0,87,87,87,,,,,,,,2253.6324893711135,None,"['w', 'o', 'u', 'l', 'd']",1,"[0.7310835220851004, 0.8670592522248626, 0.9871430993080139, 1.139074990991503, 1.25906515493989]",2253.6324893711135,None,2253.63221418811,2253.732007265091,,,,,,,,,,,,s189_11222022,001,2022_Nov_22_1427,test_typingtask_norepeats,2020.2.10,59.978718076087716,
cooed,cooed,,,,,0,88,88,88,,,,,,,,2259.132268662099,None,"['c', 'o', 'o', 'e', 'd']",1,"[0.6473754602484405, 0.8153752218931913, 0.935392364859581, 1.0553558999672532, 1.2633917252533138]",2259.132268662099,None,2259.132138033863,2259.2322535058483,,,,,,,,,,,,s189_11222022,001,2022_Nov_22_1427,test_typingtask_norepeats,2020.2.10,59.978718076087716,
puppy,puppy,,,,,0,89,89,89,,,,,,,,2264.6322633968666,None,"['p', 'u', 'p', 'p', 'y']",1,"[0.7234076680615544, 0.9073620270937681, 1.12339559616521, 1.299389302264899, 1.4993563629686832]",2264.6322633968666,None,2264.6321265911683,2264.731905383058,,,,,,,,,,,,s189_11222022,001,2022_Nov_22_1427,test_typingtask_norepeats,2020.2.10,59.978718076087716,
druze,druze,,,,,0,90,90,90,,,,,,,,2270.1321897199377,None,"['d', 'r', 'u', 'z', 'e']",1,"[0.7514040949754417, 1.0074081220664084, 1.1354313888587058, 1.647440501023084, 1.9034263966605067]",2270.1321897199377,None,2270.1321329991333,2270.2320364578627,,,,,,,,,,,,s189_11222022,001,2022_Nov_22_1427,test_typingtask_norepeats,2020.2.10,59.978718076087716,
cheer,cheer,,,,,0,91,91,91,,,,,,,,2275.6322294948623,None,"['c', 'h', 'e', 'e', 'r']",1,"[0.7313537667505443, 0.8513088580220938, 1.003419250715524, 1.2513018087483943, 1.4194372678175569]",2275.6322294948623,None,2275.6322427629493,2275.73222154798,,,,,,,,,,,,s189_11222022,001,2022_Nov_22_1427,test_typingtask_norepeats,2020.2.10,59.978718076087716,
edthe,edthe,,,,,0,92,92,92,,,,,,,,2281.1323056649417,None,"['e', 'd', 't', 'h', 'e']",1,"[0.7193594700656831, 0.9433367471210659, 1.1913689239881933, 1.3032933743670583, 1.4073260552249849]",2281.1323056649417,None,2281.1322942078114,2281.232283499092,,,,,,,,,,,,s189_11222022,001,2022_Nov_22_1427,test_typingtask_norepeats,2020.2.10,59.978718076087716,
buddy,buddy,,,,,0,93,93,93,,,,,,,,2286.6322568790056,None,"['b', 'u', 'd', 'd', 'y']",1,"[0.763318894430995, 1.011373938061297, 1.1312944232486188, 1.275390325114131, 1.411418135277927]",2286.6322568790056,None,2286.632322878111,2286.7322923778556,,,,,,,,,,,,s189_11222022,001,2022_Nov_22_1427,test_typingtask_norepeats,2020.2.10,59.978718076087716,
there,there,,,,,0,94,94,94,,,,,,,,2292.1322291148826,None,"['t', 'h', 'e', 'r', 'e']",1,"[0.7433380750007927, 0.8474341998808086, 0.9673205288127065, 1.0793357561342418, 1.223379666917026]",2292.1322291148826,None,2292.1322695300914,2292.2323021320626,,,,,,,,,,,,s189_11222022,001,2022_Nov_22_1427,test_typingtask_norepeats,2020.2.10,59.978718076087716,
kremp,kremp,,,,,0,95,95,95,,,,,,,,2297.6321668941528,None,"['k', 'r', 'e', 'm', 'p']",1,"[0.8514262731187046, 0.995490922126919, 1.0673933331854641, 1.2994939568452537, 1.4513870500959456]",2297.6321668941528,None,2297.632376619149,2297.732299705036,,,,,,,,,,,,s189_11222022,001,2022_Nov_22_1427,test_typingtask_norepeats,2020.2.10,59.978718076087716,
vodka,vodka,,,,,0,96,96,96,,,,,,,,2303.1322392350994,None,"['v', 'o', 'd', 'k', 'a']",1,"[0.7673128992319107, 0.9273082250729203, 1.1193835749290884, 1.303427112288773, 1.4394364999607205]",2303.1322392350994,None,2303.1322764880024,2303.2322682831436,,,,,,,,,,,,s189_11222022,001,2022_Nov_22_1427,test_typingtask_norepeats,2020.2.10,59.978718076087716,
edthe,edthe,,,,,0,97,97,97,,,,,,,,2308.6321736532263,None,"['e', 'd', 't', 'h', 'e']",1,"[0.6673767403699458, 0.9634637259878218, 1.2194881993345916, 1.3474900051951408, 1.4673764780163765]",2308.6321736532263,None,2308.632120285183,2308.7322499090806,,,,,,,,,,,,s189_11222022,001,2022_Nov_22_1427,test_typingtask_norepeats,2020.2.10,59.978718076087716,
pykka,pykka,,,,,0,98,98,98,,,,,,,,2314.1321680839173,None,"['p', 'y', 'k', 'k', 'a']",1,"[0.7434205496683717, 0.9593784119933844, 1.2395022418349981, 1.3994935797527432, 1.4955104710534215]",2314.1321680839173,None,2314.1321377512068,2314.2321991170757,,,,,,,,,,,,s189_11222022,001,2022_Nov_22_1427,test_typingtask_norepeats,2020.2.10,59.978718076087716,
buddy,buddy,,,,,0,99,99,99,,,,,,,,2319.6322243511677,None,"['b', 'u', 'd', 'd', 'y']",1,"[0.7953810039907694, 1.0513233169913292, 1.1793527700938284, 1.3474270859733224, 1.491389841772616]",2319.6322243511677,None,2319.632239799015,2319.7325310301967,,,,,,,,,,,,s189_11222022,001,2022_Nov_22_1427,test_typingtask_norepeats,2020.2.10,59.978718076087716,
cheer,cheer,,,,,0,100,100,100,,,,,,,,2325.1321843052283,None,"['c', 'h', 'e', 'e', 'r']",1,"[0.6793969362042844, 0.8313784804195166, 1.0074870283715427, 1.1755455490201712, 1.3274235231801867]",2325.1321843052283,None,2325.132056513801,2325.232603806071,,,,,,,,,,,,s189_11222022,001,2022_Nov_22_1427,test_typingtask_norepeats,2020.2.10,59.978718076087716,
zibja,zibja,,,,,0,101,101,101,,,,,,,,2330.6322963428684,None,"['z', 'i', 'b', 'j', 'a']",1,"[1.187374939210713, 1.3633306762203574, 1.6353596551343799, 1.9073775983415544, 2.0512679889798164]",2330.6322963428684,None,2330.632084575016,2330.732291060034,,,,,,,,,,,,s189_11222022,001,2022_Nov_22_1427,test_typingtask_norepeats,2020.2.10,59.978718076087716,
champ,champ,,,,,0,102,102,102,,,,,,,,2336.132278495934,None,"['c', 'h', 'a', 'm', 'p']",1,"[0.6954103377647698, 0.8234118069522083, 0.9752891110256314, 1.1033402937464416, 1.36726792762056]",2336.132278495934,None,2336.132304035127,2336.232196918223,,,,,,,,,,,,s189_11222022,001,2022_Nov_22_1427,test_typingtask_norepeats,2020.2.10,59.978718076087716,
theme,theme,,,,,0,103,103,103,,,,,,,,2341.6322385198437,None,"['t', 'h', 'e', 'm', 'e']",1,"[0.7233107825741172, 0.8194253826513886, 0.9553163549862802, 1.0914199678227305, 1.1873929426074028]",2341.6322385198437,None,2341.6323301750235,2341.732434386853,,,,,,,,,,,,s189_11222022,001,2022_Nov_22_1427,test_typingtask_norepeats,2020.2.10,59.978718076087716,
tithe,tithe,,,,,0,104,104,104,,,,,,,,2347.13240033295,None,"['t', 'i', 't', 'h', 'e']",1,"[0.7271478208713233, 0.8791728317737579, 1.0632698186673224, 1.1912115728482604, 1.327153345104307]",2347.13240033295,None,2347.1322725177743,2347.232211594004,,,,,,,,,,,,s189_11222022,001,2022_Nov_22_1427,test_typingtask_norepeats,2020.2.10,59.978718076087716,
haole,haole,,,,,0,105,105,105,,,,,,,,2352.632426047232,None,"['h', 'a', 'o', 'l', 'e']",1,"[0.7472429890185595, 0.8832346610724926, 1.0352349430322647, 1.2431329949758947, 1.3632306209765375]",2352.632426047232,None,2352.63227875391,2352.732407371979,,,,,,,,,,,,s189_11222022,001,2022_Nov_22_1427,test_typingtask_norepeats,2020.2.10,59.978718076087716,
lucky,lucky,,,,,0,106,106,106,,,,,,,,2358.1324884360656,None,"['l', 'u', 'c', 'k', 'y']",1,"[0.6790478290058672, 0.871134006883949, 1.0070731085725129, 1.1270876317285001, 1.3670720276422799]",2358.1324884360656,None,2358.1323413918726,2358.232332487125,,,,,,,,,,,,s189_11222022,001,2022_Nov_22_1427,test_typingtask_norepeats,2020.2.10,59.978718076087716,
edthe,edthe,,,,,0,107,107,107,,,,,,,,2363.6322108469903,None,"['e', 'd', 't', 'h', 'e']",1,"[0.8194311009719968, 1.1154443509876728, 1.3713630279526114, 1.4834101051092148, 1.5955428811721504]",2363.6322108469903,None,2363.6322913109325,2363.732309698127,,,,,,,,,,,,s189_11222022,001,2022_Nov_22_1427,test_typingtask_norepeats,2020.2.10,59.978718076087716,
faqir,faqir,,,,,0,108,108,108,,,,,,,,2369.132515801117,None,"['f', 'a', 'q', 'i', 'r']",1,"[0.7031179498881102, 0.8871466610580683, 1.2391578410752118, 1.3191088158637285, 1.4950894191861153]",2369.132515801117,None,2369.132384474855,2369.232328054961,,,,,,,,,,,,s189_11222022,001,2022_Nov_22_1427,test_typingtask_norepeats,2020.2.10,59.978718076087716,
theme,theme,,,,,0,109,109,109,,,,,,,,2374.6322201909497,None,"['t', 'h', 'e', 'm', 'e']",1,"[0.8114313278347254, 0.8994362619705498, 1.051346885971725, 1.1634155567735434, 1.275459554977715]",2374.6322201909497,None,2374.63226569118,2374.7323359539732,,,,,,,,,,,,s189_11222022,001,2022_Nov_22_1427,test_typingtask_norepeats,2020.2.10,59.978718076087716,
cooed,cooed,,,,,0,110,110,110,,,,,,,,2380.1321703768335,None,"['c', 'o', 'o', 'e', 'd']",1,"[0.7595001393929124, 0.9194540400058031, 1.0554418442770839, 1.1593883452005684, 1.3513844711706042]",2380.1321703768335,None,2380.132267198991,2380.2324135359377,,,,,,,,,,,,s189_11222022,001,2022_Nov_22_1427,test_typingtask_norepeats,2020.2.10,59.978718076087716,
puppy,puppy,,,,,0,111,111,111,,,,,,,,2385.632213702891,None,"['p', 'u', 'p', 'p', 'y']",1,"[0.7394462497904897, 0.9554358851164579, 1.1793861910700798, 1.3554583410732448, 1.499439672101289]",2385.632213702891,None,2385.632380782161,2385.732398328837,,,,,,,,,,,,s189_11222022,001,2022_Nov_22_1427,test_typingtask_norepeats,2020.2.10,59.978718076087716,
there,there,,,,,0,112,112,112,,,,,,,,2391.132371216081,None,"['t', 'h', 'e', 'r', 'e']",1,"[0.6952383108437061, 0.791244750842452, 0.9352860897779465, 1.0552047286182642, 1.1753216008655727]",2391.132371216081,None,2391.1324051879346,2391.2322795442306,,,,,,,,,,,,s189_11222022,001,2022_Nov_22_1427,test_typingtask_norepeats,2020.2.10,59.978718076087716,
think,think,,,,,0,113,113,113,,,,,,,,2396.632313237991,None,"['t', 'h', 'i', 'n', 'k']",1,"[0.6752480990253389, 0.7473627720028162, 0.9072516341693699, 1.0432438859716058, 1.1712497449479997]",2396.632313237991,None,2396.6321541429497,2396.7321698199958,,,,,,,,,,,,s189_11222022,001,2022_Nov_22_1427,test_typingtask_norepeats,2020.2.10,59.978718076087716,
about,about,,,,,0,114,114,114,,,,,,,,2402.132569904905,None,"['a', 'b', 'o', 'u', 't']",1,"[0.7030430971644819, 0.854989180341363, 1.0551138264127076, 1.1430168603546917, 1.278993763960898]",2402.132569904905,None,2402.132205335889,2402.2324075382203,,,,,,,,,,,,s189_11222022,001,2022_Nov_22_1427,test_typingtask_norepeats,2020.2.10,59.978718076087716,
lucky,lucky,,,,,0,115,115,115,,,,,,,,2407.6324451002292,None,"['l', 'u', 'c', 'k', 'y']",1,"[0.603185195941478, 0.7632059161551297, 0.8832168919034302, 1.0032329941168427, 1.2032253718934953]",2407.6324451002292,None,2407.632465369068,2407.7323869010434,,,,,,,,,,,,s189_11222022,001,2022_Nov_22_1427,test_typingtask_norepeats,2020.2.10,59.978718076087716,
would,would,,,,,0,116,116,116,,,,,,,,2413.1324777458794,None,"['w', 'o', 'u', 'l', 'd']",1,"[0.69521200703457, 0.807185024023056, 0.879105944186449, 1.0311075751669705, 1.1510758702643216]",2413.1324777458794,None,2413.1323288721032,2413.2321890359744,,,,,,,,,,,,s189_11222022,001,2022_Nov_22_1427,test_typingtask_norepeats,2020.2.10,59.978718076087716,
vodka,vodka,,,,,0,117,117,117,,,,,,,,2418.632324520964,None,"['v', 'o', 'd', 'k', 'a']",1,"[0.971343170851469, 1.1073492388240993, 1.347314310260117, 1.4913556901738048, 1.6672229138202965]",2418.632324520964,None,2418.632435698062,2418.73218523385,,,,,,,,,,,,s189_11222022,001,2022_Nov_22_1427,test_typingtask_norepeats,2020.2.10,59.978718076087716,
theme,theme,,,,,0,118,118,118,,,,,,,,2424.1324731172062,None,"['t', 'h', 'e', 'm', 'e']",1,"[0.799188788048923, 0.8711840780451894, 1.0631910730153322, 1.1751520251855254, 1.3111705952323973]",2424.1324731172062,None,2424.132528206799,2424.232586170081,,,,,,,,,,,,s189_11222022,001,2022_Nov_22_1427,test_typingtask_norepeats,2020.2.10,59.978718076087716,
puppy,puppy,,,,,0,119,119,119,,,,,,,,2429.6326127522625,None,"['p', 'u', 'p', 'p', 'y']",1,"[0.7389902090653777, 0.8750785868614912, 1.0830388967879117, 1.2350430390797555, 1.3950128578580916]",2429.6326127522625,None,2429.632504811976,2429.7324748602696,,,,,,,,,,,,s189_11222022,001,2022_Nov_22_1427,test_typingtask_norepeats,2020.2.10,59.978718076087716,
champ,champ,,,,,,,,,0,0,0,0,,,,,,,,,,,,,2435.132383852266,None,2612.9737997478805,None,"['c', 'h', 'a', 'm', 'p']",1,"[0.9498225878924131, 1.0857473742216825, 1.2217600299045444, 1.3498735721223056, 1.509755244012922]",2612.9737997478805,None,2612.966301490087,2613.0661792182364,s189_11222022,001,2022_Nov_22_1427,test_typingtask_norepeats,2020.2.10,59.978718076087716,
zibja,zibja,,,,,,,,,0,1,1,1,,,,,,,,,,,,,,,2618.4827223680913,None,"['z', 'i', 'b', 'j', 'a']",1,"[1.1529409820213914, 1.2969377972185612, 1.5689329048618674, 1.784851442091167, 1.864835896063596]",2618.4827223680913,None,2618.483136044815,2618.582685634028,s189_11222022,001,2022_Nov_22_1427,test_typingtask_norepeats,2020.2.10,59.978718076087716,
druze,druze,,,,,,,,,0,2,2,2,,,,,,,,,,,,,,,2623.982533988077,None,"['d', 'r', 'u', 'z', 'e']",1,"[1.1170119401067495, 1.4371272530406713, 1.6051359460689127, 1.853064676746726, 2.141125334892422]",2623.982533988077,None,2623.9826196441427,2624.0827096598223,s189_11222022,001,2022_Nov_22_1427,test_typingtask_norepeats,2020.2.10,59.978718076087716,
vodka,vodka,,,,,,,,,0,3,3,3,,,,,,,,,,,,,,,2629.4830129048787,None,"['v', 'o', 'd', 'k', 'a']",1,"[0.8246604991145432, 0.9366472940891981, 1.456605326384306, 1.5765965622849762, 1.7285343930125237]",2629.4830129048787,None,2629.4825951000676,2629.5826722020283,s189_11222022,001,2022_Nov_22_1427,test_typingtask_norepeats,2020.2.10,59.978718076087716,
there,there,,,,,,,,,0,4,4,4,,,,,,,,,,,,,,,2634.9828644809313,None,"['t', 'h', 'e', 'r', 'e']",1,"[0.8847245462238789, 0.9807663760147989, 1.1247159424237907, 1.2207199721597135, 1.3728011921048164]",2634.9828644809313,None,2634.9824994117953,2635.082665548194,s189_11222022,001,2022_Nov_22_1427,test_typingtask_norepeats,2020.2.10,59.978718076087716,
druze,druze,,,,,,,,,0,5,5,5,,,,,,,,,,,,,,,2640.4830104308203,None,"['d', 'r', 'u', 'z', 'e']",1,"[0.6966450912877917, 0.9846242619678378, 1.1045329282060266, 1.3765575620345771, 1.6566014220006764]",2640.4830104308203,None,2640.48258123314,2640.5832208562642,s189_11222022,001,2022_Nov_22_1427,test_typingtask_norepeats,2020.2.10,59.978718076087716,
there,there,,,,,,,,,0,6,6,6,,,,,,,,,,,,,,,2645.982698361855,None,"['t', 'h', 'e', 'r', 'e']",1,"[0.6849575936794281, 0.7729757996276021, 0.9329241290688515, 1.0449389396235347, 1.1808897596783936]",2645.982698361855,None,2645.9826324312016,2646.0825843978673,s189_11222022,001,2022_Nov_22_1427,test_typingtask_norepeats,2020.2.10,59.978718076087716,
about,about,,,,,,,,,0,7,7,7,,,,,,,,,,,,,,,2651.4827837101184,None,"['a', 'b', 'o', 'u', 't']",1,"[0.7047738465480506, 0.8248761808499694, 1.0168780107051134, 1.0648786816745996, 1.2568304748274386]",2651.4827837101184,None,2651.4833419229835,2651.582606571261,s189_11222022,001,2022_Nov_22_1427,test_typingtask_norepeats,2020.2.10,59.978718076087716,
haole,haole,,,,,,,,,0,8,8,8,,,,,,,,,,,,,,,2656.9827407188714,None,"['h', 'a', 'o', 'l', 'e']",1,"[0.8449331829324365, 0.9729199931025505, 1.1408153362572193, 1.3408138528466225, 1.4288999270647764]",2656.9827407188714,None,2656.9827091330662,2657.0826416471973,s189_11222022,001,2022_Nov_22_1427,test_typingtask_norepeats,2020.2.10,59.978718076087716,
vanru,vanru,,,,,,,,,0,9,9,9,,,,,,,,,,,,,,,2662.4828798011877,None,"['v', 'a', 'n', 'r', 'u']",1,"[0.8727902737446129, 1.0086977616883814, 1.2566741346381605, 1.4566982807591558, 1.6006612749770284]",2662.4828798011877,None,2662.482673943974,2662.5826589679345,s189_11222022,001,2022_Nov_22_1427,test_typingtask_norepeats,2020.2.10,59.978718076087716,
belly,belly,,,,,,,,,0,10,10,10,,,,,,,,,,,,,,,2667.982759486884,None,"['b', 'e', 'l', 'l', 'y']",1,"[0.6849089502356946, 0.780819539912045, 0.9488501287996769, 1.1248915567994118, 1.3088013301603496]",2667.982759486884,None,2667.9827761887573,2668.082811299246,s189_11222022,001,2022_Nov_22_1427,test_typingtask_norepeats,2020.2.10,59.978718076087716,
edthe,edthe,,,,,,,,,0,11,11,11,,,,,,,,,,,,,,,2673.4826910980046,None,"['e', 'd', 't', 'h', 'e']",1,"[0.6889672800898552, 0.9209212730638683, 1.160955467261374, 1.2809305060654879, 1.4008628632873297]",2673.4826910980046,None,2673.4827693197876,2673.5828179218806,s189_11222022,001,2022_Nov_22_1427,test_typingtask_norepeats,2020.2.10,59.978718076087716,
pykka,pykka,,,,,,,,,0,12,12,12,,,,,,,,,,,,,,,2678.9826353662647,None,"['p', 'y', 'k', 'k', 'a']",1,"[0.8850547480396926, 1.1009052651934326, 1.4769457569345832, 1.6449917051941156, 1.7729829922318459]",2678.9826353662647,None,2678.9827730651014,2679.082861559931,s189_11222022,001,2022_Nov_22_1427,test_typingtask_norepeats,2020.2.10,59.978718076087716,
kremp,kremp,,,,,,,,,0,13,13,13,,,,,,,,,,,,,,,2684.482824153267,None,"['k', 'r', 'e', 'm', 'p']",1,"[0.8887843056581914, 1.136841322761029, 1.2248595748096704, 1.4328309749253094, 1.5847270167432725]",2684.482824153267,None,2684.4825911149383,2684.582659059204,s189_11222022,001,2022_Nov_22_1427,test_typingtask_norepeats,2020.2.10,59.978718076087716,
think,think,,,,,,,,,0,14,14,14,,,,,,,,,,,,,,,2689.9827598272823,None,"['t', 'h', 'i', 'n', 'k']",1,"[0.772932424210012, 0.8688496723771095, 1.0528549132868648, 1.2528767380863428, 1.4209020202979445]",2689.9827598272823,None,2689.9827809808776,2690.0828920109197,s189_11222022,001,2022_Nov_22_1427,test_typingtask_norepeats,2020.2.10,59.978718076087716,
there,there,,,,,,,,,0,15,15,15,,,,,,,,,,,,,,,2695.482800802216,None,"['t', 'h', 'e', 'r', 'e']",1,"[0.7608820381574333, 0.832856684923172, 1.0328629622235894, 1.1607998791150749, 1.2968622939661145]",2695.482800802216,None,2695.4827725440264,2695.5828213510104,s189_11222022,001,2022_Nov_22_1427,test_typingtask_norepeats,2020.2.10,59.978718076087716,
cooed,cooed,,,,,,,,,0,16,16,16,,,,,,,,,,,,,,,2700.9829512480646,None,"['c', 'o', 'o', 'e', 'd']",1,"[0.764595631044358, 0.9807118480093777, 1.1246020272374153, 1.2687117871828377, 1.4846531259827316]",2700.9829512480646,None,2700.9826904330403,2701.082981139887,s189_11222022,001,2022_Nov_22_1427,test_typingtask_norepeats,2020.2.10,59.978718076087716,
about,about,,,,,,,,,0,17,17,17,,,,,,,,,,,,,,,2706.4828922860324,None,"['a', 'b', 'o', 'u', 't']",1,"[0.7206731792539358, 0.8247787402942777, 1.0247276513837278, 1.096765585243702, 1.2807627692818642]",2706.4828922860324,None,2706.4825729727745,2706.583161827177,s189_11222022,001,2022_Nov_22_1427,test_typingtask_norepeats,2020.2.10,59.978718076087716,
cheer,cheer,,,,,,,,,0,18,18,18,,,,,,,,,,,,,,,2711.983102859929,None,"['c', 'h', 'e', 'e', 'r']",1,"[0.6524960449896753, 0.7884408920072019, 0.9564551147632301, 1.1565721360966563, 1.2924587917514145]",2711.983102859929,None,2711.9826372778043,2712.082596329041,s189_11222022,001,2022_Nov_22_1427,test_typingtask_norepeats,2020.2.10,59.978718076087716,
zibja,zibja,,,,,,,,,0,19,19,19,,,,,,,,,,,,,,,2717.4828770658933,None,"['z', 'i', 'b', 'j', 'a']",1,"[0.9046667711809278, 1.0727983680553734, 1.360676795244217, 1.600678704213351, 1.7207981762476265]",2717.4828770658933,None,2717.482741863001,2717.5828267028555,s189_11222022,001,2022_Nov_22_1427,test_typingtask_norepeats,2020.2.10,59.978718076087716,
haole,haole,,,,,,,,,0,20,20,20,,,,,,,,,,,,,,,2722.982701560948,None,"['h', 'a', 'o', 'l', 'e']",1,"[0.7729217079468071, 0.8928134087473154, 1.1808433188125491, 1.4128530956804752, 1.4849219247698784]",2722.982701560948,None,2722.9827795247547,2723.082554175984,s189_11222022,001,2022_Nov_22_1427,test_typingtask_norepeats,2020.2.10,59.978718076087716,
heond,heond,,,,,,,,,0,21,21,21,,,,,,,,,,,,,,,2728.482916650828,None,"['h', 'e', 'o', 'n', 'd']",1,"[0.7367320680059493, 0.864682394079864, 1.032700824085623, 1.2967407489195466, 1.5126848369836807]",2728.482916650828,None,2728.4829259850085,2728.5825964869,s189_11222022,001,2022_Nov_22_1427,test_typingtask_norepeats,2020.2.10,59.978718076087716,
tithe,tithe,,,,,,,,,0,22,22,22,,,,,,,,,,,,,,,2733.9829745730385,None,"['t', 'i', 't', 'h', 'e']",1,"[0.8206770340912044, 0.9166884119622409, 1.0925739030353725, 1.1966429697349668, 1.3566448651254177]",2733.9829745730385,None,2733.982857821975,2734.0830102218315,s189_11222022,001,2022_Nov_22_1427,test_typingtask_norepeats,2020.2.10,59.978718076087716,
champ,champ,,,,,,,,,0,23,23,23,,,,,,,,,,,,,,,2739.4833322488703,None,"['c', 'h', 'a', 'm', 'n', 'p']",0,"[0.6883485158905387, 0.7842179047875106, 0.9683256559073925, 1.0803202507086098, 1.0883163316175342, 1.352258734870702]",2739.4833322488703,None,2739.482974267099,2739.583325840067,s189_11222022,001,2022_Nov_22_1427,test_typingtask_norepeats,2020.2.10,59.978718076087716,
heond,heond,,,,,,,,,0,24,24,24,,,,,,,,,,,,,,,2744.99929688219,None,"['h', 'e', 'o', 'n', 'd']",1,"[0.7803241419605911, 0.9242718792520463, 1.0283511341549456, 1.2043635551817715, 1.3323187259957194]",2744.99929688219,None,2744.9993596407585,2745.0996202458628,s189_11222022,001,2022_Nov_22_1427,test_typingtask_norepeats,2020.2.10,59.978718076087716,
would,would,,,,,,,,,0,25,25,25,,,,,,,,,,,,,,,2750.4995568622835,None,"['w', 'o', 'u', 'l', 'd']",1,"[0.8400058359839022, 0.9839981491677463, 1.0561233758926392, 1.240065315272659, 1.4000973883084953]",2750.4995568622835,None,2750.499529035762,2750.5995481521823,s189_11222022,001,2022_Nov_22_1427,test_typingtask_norepeats,2020.2.10,59.978718076087716,
belly,belly,,,,,,,,,0,26,26,26,,,,,,,,,,,,,,,2755.99956959486,None,"['b', 'e', 'l', 'l', 'y']",1,"[0.7879735110327601, 0.8920407239347696, 1.043979223817587, 1.2280643777921796, 1.4040988478809595]",2755.99956959486,None,2755.9994686981663,2756.0994505002163,s189_11222022,001,2022_Nov_22_1427,test_typingtask_norepeats,2020.2.10,59.978718076087716,
therm,therm,,,,,,,,,0,27,27,27,,,,,,,,,,,,,,,2761.4997204821557,None,"['t', 'h', 'e', 'r', 'm']",1,"[0.9039445403032005, 1.0239324891008437, 1.183822558261454, 1.3199350303038955, 1.5118862139061093]",2761.4997204821557,None,2761.499340681825,2761.5994665510952,s189_11222022,001,2022_Nov_22_1427,test_typingtask_norepeats,2020.2.10,59.978718076087716,
puppy,puppy,,,,,,,,,0,28,28,28,,,,,,,,,,,,,,,2766.9995816759765,None,"['p', 'u', 'p', 'p', 'y']",1,"[0.764080467633903, 0.9160998337902129, 1.1160751567222178, 1.2759715649299324, 1.5081037660129368]",2766.9995816759765,None,2766.9994841329753,2767.0995940631256,s189_11222022,001,2022_Nov_22_1427,test_typingtask_norepeats,2020.2.10,59.978718076087716,
therm,therm,,,,,,,,,0,29,29,29,,,,,,,,,,,,,,,2772.499623663258,None,"['t', 'h', 'e', 'r', 'm']",1,"[0.7359926970675588, 0.8239951618015766, 0.9440290960483253, 1.064033946953714, 1.143912489991635]",2772.499623663258,None,2772.499567194842,2772.5994072449394,s189_11222022,001,2022_Nov_22_1427,test_typingtask_norepeats,2020.2.10,59.978718076087716,
heond,heond,,,,,,,,,0,30,30,30,,,,,,,,,,,,,,,2777.999675670173,None,"['h', 'e', 'o', 'n', 'd']",1,"[0.6359983491711318, 0.73198999511078, 0.8598878118209541, 1.027961595915258, 1.1479204469360411]",2777.999675670173,None,2777.9997172611766,2778.0993771301582,s189_11222022,001,2022_Nov_22_1427,test_typingtask_norepeats,2020.2.10,59.978718076087716,
puppy,puppy,,,,,,,,,0,31,31,31,,,,,,,,,,,,,,,2783.499992765952,None,"['p', 'u', 'p', 'p', 'y']",1,"[0.7116460870020092, 0.8796684769913554, 1.11170887760818, 1.2396698468364775, 1.4316653427667916]",2783.499992765952,None,2783.499769635964,2783.5995887499303,s189_11222022,001,2022_Nov_22_1427,test_typingtask_norepeats,2020.2.10,59.978718076087716,
vanru,vanru,,,,,,,,,0,32,32,32,,,,,,,,,,,,,,,2788.999687448144,None,"['v', 'a', 'n', 'r', 'u']",1,"[0.7959344638511539, 0.9159733508713543, 1.0838646898046136, 1.2838628478348255, 1.403939527925104]",2788.999687448144,None,2788.999770935159,2789.099717829842,s189_11222022,001,2022_Nov_22_1427,test_typingtask_norepeats,2020.2.10,59.978718076087716,
therm,therm,,,,,,,,,0,33,33,33,,,,,,,,,,,,,,,2794.4995313691907,None,"['t', 'h', 'e', 'r', 'm']",1,"[0.7680716519244015, 0.8640877287834883, 1.000101970974356, 1.1440062071196735, 1.2801019409671426]",2794.4995313691907,None,2794.499826664105,2794.599641712848,s189_11222022,001,2022_Nov_22_1427,test_typingtask_norepeats,2020.2.10,59.978718076087716,
puppy,puppy,,,,,,,,,0,34,34,34,,,,,,,,,,,,,,,2799.999703214038,None,"['p', 'u', 'p', 'p', 'y']",1,"[0.7719524269923568, 0.9319161209277809, 1.1399687970988452, 1.2999139870516956, 1.4519043690524995]",2799.999703214038,None,2799.999559291173,2800.0999925341457,s189_11222022,001,2022_Nov_22_1427,test_typingtask_norepeats,2020.2.10,59.978718076087716,
theme,theme,,,,,,,,,0,35,35,35,,,,,,,,,,,,,,,2805.4994317009114,None,"['t', 'h', 'e', 'm', 'e']",1,"[0.7281996626406908, 0.8322304086759686, 0.9761233739554882, 1.1122143608517945, 1.2401126897893846]",2805.4994317009114,None,2805.4996927757747,2805.599982968066,s189_11222022,001,2022_Nov_22_1427,test_typingtask_norepeats,2020.2.10,59.978718076087716,
druze,druze,,,,,,,,,0,36,36,36,,,,,,,,,,,,,,,2810.9994646571577,None,"['d', 'r', 'u', 'z', 'e']",1,"[0.6601331788115203, 0.9402042939327657, 1.084078943822533, 1.3481369488872588, 1.5801956108771265]",2810.9994646571577,None,2810.9995433301665,2811.099586692173,s189_11222022,001,2022_Nov_22_1427,test_typingtask_norepeats,2020.2.10,59.978718076087716,
zibja,zibja,,,,,,,,,0,37,37,37,,,,,,,,,,,,,,,2816.4994612368755,None,"['z', 'i', 'b', 'j', 'a']",1,"[0.9600929259322584, 1.1361511680297554, 1.3680942649953067, 1.5680965008214116, 1.7042016298510134]",2816.4994612368755,None,2816.4995088707656,2816.5996108492836,s189_11222022,001,2022_Nov_22_1427,test_typingtask_norepeats,2020.2.10,59.978718076087716,
theme,theme,,,,,,,,,0,38,38,38,,,,,,,,,,,,,,,2821.999602172058,None,"['t', 'h', 'e', 'm', 'e']",1,"[0.691987887956202, 0.7800220847129822, 0.9320609858259559, 1.0519565897993743, 1.18002370884642]",2821.999602172058,None,2821.999589946121,2822.099648253061,s189_11222022,001,2022_Nov_22_1427,test_typingtask_norepeats,2020.2.10,59.978718076087716,
cheer,cheer,,,,,,,,,0,39,39,39,,,,,,,,,,,,,,,2827.4996044700965,None,"['c', 'h', 'e', 'e', 'r']",1,"[0.6640426577068865, 0.800070121884346, 0.9599401257000864, 1.2240553079172969, 1.3760091629810631]",2827.4996044700965,None,2827.499580820091,2827.600187591277,s189_11222022,001,2022_Nov_22_1427,test_typingtask_norepeats,2020.2.10,59.978718076087716,
champ,champ,,,,,,,,,0,40,40,40,,,,,,,,,,,,,,,2832.9998243320733,None,"['c', 'h', 'a', 'm', 'p']",1,"[0.6837179833091795, 0.811817629262805, 0.9957384411245584, 1.0998349930159748, 1.259738472290337]",2832.9998243320733,None,2832.999347101897,2833.0996861620806,s189_11222022,001,2022_Nov_22_1427,test_typingtask_norepeats,2020.2.10,59.978718076087716,
haole,haole,,,,,,,,,0,41,41,41,,,,,,,,,,,,,,,2838.4997094362043,None,"['h', 'a', 'o', 'l', 'e']",1,"[0.703918881714344, 0.8159448797814548, 0.9518305859528482, 1.1438323557376862, 1.2319449339993298]",2838.4997094362043,None,2838.4994175941683,2838.599792129826,s189_11222022,001,2022_Nov_22_1427,test_typingtask_norepeats,2020.2.10,59.978718076087716,
edthe,edthe,,,,,,,,,0,42,42,42,,,,,,,,,,,,,,,2843.999947814271,None,"['e', 'd', 't', 'h', 'e']",1,"[0.7317110351286829, 0.9476101077161729, 1.2116677328012884, 1.3157172170467675, 1.4356762231327593]",2843.999947814271,None,2843.999986210838,2844.099904492963,s189_11222022,001,2022_Nov_22_1427,test_typingtask_norepeats,2020.2.10,59.978718076087716,
cooed,cooed,,,,,,,,,0,43,43,43,,,,,,,,,,,,,,,2849.4995755511336,None,"['c', 'o', 'o', 'e', 'd']",1,"[0.6640814659185708, 1.000055923126638, 1.167990901041776, 1.3200776888988912, 1.5040885829366744]",2849.4995755511336,None,2849.5000174799934,2849.599977840204,s189_11222022,001,2022_Nov_22_1427,test_typingtask_norepeats,2020.2.10,59.978718076087716,
about,about,,,,,,,,,0,44,44,44,,,,,,,,,,,,,,,2854.9998208149336,None,"['a', 'b', 'o', 'u', 't']",1,"[0.7158353491686285, 0.7957596122287214, 1.0038758213631809, 1.0518498281016946, 1.1797915953211486]",2854.9998208149336,None,2854.999749530107,2855.099472394213,s189_11222022,001,2022_Nov_22_1427,test_typingtask_norepeats,2020.2.10,59.978718076087716,
vanru,vanru,,,,,,,,,0,45,45,45,,,,,,,,,,,,,,,2860.4997616438195,None,"['v', 'a', 'n', 'r', 'u']",1,"[0.7358933920040727, 1.0158124878071249, 1.3757851258851588, 1.7437716480344534, 1.8558902679942548]",2860.4997616438195,None,2860.499700817745,2860.5997154591605,s189_11222022,001,2022_Nov_22_1427,test_typingtask_norepeats,2020.2.10,59.978718076087716,
faqir,faqir,,,,,,,,,0,46,46,46,,,,,,,,,,,,,,,2865.9996964852326,None,"['f', 'a', 'q', 'i', 'r']",1,"[0.9399728938005865, 1.0999259408563375, 1.4678513850085437, 1.6198995099402964, 1.7399629019200802]",2865.9996964852326,None,2865.999785398133,2866.099735210184,s189_11222022,001,2022_Nov_22_1427,test_typingtask_norepeats,2020.2.10,59.978718076087716,
edthe,edthe,,,,,,,,,0,47,47,47,,,,,,,,,,,,,,,2871.499622290954,None,"['e', 'd', 't', 'h', 'e']",1,"[0.7040309673175216, 0.9360001441091299, 1.1759173101745546, 1.272057285066694, 1.3839311781339347]",2871.499622290954,None,2871.499808392022,2871.5998457432725,s189_11222022,001,2022_Nov_22_1427,test_typingtask_norepeats,2020.2.10,59.978718076087716,
pykka,pykka,,,,,,,,,0,48,48,48,,,,,,,,,,,,,,,2876.999731609132,None,"['p', 'y', 'k', 'k', 'a']",1,"[0.8198928949423134, 1.0278525962494314, 1.299926077015698, 1.475882244296372, 1.5799577161669731]",2876.999731609132,None,2876.9997583990917,2877.099686201196,s189_11222022,001,2022_Nov_22_1427,test_typingtask_norepeats,2020.2.10,59.978718076087716,
heond,heond,,,,,,,,,0,49,49,49,,,,,,,,,,,,,,,2882.4995627808385,None,"['h', 'e', 'o', 'n', 'd']",1,"[0.7599999578669667, 0.896002774592489, 1.0080171786248684, 1.1760519589297473, 1.3040472837164998]",2882.4995627808385,None,2882.499731563963,2882.5998054770753,s189_11222022,001,2022_Nov_22_1427,test_typingtask_norepeats,2020.2.10,59.978718076087716,
lucky,lucky,,,,,,,,,0,50,50,50,,,,,,,,,,,,,,,2887.999568408821,None,"['l', 'u', 'c', 'k', 'y']",1,"[0.6679840688593686, 0.8360914140939713, 0.987972232978791, 1.084005057811737, 1.3001465569250286]",2887.999568408821,None,2887.999638303183,2888.0998580409214,s189_11222022,001,2022_Nov_22_1427,test_typingtask_norepeats,2020.2.10,59.978718076087716,
there,there,,,,,,,,,0,51,51,51,,,,,,,,,,,,,,,2893.4996953359805,None,"['t', 'h', 'e', 'r', 'e']",1,"[0.6718570180237293, 0.7438977439887822, 0.9198546917177737, 1.0478980708867311, 1.1759039140306413]",2893.4996953359805,None,2893.499790383037,2893.5995606118813,s189_11222022,001,2022_Nov_22_1427,test_typingtask_norepeats,2020.2.10,59.978718076087716,
haole,haole,,,,,,,,,0,52,52,52,,,,,,,,,,,,,,,2898.999670869205,None,"['h', 'a', 'o', 'l', 'e']",1,"[0.795909718144685, 0.8920065779238939, 1.03598938183859, 1.2279928401112556, 1.3560036849230528]",2898.999670869205,None,2898.9996787258424,2899.099991683848,s189_11222022,001,2022_Nov_22_1427,test_typingtask_norepeats,2020.2.10,59.978718076087716,
vodka,vodka,,,,,,,,,0,53,53,53,,,,,,,,,,,,,,,2904.5005399552174,None,"['v', 'o', 'd', 'k', 'a']",1,"[0.9270853199996054, 1.0550660630688071, 1.2950380663387477, 1.4391380553133786, 1.5830220580101013]",2904.5005399552174,None,2904.499813695904,2904.5994982221164,s189_11222022,001,2022_Nov_22_1427,test_typingtask_norepeats,2020.2.10,59.978718076087716,
tithe,tithe,,,,,,,,,0,54,54,54,,,,,,,,,,,,,,,2910.000607628841,None,"['t', 'i', 't', 'h', 'e']",1,"[1.1069611422717571, 1.2510507083497941, 1.4350174143910408, 1.5310447313822806, 1.715012967120856]",2910.000607628841,None,2909.9998131901957,2910.0995063842274,s189_11222022,001,2022_Nov_22_1427,test_typingtask_norepeats,2020.2.10,59.978718076087716,
pykka,pykka,,,,,,,,,0,55,55,55,,,,,,,,,,,,,,,2915.4998416472226,None,"['p', 'y', 'k', 'k', 'a']",1,"[0.7758017261512578, 0.9597094231285155, 1.239828493911773, 1.4317815280519426, 1.551811387296766]",2915.4998416472226,None,2915.4996488951147,2915.599752916023,s189_11222022,001,2022_Nov_22_1427,test_typingtask_norepeats,2020.2.10,59.978718076087716,
would,would,,,,,,,,,0,56,56,56,,,,,,,,,,,,,,,2920.9998975661583,None,"['w', 'o', 'u', 'l', 'd']",1,"[0.7076552687212825, 0.859665967989713, 0.9237766228616238, 1.0836566928774118, 1.1717530130408704]",2920.9998975661583,None,2920.999837844167,2921.099525310099,s189_11222022,001,2022_Nov_22_1427,test_typingtask_norepeats,2020.2.10,59.978718076087716,
edthe,edthe,,,,,,,,,0,57,57,57,,,,,,,,,,,,,,,2926.499972497113,None,"['e', 'd', 't', 'h', 'e']",1,"[0.7036307500675321, 1.2396382996812463, 1.4796904786489904, 1.58357873884961, 1.6875936416909099]",2926.499972497113,None,2926.5001250440255,2926.600183952134,s189_11222022,001,2022_Nov_22_1427,test_typingtask_norepeats,2020.2.10,59.978718076087716,
cheer,cheer,,,,,,,,,0,58,58,58,,,,,,,,,,,,,,,2931.9997971579432,None,"['c', 'h', 'e', 'e', 'r']",1,"[0.6677465080283582, 0.795805549249053, 0.9638783810660243, 1.147765832953155, 1.2758528050035238]",2931.9997971579432,None,2931.999917339068,2932.0997447888367,s189_11222022,001,2022_Nov_22_1427,test_typingtask_norepeats,2020.2.10,59.978718076087716,
vodka,vodka,,,,,,,,,0,59,59,59,,,,,,,,,,,,,,,2937.4999083718285,None,"['v', 'o', 'd', 'k', 'a']",1,"[0.9676540871150792, 1.1197590781375766, 1.2797376438975334, 1.423761549871415, 1.5997477802447975]",2937.4999083718285,None,2937.4996992377564,2937.5997806852683,s189_11222022,001,2022_Nov_22_1427,test_typingtask_norepeats,2020.2.10,59.978718076087716,
lucky,lucky,,,,,,,,,0,60,60,60,,,,,,,,,,,,,,,2942.999805728905,None,"['l', 'u', 'c', 'k', 'y']",1,"[0.6038702307268977, 0.7718670698814094, 0.8437779899686575, 0.9718644008971751, 1.1638581571169198]",2942.999805728905,None,2942.999779323116,2943.0998217822053,s189_11222022,001,2022_Nov_22_1427,test_typingtask_norepeats,2020.2.10,59.978718076087716,
kremp,kremp,,,,,,,,,0,61,61,61,,,,,,,,,,,,,,,2948.499718455132,None,"['k', 'r', 'e', 'm', 'p']",1,"[0.6079423809424043, 0.8718995521776378, 0.9758788789622486, 1.1118871849030256, 1.2639441969804466]",2948.499718455132,None,2948.499774008058,2948.599696029909,s189_11222022,001,2022_Nov_22_1427,test_typingtask_norepeats,2020.2.10,59.978718076087716,
buddy,buddy,,,,,,,,,0,62,62,62,,,,,,,,,,,,,,,2953.999756483827,None,"['b', 'u', 'd', 'd', 'y']",1,"[0.6999111878685653, 0.923803549259901, 1.0518978028558195, 1.2279218272306025, 1.3638663771562278]",2953.999756483827,None,2953.999815198127,2954.099676857237,s189_11222022,001,2022_Nov_22_1427,test_typingtask_norepeats,2020.2.10,59.978718076087716,
about,about,,,,,,,,,0,63,63,63,,,,,,,,,,,,,,,2959.5000448049977,None,"['a', 'b', 'o', 'u', 't']",1,"[0.6876257238909602, 0.7996098748408258, 0.9674965650774539, 1.0155439991503954, 1.1434977129101753]",2959.5000448049977,None,2959.500146563165,2959.6000740379095,s189_11222022,001,2022_Nov_22_1427,test_typingtask_norepeats,2020.2.10,59.978718076087716,
belly,belly,,,,,,,,,0,64,64,64,,,,,,,,,,,,,,,2964.9998553842306,None,"['b', 'e', 'l', 'l', 'y']",1,"[0.7317593740299344, 0.8197554280050099, 0.9797045961022377, 1.0917677260003984, 1.3078018352389336]",2964.9998553842306,None,2964.999773265794,2965.100227210205,s189_11222022,001,2022_Nov_22_1427,test_typingtask_norepeats,2020.2.10,59.978718076087716,
think,think,,,,,,,,,0,65,65,65,,,,,,,,,,,,,,,2970.4996705688536,None,"['t', 'h', 'i', 'n', 'k']",1,"[0.6718972860835493, 0.7359170732088387, 0.8879411229863763, 1.0399998710490763, 1.1759535833261907]",2970.4996705688536,None,2970.4997401409782,2970.6002631369047,s189_11222022,001,2022_Nov_22_1427,test_typingtask_norepeats,2020.2.10,59.978718076087716,
cooed,cooed,,,,,,,,,0,66,66,66,,,,,,,,,,,,,,,2975.999958771281,None,"['c', 'o', 'o', 'e', 'd']",1,"[0.6835922128520906, 0.8277151039801538, 0.9798729899339378, 1.0835928497835994, 1.2755950787104666]",2975.999958771281,None,2975.999628108926,2976.0998191768304,s189_11222022,001,2022_Nov_22_1427,test_typingtask_norepeats,2020.2.10,59.978718076087716,
therm,therm,,,,,,,,,0,67,67,67,,,,,,,,,,,,,,,2981.4999248939566,None,"['t', 'h', 'e', 'r', 'm']",1,"[0.7037403350695968, 0.7916926769539714, 0.9197318777441978, 1.0077493009157479, 1.127804139163345]",2981.4999248939566,None,2981.499706634786,2981.5998379839584,s189_11222022,001,2022_Nov_22_1427,test_typingtask_norepeats,2020.2.10,59.978718076087716,
tithe,tithe,,,,,,,,,0,68,68,68,,,,,,,,,,,,,,,2986.9999294090085,None,"['t', 'i', 't', 'h', 'e']",1,"[0.6997228562831879, 0.8197374884039164, 1.0036940593272448, 1.1637050723657012, 1.2756958692334592]",2986.9999294090085,None,2986.9997777608223,2987.0997538021766,s189_11222022,001,2022_Nov_22_1427,test_typingtask_norepeats,2020.2.10,59.978718076087716,
would,would,,,,,,,,,0,69,69,69,,,,,,,,,,,,,,,2992.499958286993,None,"['w', 'o', 'u', 'l', 'd']",1,"[0.7357023260556161, 0.8636748590506613, 0.9435860430821776, 1.1357008912600577, 1.1996986232697964]",2992.499958286993,None,2992.4998472440057,2992.59978323197,s189_11222022,001,2022_Nov_22_1427,test_typingtask_norepeats,2020.2.10,59.978718076087716,
druze,druze,,,,,,,,,0,70,70,70,,,,,,,,,,,,,,,2997.9999641692266,None,"['d', 'r', 'u', 'z', 'e']",1,"[0.6675840397365391, 0.9476327369920909, 1.0675823390483856, 1.3156877518631518, 1.5556535888463259]",2997.9999641692266,None,2997.9998608599417,2998.099628217984,s189_11222022,001,2022_Nov_22_1427,test_typingtask_norepeats,2020.2.10,59.978718076087716,
puppy,puppy,,,,,,,,,0,71,71,71,,,,,,,,,,,,,,,3003.4999888329767,None,"['p', 'u', 'p', 'p', 'y']",1,"[0.6795737906359136, 0.8475799625739455, 1.0316674588248134, 1.1916844225488603, 1.3755675358697772]",3003.4999888329767,None,3003.500012192875,3003.5997341512702,s189_11222022,001,2022_Nov_22_1427,test_typingtask_norepeats,2020.2.10,59.978718076087716,
druze,druze,,,,,,,,,0,72,72,72,,,,,,,,,,,,,,,3009.000138475094,None,"['d', 'r', 'u', 'z', 'e']",1,"[0.659418678842485, 0.9155137497000396, 0.9954009079374373, 1.2914235698990524, 1.6115442239679396]",3009.000138475094,None,3008.9999516019598,3009.0998998582363,s189_11222022,001,2022_Nov_22_1427,test_typingtask_norepeats,2020.2.10,59.978718076087716,
think,think,,,,,,,,,0,73,73,73,,,,,,,,,,,,,,,3014.499752496835,None,"['t', 'h', 'i', 'n', 'k']",1,"[0.7279503187164664, 0.8079111408442259, 0.9598070881329477, 1.0958069660700858, 1.247807607986033]",3014.499752496835,None,3014.500074983109,3014.599813974928,s189_11222022,001,2022_Nov_22_1427,test_typingtask_norepeats,2020.2.10,59.978718076087716,
therm,therm,,,,,,,,,0,74,74,74,,,,,,,,,,,,,,,3019.9999613468535,None,"['t', 'h', 'e', 'r', 'm']",1,"[0.7797321449033916, 0.8595839231275022, 0.9876687438227236, 1.091612797230482, 1.187588072847575]",3019.9999613468535,None,3019.9998901379295,3020.0999917951412,s189_11222022,001,2022_Nov_22_1427,test_typingtask_norepeats,2020.2.10,59.978718076087716,
cheer,cheer,,,,,,,,,0,75,75,75,,,,,,,,,,,,,,,3025.499767531175,None,"['c', 'h', 'e', 'e', 'e', 'r']",0,"[0.63984410231933, 0.7358931703492999, 0.8798825512640178, 1.0078455223701894, 1.5519152213819325, 1.7597855399362743]",3025.499767531175,None,3025.499808180146,3025.599987710826,s189_11222022,001,2022_Nov_22_1427,test_typingtask_norepeats,2020.2.10,59.978718076087716,
zibja,zibja,,,,,,,,,0,76,76,76,,,,,,,,,,,,,,,3030.99989984883,None,"['z', 'i', 'b', 'j', 'a']",1,"[1.123722668737173, 1.243651176802814, 1.475648629013449, 1.923772420734167, 2.083635421935469]",3030.99989984883,None,3030.999935394153,3031.1000055521727,s189_11222022,001,2022_Nov_22_1427,test_typingtask_norepeats,2020.2.10,59.978718076087716,
there,there,,,,,,,,,0,77,77,77,,,,,,,,,,,,,,,3036.499858480878,None,"['t', 'h', 'e', 'r', 'e']",1,"[0.7437684712931514, 0.8078224370256066, 0.999727597925812, 1.1038267649710178, 1.247783673927188]",3036.499858480878,None,3036.499820215162,3036.599998095073,s189_11222022,001,2022_Nov_22_1427,test_typingtask_norepeats,2020.2.10,59.978718076087716,
champ,champ,,,,,,,,,0,78,78,78,,,,,,,,,,,,,,,3041.9998812680133,None,"['c', 'h', 'a', 'm', 'p']",1,"[0.7237458238378167, 0.8277546218596399, 0.9397767707705498, 1.0917875808663666, 1.283685154747218]",3041.9998812680133,None,3041.999897853937,3042.0998282888904,s189_11222022,001,2022_Nov_22_1427,test_typingtask_norepeats,2020.2.10,59.978718076087716,
buddy,buddy,,,,,,,,,0,79,79,79,,,,,,,,,,,,,,,3047.500004372094,None,"['b', 'u', 'd', 'd', 'y']",1,"[0.6956700556911528, 0.9356563468463719, 1.0555463987402618, 1.1996515830978751, 1.359562617726624]",3047.500004372094,None,3047.499644489959,3047.599859411828,s189_11222022,001,2022_Nov_22_1427,test_typingtask_norepeats,2020.2.10,59.978718076087716,
think,think,,,,,,,,,0,80,80,80,,,,,,,,,,,,,,,3052.9999916790985,None,"['t', 'h', 'i', 'n', 'k']",1,"[0.6516888323239982, 0.7636700579896569, 0.9316468271426857, 1.1156238811090589, 1.3156334604136646]",3052.9999916790985,None,3052.9999069189653,3053.099911727011,s189_11222022,001,2022_Nov_22_1427,test_typingtask_norepeats,2020.2.10,59.978718076087716,
buddy,buddy,,,,,,,,,0,81,81,81,,,,,,,,,,,,,,,3058.500027669128,None,"['b', 'u', 'd', 'd', 'y']",1,"[0.7275470411404967, 0.9435778851620853, 1.0716304783709347, 1.2156608570367098, 1.3755867453292012]",3058.500027669128,None,3058.49969202606,3058.600127159152,s189_11222022,001,2022_Nov_22_1427,test_typingtask_norepeats,2020.2.10,59.978718076087716,
lucky,lucky,,,,,,,,,0,82,82,82,,,,,,,,,,,,,,,3063.999943299219,None,"['l', 'u', 'c', 'k', 'y']",1,"[0.643598391674459, 0.7876161029562354, 0.8756282129324973, 1.0036610928364098, 1.227742560673505]",3063.999943299219,None,3063.999974425882,3064.099706548266,s189_11222022,001,2022_Nov_22_1427,test_typingtask_norepeats,2020.2.10,59.978718076087716,
would,would,,,,,,,,,0,83,83,83,,,,,,,,,,,,,,,3069.4999961899593,None,"['w', 'o', 'u', 'l', 'd']",1,"[0.7196314721368253, 0.8796053817495704, 0.9675576230511069, 1.1436004918068647, 1.2316031940281391]",3069.4999961899593,None,3069.500502197072,3069.5999880721793,s189_11222022,001,2022_Nov_22_1427,test_typingtask_norepeats,2020.2.10,59.978718076087716,
faqir,faqir,,,,,,,,,0,84,84,84,,,,,,,,,,,,,,,3074.999961373862,None,"['f', 'a', 'q', 'i', 'r']",1,"[0.8116791020147502, 0.9556974601000547, 1.2836207118816674, 1.3877302259206772, 1.5077140112407506]",3074.999961373862,None,3074.999956701882,3075.099733258132,s189_11222022,001,2022_Nov_22_1427,test_typingtask_norepeats,2020.2.10,59.978718076087716,
haole,haole,,,,,,,,,0,85,85,85,,,,,,,,,,,,,,,3080.500069982838,None,"['h', 'a', 'o', 'l', 'e']",1,"[0.6954681570641696, 0.807596901897341, 0.9435179899446666, 1.1435296828858554, 1.2475798092782497]",3080.500069982838,None,3080.499801682774,3080.5999357472174,s189_11222022,001,2022_Nov_22_1427,test_typingtask_norepeats,2020.2.10,59.978718076087716,
lucky,lucky,,,,,,,,,0,86,86,86,,,,,,,,,,,,,,,3086.0002313060686,None,"['l', 'u', 'c', 'k', 'y']",1,"[0.6273692329414189, 0.7874060375615954, 0.9074463997967541, 1.0193684459663928, 1.2514102859422565]",3086.0002313060686,None,3086.0000325259753,3086.10003574891,s189_11222022,001,2022_Nov_22_1427,test_typingtask_norepeats,2020.2.10,59.978718076087716,
tithe,tithe,,,,,,,,,0,87,87,87,,,,,,,,,,,,,,,3091.49999982398,None,"['t', 'i', 't', 'h', 'e']",1,"[0.7116406070999801, 0.7996449451893568, 0.9916732790879905, 1.095633908174932, 1.1996517241932452]",3091.49999982398,None,3091.4999650851823,3091.600266678259,s189_11222022,001,2022_Nov_22_1427,test_typingtask_norepeats,2020.2.10,59.978718076087716,
edthe,edthe,,,,,,,,,0,88,88,88,,,,,,,,,,,,,,,3096.999938638881,None,"['e', 'd', 't', 'h', 'e']",1,"[0.7476588920690119, 0.9637196320109069, 1.219757185317576, 1.3477086653001606, 1.4436028460040689]",3096.999938638881,None,3097.0000897161663,3097.1003675130196,s189_11222022,001,2022_Nov_22_1427,test_typingtask_norepeats,2020.2.10,59.978718076087716,
faqir,faqir,,,,,,,,,0,89,89,89,,,,,,,,,,,,,,,3102.499937777873,None,"['f', 'a', 'q', 'i', 'r']",1,"[0.7516504717059433, 0.9037347310222685, 1.2796196178533137, 1.4316811468452215, 1.5596025227569044]",3102.499937777873,None,3102.499862760771,3102.6001752419397,s189_11222022,001,2022_Nov_22_1427,test_typingtask_norepeats,2020.2.10,59.978718076087716,
champ,champ,,,,,,,,,0,90,90,90,,,,,,,,,,,,,,,3107.999916075263,None,"['c', 'h', 'a', 'm', 'p']",1,"[0.7476695440709591, 0.8756972160190344, 1.0037599061615765, 1.147666823118925, 1.3796614361926913]",3107.999916075263,None,3108.000051444862,3108.0999871329404,s189_11222022,001,2022_Nov_22_1427,test_typingtask_norepeats,2020.2.10,59.978718076087716,
kremp,kremp,,,,,,,,,0,91,91,91,,,,,,,,,,,,,,,3113.4998287642375,None,"['k', 'r', 'e', 'm', 'p']",1,"[0.6638193652033806, 0.8478168942965567, 0.9437130400910974, 1.1277447789907455, 1.3038329989649355]",3113.4998287642375,None,3113.4999362858944,3113.600005939137,s189_11222022,001,2022_Nov_22_1427,test_typingtask_norepeats,2020.2.10,59.978718076087716,
faqir,faqir,,,,,,,,,0,92,92,92,,,,,,,,,,,,,,,3119.000319104176,None,"['f', 'q', 'r', 'i']",0,"[0.6993478718213737, 0.9953438150696456, 3.2432367666624486, 3.3472436838783324]",3119.000319104176,None,3118.9999526320025,3119.100414121058,s189_11222022,001,2022_Nov_22_1427,test_typingtask_norepeats,2020.2.10,59.978718076087716,
would,would,,,,,,,,,0,93,93,93,,,,,,,,,,,,,,,3124.5166383772157,None,"['w', 'o', 'u', 'l', 'd']",1,"[0.8550343690440059, 0.9589180368930101, 1.070907921064645, 1.2230290318839252, 1.3190214978531003]",3124.5166383772157,None,3124.5172224929556,3124.616568061989,s189_11222022,001,2022_Nov_22_1427,test_typingtask_norepeats,2020.2.10,59.978718076087716,
vanru,vanru,,,,,,,,,0,94,94,94,,,,,,,,,,,,,,,3130.016753003001,None,"['v', 'a', 'n', 'r', 'u']",1,"[1.0989732379093766, 1.1868896610103548, 1.3788530169986188, 1.5549211171455681, 1.6748059862293303]",3130.016753003001,None,3130.0167910540476,3130.116675395053,s189_11222022,001,2022_Nov_22_1427,test_typingtask_norepeats,2020.2.10,59.978718076087716,
faqir,faqir,,,,,,,,,0,95,95,95,,,,,,,,,,,,,,,3135.5169580769725,None,"['f', 'a', 'q', 'i', 'r']",1,"[0.6386553221382201, 1.278693768195808, 1.5746679650619626, 1.7987032430246472, 1.9746643882244825]",3135.5169580769725,None,3135.5167673928663,3135.616744223982,s189_11222022,001,2022_Nov_22_1427,test_typingtask_norepeats,2020.2.10,59.978718076087716,
theme,theme,,,,,,,,,0,96,96,96,,,,,,,,,,,,,,,3141.01668560924,None,"['t', 'h', 'e', 'm', 'e']",1,"[0.7389297098852694, 0.8029640321619809, 0.9549712440930307, 1.0829022168181837, 1.1949784900061786]",3141.01668560924,None,3141.016788512934,3141.1170929698274,s189_11222022,001,2022_Nov_22_1427,test_typingtask_norepeats,2020.2.10,59.978718076087716,
cooed,cooed,,,,,,,,,0,97,97,97,,,,,,,,,,,,,,,3146.5167965022847,None,"['c', 'o', 'o', 'e', 'd']",1,"[0.7587752738036215, 0.9188669701106846, 1.0788590568117797, 1.1748904529958963, 1.382808217778802]",3146.5167965022847,None,3146.5170821398497,3146.6168276872486,s189_11222022,001,2022_Nov_22_1427,test_typingtask_norepeats,2020.2.10,59.978718076087716,
vanru,vanru,,,,,,,,,0,98,98,98,,,,,,,,,,,,,,,3152.0166542590596,None,"['v', 'a', 'n', 'r', 'u']",1,"[0.7629462541081011, 0.8589449850842357, 1.1309916130267084, 1.4268912873230875, 1.5550158671103418]",3152.0166542590596,None,3152.016750810202,3152.116602391936,s189_11222022,001,2022_Nov_22_1427,test_typingtask_norepeats,2020.2.10,59.978718076087716,
vodka,vodka,,,,,,,,,0,99,99,99,,,,,,,,,,,,,,,3157.5168679510243,None,"['v', 'o', 'd', 'k', 'a']",1,"[1.046790586784482, 1.182744241785258, 1.3907580627128482, 1.510695087723434, 1.670776437036693]",3157.5168679510243,None,3157.5166226811707,3157.6170244249515,s189_11222022,001,2022_Nov_22_1427,test_typingtask_norepeats,2020.2.10,59.978718076087716,
cooed,cooed,,,,,,,,,0,100,100,100,,,,,,,,,,,,,,,3163.016680405941,None,"['c', 'o', 'o', 'e', 'd']",1,"[0.7389812939800322, 0.9068713579326868, 1.0749672930687666, 1.179000096861273, 1.3869749400764704]",3163.016680405941,None,3163.0166609119624,3163.116884164978,s189_11222022,001,2022_Nov_22_1427,test_typingtask_norepeats,2020.2.10,59.978718076087716,
theme,theme,,,,,,,,,0,101,101,101,,,,,,,,,,,,,,,3168.516867390834,None,"['t', 'h', 'e', 'm', 'e']",1,"[0.7987545821815729, 0.8947767340578139, 1.0307605830021203, 1.1827561799436808, 1.278767118230462]",3168.516867390834,None,3168.516999460757,3168.616737009026,s189_11222022,001,2022_Nov_22_1427,test_typingtask_norepeats,2020.2.10,59.978718076087716,
tithe,tithe,,,,,,,,,0,102,102,102,,,,,,,,,,,,,,,3174.0169660579413,None,"['t', 'i', 't', 'h', 'e']",1,"[0.7787020979449153, 0.9067119499668479, 1.0425907489843667, 1.178682065103203, 1.2906927298754454]",3174.0169660579413,None,3174.0166056570597,3174.1167445820756,s189_11222022,001,2022_Nov_22_1427,test_typingtask_norepeats,2020.2.10,59.978718076087716,
pykka,pykka,,,,,,,,,0,103,103,103,,,,,,,,,,,,,,,3179.517011167947,None,"['p', 'y', 'k', 'k', 'a']",1,"[0.7505324091762304, 0.9505480481311679, 1.310547238215804, 1.4705422190017998, 1.5106497602537274]",3179.517011167947,None,3179.516688520089,3179.616709101945,s189_11222022,001,2022_Nov_22_1427,test_typingtask_norepeats,2020.2.10,59.978718076087716,
theme,theme,,,,,,,,,0,104,104,104,,,,,,,,,,,,,,,3185.0169138470665,None,"['t', 'h', 'e', 'm', 'e']",1,"[0.7227438800036907, 0.78675931179896, 0.9706820510327816, 1.0987089308910072, 1.2027450888417661]",3185.0169138470665,None,3185.0167546081357,3185.116878475994,s189_11222022,001,2022_Nov_22_1427,test_typingtask_norepeats,2020.2.10,59.978718076087716,
pykka,pykka,,,,,,,,,0,105,105,105,,,,,,,,,,,,,,,3190.5170418270864,None,"['p', 'y', 'k', 'k', 'a']",1,"[0.7345042340457439, 0.9344958229921758, 1.3826185818761587, 1.52650913503021, 1.6385913789272308]",3190.5170418270864,None,3190.5166443511844,3190.6167117049918,s189_11222022,001,2022_Nov_22_1427,test_typingtask_norepeats,2020.2.10,59.978718076087716,
belly,belly,,,,,,,,,0,106,106,106,,,,,,,,,,,,,,,3196.016738634091,None,"['b', 'e', 'l', 'l', 'y']",1,"[0.8348630629479885, 0.9308677460066974, 1.0908279321156442, 1.2508015781641006, 1.4029170800931752]",3196.016738634091,None,3196.0167800639756,3196.116620778106,s189_11222022,001,2022_Nov_22_1427,test_typingtask_norepeats,2020.2.10,59.978718076087716,
buddy,buddy,,,,,,,,,0,107,107,107,,,,,,,,,,,,,,,3201.5167778148316,None,"['b', 'u', 'd', 'd', 'y']",1,"[0.7347718202508986, 0.9588560010306537, 1.1188786630518734, 1.270886710844934, 1.4147805790416896]",3201.5167778148316,None,3201.516726299189,3201.616653498262,s189_11222022,001,2022_Nov_22_1427,test_typingtask_norepeats,2020.2.10,59.978718076087716,
about,about,,,,,,,,,0,108,108,108,,,,,,,,,,,,,,,3207.0168751408346,None,"['a', 'b', 'o', 'u', 't']",1,"[0.7867537229321897, 0.9067581281997263, 1.1067827199585736, 1.154800252057612, 1.3147414070554078]",3207.0168751408346,None,3207.016772657167,3207.1167463199235,s189_11222022,001,2022_Nov_22_1427,test_typingtask_norepeats,2020.2.10,59.978718076087716,
zibja,zibja,,,,,,,,,0,109,109,109,,,,,,,,,,,,,,,3212.5166873931885,None,"['z', 'i', 'b', 'j', 'a']",1,"[1.2629003310576081, 1.4069840488955379, 1.6469664801843464, 1.846976038068533, 1.9428656999953091]",3212.5166873931885,None,3212.516791923903,3212.6167700490914,s189_11222022,001,2022_Nov_22_1427,test_typingtask_norepeats,2020.2.10,59.978718076087716,
kremp,kremp,,,,,,,,,0,110,110,110,,,,,,,,,,,,,,,3218.0169168468565,None,"['k', 'r', 'e', 'm', 'p']",1,"[1.1706834672950208, 1.418741294182837, 1.5146386423148215, 1.7067217752337456, 1.9066426809877157]",3218.0169168468565,None,3218.016881430056,3218.1169481510296,s189_11222022,001,2022_Nov_22_1427,test_typingtask_norepeats,2020.2.10,59.978718076087716,
belly,belly,,,,,,,,,0,111,111,111,,,,,,,,,,,,,,,3223.516845079139,None,"['b', 'e', 'l', 'l', 'y']",1,"[0.7347989417612553, 0.8627482117153704, 0.9907819149084389, 1.1587072489783168, 1.3188109998591244]",3223.516845079139,None,3223.5167974927463,3223.617156757042,s189_11222022,001,2022_Nov_22_1427,test_typingtask_norepeats,2020.2.10,59.978718076087716,
lucky,lucky,,,,,,,,,0,112,112,112,,,,,,,,,,,,,,,3229.0168113629334,None,"['l', 'u', 'c', 'k', 'y']",1,"[0.5787627017125487, 0.7548595597036183, 0.8267339807935059, 0.9708549627102911, 1.2427410488016903]",3229.0168113629334,None,3229.0169447069056,3229.1169870290905,s189_11222022,001,2022_Nov_22_1427,test_typingtask_norepeats,2020.2.10,59.978718076087716,
puppy,puppy,,,,,,,,,0,113,113,113,,,,,,,,,,,,,,,3234.516653696075,None,"['p', 'u', 'p', 'p', 'y']",1,"[0.7190091009251773, 0.8629055139608681, 1.0869765491224825, 1.231005537789315, 1.4310075137764215]",3234.516653696075,None,3234.516934831161,3234.6168565922417,s189_11222022,001,2022_Nov_22_1427,test_typingtask_norepeats,2020.2.10,59.978718076087716,
heond,heond,,,,,,,,,0,114,114,114,,,,,,,,,,,,,,,3240.0167489768937,None,"['h', 'e', 'o', 'n', 'd']",1,"[0.810856050811708, 0.9549166960641742, 1.0748727610334754, 1.2828666507266462, 1.394899076782167]",3240.0167489768937,None,3240.0167951388285,3240.1168207032606,s189_11222022,001,2022_Nov_22_1427,test_typingtask_norepeats,2020.2.10,59.978718076087716,
vodka,vodka,,,,,,,,,0,115,115,115,,,,,,,,,,,,,,,3245.5168631840497,None,"['v', 'o', 'd', 'k', 'a']",1,"[0.9908118802122772, 1.118805741891265, 1.3426856081932783, 1.4947794638574123, 1.6387093160301447]",3245.5168631840497,None,3245.5167262847535,3245.6167260580696,s189_11222022,001,2022_Nov_22_1427,test_typingtask_norepeats,2020.2.10,59.978718076087716,
cheer,cheer,,,,,,,,,0,116,116,116,,,,,,,,,,,,,,,3251.0170294921845,None,"['c', 'h', 'e', 'e', 'r']",1,"[0.6906294450163841, 0.7946137567050755, 0.9625293789431453, 1.1385941840708256, 1.2986263898201287]",3251.0170294921845,None,3251.016722364817,3251.1168676679954,s189_11222022,001,2022_Nov_22_1427,test_typingtask_norepeats,2020.2.10,59.978718076087716,
kremp,kremp,,,,,,,,,0,117,117,117,,,,,,,,,,,,,,,3256.5169720612466,None,"['k', 'r', 'e', 'm', 'p']",1,"[0.6546947937458754, 0.830695744138211, 0.9425853211432695, 1.07863531075418, 1.2787416577339172]",3256.5169720612466,None,3256.5168220479973,3256.6169078191742,s189_11222022,001,2022_Nov_22_1427,test_typingtask_norepeats,2020.2.10,59.978718076087716,
buddy,buddy,,,,,,,,,0,118,118,118,,,,,,,,,,,,,,,3262.0172154912725,None,"['b', 'u', 'd', 'd', 'y']",1,"[0.7864515162073076, 1.0103334463201463, 1.1143809570930898, 1.2584284613840282, 1.3944856831803918]",3262.0172154912725,None,3262.01724936394,3262.1170843248256,s189_11222022,001,2022_Nov_22_1427,test_typingtask_norepeats,2020.2.10,59.978718076087716,
think,think,,,,,,,,,0,119,119,119,,,,,,,,,,,,,,,3267.517075368203,None,"['t', 'h', 'i', 'n', 'k']",1,"[0.7424702672287822, 0.8384737791493535, 1.0064937211573124, 1.174554101191461, 1.3264665082097054]",3267.517075368203,None,3267.516981019173,3267.6167559819296,s189_11222022,001,2022_Nov_22_1427,test_typingtask_norepeats,2020.2.10,59.978718076087716,
