string,corrAns,practice_trials.thisRepN,practice_trials.thisTrialN,practice_trials.thisN,practice_trials.thisIndex,trials_1.thisRepN,trials_1.thisTrialN,trials_1.thisN,trials_1.thisIndex,trials_2.thisRepN,trials_2.thisTrialN,trials_2.thisN,trials_2.thisIndex,key_resp_0.keys,key_resp_0.corr,key_resp_0.rt,text_1.started,text_1.stopped,key_resp_1.keys,key_resp_1.corr,key_resp_1.rt,key_resp_1.started,key_resp_1.stopped,sound_1A_1.started,sound_1A_1.stopped,break_time.started,break_time.stopped,text_2.started,text_2.stopped,key_resp_2.keys,key_resp_2.corr,key_resp_2.rt,key_resp_2.started,key_resp_2.stopped,sound_1A_2.started,sound_1A_2.stopped,participant,session,date,expName,psychopyVersion,frameRate,
fresh,fresh,0,0,0,0,,,,,,,,,"['f', 'r', 'e', 's', 'h']",1,"[0.8126426408998668, 0.9326125276274979, 1.044686528854072, 1.2527276459150016, 1.3646730668842793]",,,,,,,,,,,,,,,,,,,,,s190_11222022,001,2022_Nov_22_1712,test_typingtask_norepeats,2020.2.10,59.92561214576589,
dream,dream,0,1,1,1,,,,,,,,,"['d', 'r', 'e', 'a', 'n', 'm']",0,"[0.7408762229606509, 0.9648203002288938, 1.068852768279612, 1.2049109460785985, 1.4048969289287925, 1.4128263113088906]",,,,,,,,,,,,,,,,,,,,,s190_11222022,001,2022_Nov_22_1712,test_typingtask_norepeats,2020.2.10,59.92561214576589,
slime,slime,0,2,2,2,,,,,,,,,"['s', 'l', 'i', 'm', 'e']",1,"[0.8325101239606738, 0.968402354978025, 1.2005100520327687, 1.3604391259141266, 1.4325107987970114]",,,,,,,,,,,,,,,,,,,,,s190_11222022,001,2022_Nov_22_1712,test_typingtask_norepeats,2020.2.10,59.92561214576589,
tithe,tithe,,,,,0,0,0,0,,,,,,,,817.57050461974,None,"['t', 'i', 't', 'h', 'e']",1,"[0.872079704888165, 1.0081114489585161, 1.1041229292750359, 1.2160976938903332, 1.296148044988513]",817.57050461974,None,817.5640458810143,817.6636956720613,,,,,,,,,,,,s190_11222022,001,2022_Nov_22_1712,test_typingtask_norepeats,2020.2.10,59.92561214576589,
about,about,,,,,0,1,1,1,,,,,,,,823.0813142578118,None,"['a', 'b', 'o', 'u', 't']",1,"[0.6093099950812757, 0.7613486810587347, 0.9053852939978242, 1.1372715742327273, 1.2492685662582517]",823.0813142578118,None,823.0801917981356,823.1814293880016,,,,,,,,,,,,s190_11222022,001,2022_Nov_22_1712,test_typingtask_norepeats,2020.2.10,59.92561214576589,
champ,champ,,,,,0,2,2,2,,,,,,,,828.5802151109092,None,"['c', 'h', 'a', 'm', 'p']",1,"[0.6865149070508778, 0.7904941407032311, 0.9024333129636943, 1.0224953177385032, 1.238491193857044]",828.5802151109092,None,828.5803784109652,828.6809255047701,,,,,,,,,,,,s190_11222022,001,2022_Nov_22_1712,test_typingtask_norepeats,2020.2.10,59.92561214576589,
pykka,pykka,,,,,0,3,3,3,,,,,,,,834.0803800560534,None,"['p', 'y', 'k', 'k', 'a']",1,"[0.7622984610497952, 0.9783282047137618, 1.2102010338567197, 1.3863353817723691, 1.5062738568522036]",834.0803800560534,None,834.0803160877898,834.1812602346763,,,,,,,,,,,,s190_11222022,001,2022_Nov_22_1712,test_typingtask_norepeats,2020.2.10,59.92561214576589,
vanru,vanru,,,,,0,4,4,4,,,,,,,,839.5828972398303,None,"['v', 'a', 'n', 'b', 'r', 'u']",0,"[0.8437494630925357, 0.9477309887297451, 1.1157098738476634, 1.1236759899184108, 1.2838149280287325, 1.4277778770774603]",839.5828972398303,None,839.5809267397038,839.6804909957573,,,,,,,,,,,,s190_11222022,001,2022_Nov_22_1712,test_typingtask_norepeats,2020.2.10,59.92561214576589,
vodka,vodka,,,,,0,5,5,5,,,,,,,,845.0974532170221,None,"['v', 'o', 'd', 'k', 'a']",1,"[0.8811503383331001, 1.0012963702902198, 1.1291435780003667, 1.329140464309603, 1.4171315282583237]",845.0974532170221,None,845.0970308837481,845.1974983490072,,,,,,,,,,,,s190_11222022,001,2022_Nov_22_1712,test_typingtask_norepeats,2020.2.10,59.92561214576589,
puppy,puppy,,,,,0,6,6,6,,,,,,,,850.5974686970003,None,"['p', 'u', 'p', 'p', 'y']",1,"[0.9011172251775861, 1.253204045817256, 1.373251344077289, 1.5171259897761047, 1.6291312421672046]",850.5974686970003,None,850.5967985508963,850.6974947117269,,,,,,,,,,,,s190_11222022,001,2022_Nov_22_1712,test_typingtask_norepeats,2020.2.10,59.92561214576589,
zibja,zibja,,,,,0,7,7,7,,,,,,,,856.0989283826202,None,"['z', 'i', 'b', 'j', 'a']",1,"[0.903737363871187, 1.0796644426882267, 1.263712571002543, 1.455739343073219, 1.5597549546509981]",856.0989283826202,None,856.0970655540935,856.1976185268722,,,,,,,,,,,,s190_11222022,001,2022_Nov_22_1712,test_typingtask_norepeats,2020.2.10,59.92561214576589,
cooed,cooed,,,,,0,8,8,8,,,,,,,,861.6137748747133,None,"['c', 'o', 'o', 'e', 'd']",1,"[0.7648128401488066, 0.8767993901856244, 1.0449025062844157, 1.4288463639095426, 1.6529306350275874]",861.6137748747133,None,861.6139067631215,861.7135900747962,,,,,,,,,,,,s190_11222022,001,2022_Nov_22_1712,test_typingtask_norepeats,2020.2.10,59.92561214576589,
think,think,,,,,0,9,9,9,,,,,,,,867.1137898899615,None,"['t', 'h', 'i', 'n', 'k']",1,"[0.6728169559501112, 0.7529330239631236, 0.936892312951386, 1.0809012399986386, 1.2729215421713889]",867.1137898899615,None,867.1138880817219,867.2136564017273,,,,,,,,,,,,s190_11222022,001,2022_Nov_22_1712,test_typingtask_norepeats,2020.2.10,59.92561214576589,
faqir,faqir,,,,,0,10,10,10,,,,,,,,872.6140171368606,None,"['f', 'a', 'q', 'i', 'r']",1,"[0.708551709074527, 0.8287171479314566, 1.132642013952136, 1.5326739032752812, 1.7245712941512465]",872.6140171368606,None,872.6139594270848,872.7135909567587,,,,,,,,,,,,s190_11222022,001,2022_Nov_22_1712,test_typingtask_norepeats,2020.2.10,59.92561214576589,
belly,belly,,,,,0,11,11,11,,,,,,,,878.113931006752,None,"['b', 'e', 'l', 'l', 'y']",1,"[0.648746008053422, 0.7527277087792754, 0.8887694007717073, 1.0487779611721635, 1.136782058980316]",878.113931006752,None,878.1135798251256,878.2136242999695,,,,,,,,,,,,s190_11222022,001,2022_Nov_22_1712,test_typingtask_norepeats,2020.2.10,59.92561214576589,
cooed,cooed,,,,,0,12,12,12,,,,,,,,883.6140008429065,None,"['c', 'o', 'o', 'e', 'd']",1,"[0.6607600380666554, 0.9646070706658065, 1.1327017457224429, 1.3086168356239796, 1.5247067618183792]",883.6140008429065,None,883.6137722987681,883.7138386429287,,,,,,,,,,,,s190_11222022,001,2022_Nov_22_1712,test_typingtask_norepeats,2020.2.10,59.92561214576589,
buddy,buddy,,,,,0,13,13,13,,,,,,,,889.1138083059341,None,"['b', 'u', 'd', 'd', 'y']",1,"[0.7209091517142951, 0.920903149060905, 1.0488962437957525, 1.2007843870669603, 1.3528506150469184]",889.1138083059341,None,889.1138268309645,889.2142959069461,,,,,,,,,,,,s190_11222022,001,2022_Nov_22_1712,test_typingtask_norepeats,2020.2.10,59.92561214576589,
therm,therm,,,,,0,14,14,14,,,,,,,,894.6138304458,None,"['t', 'h', 'e', 'r', 'm']",1,"[0.716743818949908, 0.852881982922554, 0.9727521450258791, 1.0767832761630416, 1.244864699896425]",894.6138304458,None,894.6138719940558,894.7138444730081,,,,,,,,,,,,s190_11222022,001,2022_Nov_22_1712,test_typingtask_norepeats,2020.2.10,59.92561214576589,
heond,heond,,,,,0,15,15,15,,,,,,,,900.1135976226069,None,"['h', 'e', 'o', 'n', 'd']",1,"[0.8411115002818406, 1.4810894201509655, 2.073106172028929, 2.305053527932614, 2.497074204031378]",900.1135976226069,None,900.1134019439108,900.2138542737812,,,,,,,,,,,,s190_11222022,001,2022_Nov_22_1712,test_typingtask_norepeats,2020.2.10,59.92561214576589,
vodka,vodka,,,,,0,16,16,16,,,,,,,,905.6135947629809,None,"['v', 'o', 'd', 'k', 'a']",1,"[0.8130602659657598, 0.9490696848370135, 1.0929936957545578, 1.3009994300082326, 1.3971444489434361]",905.6135947629809,None,905.6135973479599,905.7137534827925,,,,,,,,,,,,s190_11222022,001,2022_Nov_22_1712,test_typingtask_norepeats,2020.2.10,59.92561214576589,
belly,belly,,,,,0,17,17,17,,,,,,,,911.1137354536913,None,"['b', 'e', 'l', 'l', 'y']",1,"[0.648981039877981, 0.7289586388505995, 0.8648607390932739, 1.0329636689275503, 1.1449668570421636]",911.1137354536913,None,911.1138397051021,911.2139040529728,,,,,,,,,,,,s190_11222022,001,2022_Nov_22_1712,test_typingtask_norepeats,2020.2.10,59.92561214576589,
therm,therm,,,,,0,18,18,18,,,,,,,,916.6139033106156,None,"['t', 'h', 'e', 'r', 'm']",1,"[0.6367951077409089, 0.740746087860316, 0.8606767347082496, 0.9408082528971136, 1.0606831000186503]",916.6139033106156,None,916.6137763220817,916.7137315226719,,,,,,,,,,,,s190_11222022,001,2022_Nov_22_1712,test_typingtask_norepeats,2020.2.10,59.92561214576589,
theme,theme,,,,,0,19,19,19,,,,,,,,922.1137633547187,None,"['t', 'h', 'e', 'm', 'e']",1,"[0.6489078490994871, 0.752916653174907, 0.8728914079256356, 0.9768214328214526, 1.1128368629142642]",922.1137633547187,None,922.113622211013,922.2136155376211,,,,,,,,,,,,s190_11222022,001,2022_Nov_22_1712,test_typingtask_norepeats,2020.2.10,59.92561214576589,
there,there,,,,,0,20,20,20,,,,,,,,927.6139200460166,None,"['t', 'h', 'e', 'r', 'e']",1,"[0.6687933248467743, 0.7646749899722636, 0.8847784008830786, 0.9647158738225698, 1.1167719108052552]",927.6139200460166,None,927.6137782857753,927.7138548558578,,,,,,,,,,,,s190_11222022,001,2022_Nov_22_1712,test_typingtask_norepeats,2020.2.10,59.92561214576589,
champ,champ,,,,,0,21,21,21,,,,,,,,933.1138937477954,None,"['c', 'h', 'a', 'm', 'p']",1,"[0.7208295557647943, 0.8328158375807106, 0.96869539283216, 1.0807783156633377, 1.2967384969815612]",933.1138937477954,None,933.1137556918897,933.2137203929015,,,,,,,,,,,,s190_11222022,001,2022_Nov_22_1712,test_typingtask_norepeats,2020.2.10,59.92561214576589,
tithe,tithe,,,,,0,22,22,22,,,,,,,,938.6138794356957,None,"['t', 'i', 't', 'h', 'e']",1,"[0.7328372290357947, 0.8767425413243473, 1.00473217619583, 1.148777002003044, 1.244827888906002]",938.6138794356957,None,938.613941425085,938.7136043966748,,,,,,,,,,,,s190_11222022,001,2022_Nov_22_1712,test_typingtask_norepeats,2020.2.10,59.92561214576589,
cooed,cooed,,,,,0,23,23,23,,,,,,,,944.1138573256321,None,"['c', 'o', 'o', 'e', 'd']",1,"[0.7448695781640708, 1.0007266253232956, 1.1767195351421833, 1.3208502223715186, 1.5288604912348092]",944.1138573256321,None,944.1139916168526,944.2137146559544,,,,,,,,,,,,s190_11222022,001,2022_Nov_22_1712,test_typingtask_norepeats,2020.2.10,59.92561214576589,
kremp,kremp,,,,,0,24,24,24,,,,,,,,949.6139580677263,None,"['k', 'r', 'e', 'm', 'p']",1,"[0.8046286487951875, 0.9247505120001733, 1.0207455367781222, 1.1086569717153907, 1.332743036095053]",949.6139580677263,None,949.6140222140588,949.7140244720504,,,,,,,,,,,,s190_11222022,001,2022_Nov_22_1712,test_typingtask_norepeats,2020.2.10,59.92561214576589,
belly,belly,,,,,0,25,25,25,,,,,,,,955.1140486639924,None,"['b', 'e', 'l', 'l', 'y']",1,"[0.7046466069296002, 0.8005421729758382, 0.9206638261675835, 1.0806406410411, 1.2085454538464546]",955.1140486639924,None,955.1138816360384,955.213710218668,,,,,,,,,,,,s190_11222022,001,2022_Nov_22_1712,test_typingtask_norepeats,2020.2.10,59.92561214576589,
vanru,vanru,,,,,0,26,26,26,,,,,,,,960.6142874006182,None,"['v', 'a', 'n', 'r', 'u']",1,"[0.7003088849596679, 0.8043709378689528, 0.9403189057484269, 1.1243056040257215, 1.2763557061553001]",960.6142874006182,None,960.6139298790134,960.7139647216536,,,,,,,,,,,,s190_11222022,001,2022_Nov_22_1712,test_typingtask_norepeats,2020.2.10,59.92561214576589,
there,there,,,,,0,27,27,27,,,,,,,,966.1139067406766,None,"['t', 'h', 'e', 'r', 'e']",1,"[0.6566985687240958, 0.7607633359730244, 0.8886885298416018, 0.9447675398550928, 1.0967882489785552]",966.1139067406766,None,966.1140465280972,966.2140359766781,,,,,,,,,,,,s190_11222022,001,2022_Nov_22_1712,test_typingtask_norepeats,2020.2.10,59.92561214576589,
champ,champ,,,,,0,28,28,28,,,,,,,,971.6140312789939,None,"['c', 'h', 'a', 'm', 'p']",1,"[0.6206282349303365, 0.7566816280595958, 0.8526458800770342, 0.9966308730654418, 1.2206857167184353]",971.6140312789939,None,971.6140593347139,971.713916036766,,,,,,,,,,,,s190_11222022,001,2022_Nov_22_1712,test_typingtask_norepeats,2020.2.10,59.92561214576589,
edthe,edthe,,,,,0,29,29,29,,,,,,,,977.1138297468424,None,"['e', 'd', 't', 'h', 'e']",1,"[0.6888396958820522, 0.9209480159915984, 1.1368853677995503, 1.2968320599757135, 1.40075473068282]",977.1138297468424,None,977.1138203950599,977.2138557597063,,,,,,,,,,,,s190_11222022,001,2022_Nov_22_1712,test_typingtask_norepeats,2020.2.10,59.92561214576589,
faqir,faqir,,,,,0,30,30,30,,,,,,,,982.6138483169489,None,"['f', 'a', 'q', 'i', 'r']",1,"[0.7647876278497279, 0.884741737972945, 1.1728497366420925, 1.5888256030157208, 1.7407451840117574]",982.6138483169489,None,982.613932225015,982.713959433604,,,,,,,,,,,,s190_11222022,001,2022_Nov_22_1712,test_typingtask_norepeats,2020.2.10,59.92561214576589,
heond,heond,,,,,0,31,31,31,,,,,,,,988.113799860701,None,"['h', 'e', 'o', 'n', 'd']",1,"[0.808795616030693, 1.4648027960211039, 1.696914296131581, 1.976818302180618, 2.1288876342587173]",988.113799860701,None,988.1139341398142,988.213900601957,,,,,,,,,,,,s190_11222022,001,2022_Nov_22_1712,test_typingtask_norepeats,2020.2.10,59.92561214576589,
zibja,zibja,,,,,0,32,32,32,,,,,,,,993.613849141635,None,"['z', 'i', 'b', 'j', 'a']",1,"[0.8048376468941569, 0.9968343498185277, 1.1488439179956913, 1.3168597579933703, 1.4048554678447545]",993.613849141635,None,993.6138608079403,993.7138128769584,,,,,,,,,,,,s190_11222022,001,2022_Nov_22_1712,test_typingtask_norepeats,2020.2.10,59.92561214576589,
think,think,,,,,0,33,33,33,,,,,,,,999.114126982633,None,"['t', 'h', 'i', 'n', 'k']",1,"[0.7045336770825088, 0.7764699598774314, 0.9685853919945657, 1.0804952741600573, 1.2965923021547496]",999.114126982633,None,999.1136723999865,999.2140172487125,,,,,,,,,,,,s190_11222022,001,2022_Nov_22_1712,test_typingtask_norepeats,2020.2.10,59.92561214576589,
buddy,buddy,,,,,0,34,34,34,,,,,,,,1004.6139160096645,None,"['b', 'u', 'd', 'd', 'y']",1,"[0.6607118239626288, 0.8447491461411119, 0.9807527340017259, 1.1407752600498497, 1.284669938031584]",1004.6139160096645,None,1004.6138059069402,1004.7141037727706,,,,,,,,,,,,s190_11222022,001,2022_Nov_22_1712,test_typingtask_norepeats,2020.2.10,59.92561214576589,
kremp,kremp,,,,,0,35,35,35,,,,,,,,1010.1138379368931,None,"['k', 'r', 'e', 'm', 'p']",1,"[0.8327925042249262, 0.9607533998787403, 1.0328248948790133, 1.136947087943554, 1.3607551380991936]",1010.1138379368931,None,1010.1140082549304,1010.2137238248251,,,,,,,,,,,,s190_11222022,001,2022_Nov_22_1712,test_typingtask_norepeats,2020.2.10,59.92561214576589,
cooed,cooed,,,,,0,36,36,36,,,,,,,,1015.6140383887105,None,"['c', 'o', 'o', 'e', 'd']",1,"[0.7965825069695711, 0.9486213400959969, 1.1086722849868238, 1.244630386121571, 1.4845560612156987]",1015.6140383887105,None,1015.6139648487791,1015.7139878510498,,,,,,,,,,,,s190_11222022,001,2022_Nov_22_1712,test_typingtask_norepeats,2020.2.10,59.92561214576589,
would,would,,,,,0,37,37,37,,,,,,,,1021.1140623707324,None,"['w', 'o', 'u', 'l', 'd']",1,"[0.7605353137478232, 0.8566444809548557, 1.1046481728553772, 1.3686496708542109, 1.5125569547526538]",1021.1140623707324,None,1021.1138951458037,1021.213908188045,,,,,,,,,,,,s190_11222022,001,2022_Nov_22_1712,test_typingtask_norepeats,2020.2.10,59.92561214576589,
theme,theme,,,,,0,38,38,38,,,,,,,,1026.6137682166882,None,"['t', 'h', 'e', 'm', 'e']",1,"[0.6768193640746176, 0.7968717250041664, 0.9648406729102135, 1.0768552040681243, 1.2209116369485855]",1026.6137682166882,None,1026.6139692110942,1026.7139586028643,,,,,,,,,,,,s190_11222022,001,2022_Nov_22_1712,test_typingtask_norepeats,2020.2.10,59.92561214576589,
therm,therm,,,,,0,39,39,39,,,,,,,,1032.113844582811,None,"['t', 'h', 'e', 'r', 'm']",1,"[0.7208691411651671, 0.8567622099071741, 0.97675192495808, 1.0647552190348506, 1.2568701300770044]",1032.113844582811,None,1032.1140038181097,1032.214159775991,,,,,,,,,,,,s190_11222022,001,2022_Nov_22_1712,test_typingtask_norepeats,2020.2.10,59.92561214576589,
edthe,edthe,,,,,0,40,40,40,,,,,,,,1037.613962820731,None,"['e', 'd', 't', 'h', 'e']",1,"[0.6606527520343661, 0.8847201680764556, 1.0687197437509894, 1.2207585307769477, 1.3407084229402244]",1037.613962820731,None,1037.6140491120518,1037.7138680396602,,,,,,,,,,,,s190_11222022,001,2022_Nov_22_1712,test_typingtask_norepeats,2020.2.10,59.92561214576589,
cooed,cooed,,,,,0,41,41,41,,,,,,,,1043.1139645767398,None,"['c', 'o', 'o', 'e', 'd']",1,"[0.7687425259500742, 0.9527106089517474, 1.1287833591923118, 1.2487039812840521, 1.4726464161649346]",1043.1139645767398,None,1043.1138885078021,1043.2140275607817,,,,,,,,,,,,s190_11222022,001,2022_Nov_22_1712,test_typingtask_norepeats,2020.2.10,59.92561214576589,
lucky,lucky,,,,,0,42,42,42,,,,,,,,1048.6138951908797,None,"['l', 'u', 'c', 'k', 'y']",1,"[0.7967846062965691, 1.2288495190441608, 1.4207751471549273, 1.6047561839222908, 1.74069653917104]",1048.6138951908797,None,1048.6139078099282,1048.7142988080159,,,,,,,,,,,,s190_11222022,001,2022_Nov_22_1712,test_typingtask_norepeats,2020.2.10,59.92561214576589,
belly,belly,,,,,0,43,43,43,,,,,,,,1054.1139682489447,None,"['b', 'e', 'l', 'l', 'y']",1,"[0.6407310268841684, 0.752744949888438, 0.8726773131638765, 1.0247400952503085, 1.1527473852038383]",1054.1139682489447,None,1054.1140204049648,1054.2139783678576,,,,,,,,,,,,s190_11222022,001,2022_Nov_22_1712,test_typingtask_norepeats,2020.2.10,59.92561214576589,
about,about,,,,,0,44,44,44,,,,,,,,1059.613876703661,None,"['a', 'b', 'o', 'u', 't']",1,"[0.5568182063288987, 0.7248223721981049, 0.8528023320250213, 1.0847126790322363, 1.204776578117162]",1059.613876703661,None,1059.6140501458199,1059.7144335550256,,,,,,,,,,,,s190_11222022,001,2022_Nov_22_1712,test_typingtask_norepeats,2020.2.10,59.92561214576589,
champ,champ,,,,,0,45,45,45,,,,,,,,1065.114044864662,None,"['c', 'h', 'a', 'm', 'p']",1,"[0.6566290128976107, 0.7686687367968261, 0.8726101028732955, 1.032654075883329, 1.2326442836783826]",1065.114044864662,None,1065.1139795226977,1065.2139097577892,,,,,,,,,,,,s190_11222022,001,2022_Nov_22_1712,test_typingtask_norepeats,2020.2.10,59.92561214576589,
pykka,pykka,,,,,0,46,46,46,,,,,,,,1070.614072111901,None,"['p', 'y', 'k', 'k', 'a']",1,"[0.7565156095661223, 0.9885207326151431, 1.212547600734979, 1.3725528488866985, 1.4926112508401275]",1070.614072111901,None,1070.6138347509318,1070.714506200049,,,,,,,,,,,,s190_11222022,001,2022_Nov_22_1712,test_typingtask_norepeats,2020.2.10,59.92561214576589,
lucky,lucky,,,,,0,47,47,47,,,,,,,,1076.1140516237356,None,"['l', 'u', 'c', 'k', 'y']",1,"[0.7045487221330404, 0.9685979438945651, 1.1526654758490622, 1.2885592677630484, 1.440598031040281]",1076.1140516237356,None,1076.1138664587402,1076.2140834890306,,,,,,,,,,,,s190_11222022,001,2022_Nov_22_1712,test_typingtask_norepeats,2020.2.10,59.92561214576589,
puppy,puppy,,,,,0,48,48,48,,,,,,,,1081.6141346590593,None,"['p', 'u', 'p', 'p', 'y']",1,"[0.8844543541781604, 1.1165314889512956, 1.276440436951816, 1.4285898320376873, 1.6046190201304853]",1081.6141346590593,None,1081.614056484867,1081.7137682889588,,,,,,,,,,,,s190_11222022,001,2022_Nov_22_1712,test_typingtask_norepeats,2020.2.10,59.92561214576589,
theme,theme,,,,,0,49,49,49,,,,,,,,1087.1139611117542,None,"['t', 'h', 'e', 'm', 'e']",1,"[0.6807221248745918, 0.7766320551745594, 0.9287580349482596, 1.0167612629011273, 1.184622841887176]",1087.1139611117542,None,1087.114134831913,1087.2138984496705,,,,,,,,,,,,s190_11222022,001,2022_Nov_22_1712,test_typingtask_norepeats,2020.2.10,59.92561214576589,
puppy,puppy,,,,,0,50,50,50,,,,,,,,1092.6141179637052,None,"['p', 'u', 'p', 'p', 'y']",1,"[0.724528850056231, 1.020637326873839, 1.1485760137438774, 1.2924640430137515, 1.4205587510950863]",1092.6141179637052,None,1092.6142281257548,1092.7142770919017,,,,,,,,,,,,s190_11222022,001,2022_Nov_22_1712,test_typingtask_norepeats,2020.2.10,59.92561214576589,
therm,therm,,,,,0,51,51,51,,,,,,,,1098.1142226499505,None,"['t', 'h', 'e', 'r', 'm']",1,"[0.6164667936973274, 0.7443965435959399, 0.8563943118788302, 0.9284788756631315, 1.0563619616441429]",1098.1142226499505,None,1098.1141530117952,1098.2140329610556,,,,,,,,,,,,s190_11222022,001,2022_Nov_22_1712,test_typingtask_norepeats,2020.2.10,59.92561214576589,
druze,druze,,,,,0,52,52,52,,,,,,,,1103.6141444859095,None,"['d', 'r', 'u', 'z', 'z', 'e']",0,"[0.6444622944109142, 0.8844251492992043, 1.0445580333471298, 1.1644665454514325, 1.5805311310105026, 1.868550951126963]",1103.6141444859095,None,1103.6140596150422,1103.7141261459328,,,,,,,,,,,,s190_11222022,001,2022_Nov_22_1712,test_typingtask_norepeats,2020.2.10,59.92561214576589,
buddy,buddy,,,,,0,53,53,53,,,,,,,,1109.1140391668305,None,"['b', 'u', 'd', 'd', 'y']",1,"[0.6726199453696609, 0.8166048731654882, 0.9366831872612238, 1.1125597362406552, 1.224675499368459]",1109.1140391668305,None,1109.1141410270707,1109.214271120727,,,,,,,,,,,,s190_11222022,001,2022_Nov_22_1712,test_typingtask_norepeats,2020.2.10,59.92561214576589,
about,about,,,,,0,54,54,54,,,,,,,,1114.6140371509828,None,"['a', 'b', 'o', 'u', 't']",1,"[0.524669845122844, 0.7005330980755389, 0.7965893382206559, 1.0206513749435544, 1.164609779138118]",1114.6140371509828,None,1114.614234285988,1114.7140171919018,,,,,,,,,,,,s190_11222022,001,2022_Nov_22_1712,test_typingtask_norepeats,2020.2.10,59.92561214576589,
kremp,kremp,,,,,0,55,55,55,,,,,,,,1120.1140392096713,None,"['k', 'r', 'e', 'm', 'p']",1,"[0.9765510330908, 1.1686238530091941, 1.2486626263707876, 1.448652237188071, 1.6326535413973033]",1120.1140392096713,None,1120.1139826109634,1120.214060259983,,,,,,,,,,,,s190_11222022,001,2022_Nov_22_1712,test_typingtask_norepeats,2020.2.10,59.92561214576589,
therm,therm,,,,,0,56,56,56,,,,,,,,1125.6138806939125,None,"['t', 'h', 'e', 'r', 'm']",1,"[0.6287944680079818, 0.7408599657937884, 0.8687133197672665, 0.948813293594867, 1.0767215685918927]",1125.6138806939125,None,1125.6139589847066,1125.7144594416022,,,,,,,,,,,,s190_11222022,001,2022_Nov_22_1712,test_typingtask_norepeats,2020.2.10,59.92561214576589,
theme,theme,,,,,0,57,57,57,,,,,,,,1131.1138613186777,None,"['t', 'h', 'e', 'm', 'e']",1,"[0.6488001388497651, 0.7368566249497235, 0.8727976311929524, 1.016833066008985, 1.1288417652249336]",1131.1138613186777,None,1131.1140583950096,1131.2140181879513,,,,,,,,,,,,s190_11222022,001,2022_Nov_22_1712,test_typingtask_norepeats,2020.2.10,59.92561214576589,
about,about,,,,,0,58,58,58,,,,,,,,1136.6140632578172,None,"['a', 'b', 'o', 'u', 't']",1,"[0.5486431373283267, 0.7245751400478184, 0.8526049591600895, 1.0845232461579144, 1.228605680167675]",1136.6140632578172,None,1136.6140905801208,1136.7146296850406,,,,,,,,,,,,s190_11222022,001,2022_Nov_22_1712,test_typingtask_norepeats,2020.2.10,59.92561214576589,
champ,champ,,,,,0,59,59,59,,,,,,,,1142.1142302900553,None,"['c', 'h', 'a', 'm', 'p']",1,"[0.6403463231399655, 0.7603598451241851, 0.8723748391494155, 1.0164648070931435, 1.2644544150680304]",1142.1142302900553,None,1142.1140821148642,1142.2145046079531,,,,,,,,,,,,s190_11222022,001,2022_Nov_22_1712,test_typingtask_norepeats,2020.2.10,59.92561214576589,
zibja,zibja,,,,,0,60,60,60,,,,,,,,1147.6141968308948,None,"['z', 'i', 'b', 'j', 'a']",1,"[0.7564585590735078, 0.9643970993347466, 1.2683814140036702, 1.9085427979007363, 2.180501247290522]",1147.6141968308948,None,1147.614232036844,1147.7141506490298,,,,,,,,,,,,s190_11222022,001,2022_Nov_22_1712,test_typingtask_norepeats,2020.2.10,59.92561214576589,
vanru,vanru,,,,,0,61,61,61,,,,,,,,1153.114074616693,None,"['v', 'a', 'n', 'r', 'u']",1,"[0.9446103852242231, 1.072640473023057, 1.2486225822940469, 1.408624473027885, 1.576516364235431]",1153.114074616693,None,1153.1144361538813,1153.2140466519631,,,,,,,,,,,,s190_11222022,001,2022_Nov_22_1712,test_typingtask_norepeats,2020.2.10,59.92561214576589,
think,think,,,,,0,62,62,62,,,,,,,,1158.6140690539032,None,"['t', 'h', 'i', 'n', 'k']",1,"[0.7086463491432369, 0.7805380350910127, 0.9886391842737794, 1.1405361439101398, 1.356650108937174]",1158.6140690539032,None,1158.6141195926816,1158.7139019840397,,,,,,,,,,,,s190_11222022,001,2022_Nov_22_1712,test_typingtask_norepeats,2020.2.10,59.92561214576589,
about,about,,,,,0,63,63,63,,,,,,,,1164.1142076230608,None,"['a', 'b', 'o', 'u', 't']",1,"[0.4964920817874372, 0.6404997389763594, 0.7284459159709513, 0.9444997571408749, 1.0964930336922407]",1164.1142076230608,None,1164.1142556328327,1164.2142745177262,,,,,,,,,,,,s190_11222022,001,2022_Nov_22_1712,test_typingtask_norepeats,2020.2.10,59.92561214576589,
pykka,pykka,,,,,0,64,64,64,,,,,,,,1169.6160028278828,None,"['p', 'y', 'k', 'k', 'a']",1,"[0.7226507500745356, 0.9546528873033822, 1.2025721832178533, 1.370701472274959, 1.490706714335829]",1169.6160028278828,None,1169.615061289724,1169.714106601663,,,,,,,,,,,,s190_11222022,001,2022_Nov_22_1712,test_typingtask_norepeats,2020.2.10,59.92561214576589,
would,would,,,,,0,65,65,65,,,,,,,,1175.1307279807515,None,"['w', 'o', 'u', 'l', 'd']",1,"[0.6159456023015082, 0.7039865739643574, 0.9359573591500521, 1.1919632912613451, 1.3039480992592871]",1175.1307279807515,None,1175.1306603319013,1175.2311145388521,,,,,,,,,,,,s190_11222022,001,2022_Nov_22_1712,test_typingtask_norepeats,2020.2.10,59.92561214576589,
vodka,vodka,,,,,0,66,66,66,,,,,,,,1180.630666472949,None,"['v', 'o', 'd', 'k', 'a']",1,"[0.7959684329107404, 0.9479715009219944, 1.1319869491271675, 1.347922925837338, 1.4599337191320956]",1180.630666472949,None,1180.6307790159249,1180.7309134448878,,,,,,,,,,,,s190_11222022,001,2022_Nov_22_1712,test_typingtask_norepeats,2020.2.10,59.92561214576589,
zibja,zibja,,,,,0,67,67,67,,,,,,,,1186.1307746898383,None,"['z', 'i', 'b', 'j', 'a']",1,"[1.0879677361808717, 1.3838110300712287, 1.5280213323421776, 1.7758326344192028, 1.9039377933368087]",1186.1307746898383,None,1186.1308894838207,1186.2308832700364,,,,,,,,,,,,s190_11222022,001,2022_Nov_22_1712,test_typingtask_norepeats,2020.2.10,59.92561214576589,
there,there,,,,,0,68,68,68,,,,,,,,1191.630989654921,None,"['t', 'h', 'e', 'r', 'e']",1,"[0.739601971115917, 0.851713193114847, 0.9636869211681187, 1.019727713894099, 1.1637069480493665]",1191.630989654921,None,1191.6309303977528,1191.730781275779,,,,,,,,,,,,s190_11222022,001,2022_Nov_22_1712,test_typingtask_norepeats,2020.2.10,59.92561214576589,
puppy,puppy,,,,,0,69,69,69,,,,,,,,1197.1309157069772,None,"['p', 'u', 'p', 'p', 'y']",1,"[0.8877516901120543, 1.2157433130778372, 1.3596727750264108, 1.5118054351769388, 1.6397780403494835]",1197.1309157069772,None,1197.130652654078,1197.2307334840298,,,,,,,,,,,,s190_11222022,001,2022_Nov_22_1712,test_typingtask_norepeats,2020.2.10,59.92561214576589,
edthe,edthe,,,,,0,70,70,70,,,,,,,,1202.63075780496,None,"['e', 'd', 't', 'h', 'e']",1,"[0.7238927339203656, 0.971886717248708, 1.1798812788911164, 1.3399614640511572, 1.4359020991250873]",1202.63075780496,None,1202.6306845537388,1202.7308870446868,,,,,,,,,,,,s190_11222022,001,2022_Nov_22_1712,test_typingtask_norepeats,2020.2.10,59.92561214576589,
druze,druze,,,,,0,71,71,71,,,,,,,,1208.1307207779028,None,"['d', 'r', 'u', 'z', 'e']",1,"[0.6959062917158008, 0.919993151910603, 1.1199487787671387, 1.2239505546167493, 1.4959365339018404]",1208.1307207779028,None,1208.1307789889165,1208.2307261000387,,,,,,,,,,,,s190_11222022,001,2022_Nov_22_1712,test_typingtask_norepeats,2020.2.10,59.92561214576589,
there,there,,,,,0,72,72,72,,,,,,,,1213.6308303386904,None,"['t', 'h', 'e', 'r', 'e']",1,"[0.6437818738631904, 0.7717742389068007, 0.8837585370056331, 0.979856148827821, 1.1237635971046984]",1213.6308303386904,None,1213.6308048107662,1213.7306496016681,,,,,,,,,,,,s190_11222022,001,2022_Nov_22_1712,test_typingtask_norepeats,2020.2.10,59.92561214576589,
lucky,lucky,,,,,0,73,73,73,,,,,,,,1219.1310231718235,None,"['l', 'u', 'c', 'k', 'y']",1,"[0.8475536578334868, 1.1276099891401827, 1.28766898997128, 1.4796239621937275, 1.6075718882493675]",1219.1310231718235,None,1219.1309093168006,1219.2308446709067,,,,,,,,,,,,s190_11222022,001,2022_Nov_22_1712,test_typingtask_norepeats,2020.2.10,59.92561214576589,
haole,haole,,,,,0,74,74,74,,,,,,,,1224.6310433838516,None,"['h', 'a', 'o', 'l', 'e']",1,"[0.6835610121488571, 0.8196725002489984, 1.0356754530221224, 1.2675495170988142, 1.3797036493197083]",1224.6310433838516,None,1224.6308495338076,1224.730991025921,,,,,,,,,,,,s190_11222022,001,2022_Nov_22_1712,test_typingtask_norepeats,2020.2.10,59.92561214576589,
kremp,kremp,,,,,0,75,75,75,,,,,,,,1230.1307526309974,None,"['k', 'r', 'e', 'm', 'p']",1,"[0.9678338011726737, 1.0878950422629714, 1.167846686206758, 1.2959213671274483, 1.5199743350967765]",1230.1307526309974,None,1230.13083714908,1230.2308056266047,,,,,,,,,,,,s190_11222022,001,2022_Nov_22_1712,test_typingtask_norepeats,2020.2.10,59.92561214576589,
pykka,pykka,,,,,0,76,76,76,,,,,,,,1235.6310021369718,None,"['p', 'y', 'k', 'k', 'a']",1,"[0.8675910448655486, 1.0675875837914646, 1.3077104962430894, 1.47558199102059, 1.603717387188226]",1235.6310021369718,None,1235.6309645037168,1235.7308778059669,,,,,,,,,,,,s190_11222022,001,2022_Nov_22_1712,test_typingtask_norepeats,2020.2.10,59.92561214576589,
vodka,vodka,,,,,0,77,77,77,,,,,,,,1241.1309268218465,None,"['v', 'o', 'd', 'k', 'a']",1,"[0.8076779912225902, 0.9756654100492597, 1.1437239842489362, 1.3277234970591962, 1.43978616502136]",1241.1309268218465,None,1241.1309620007873,1241.2312993030064,,,,,,,,,,,,s190_11222022,001,2022_Nov_22_1712,test_typingtask_norepeats,2020.2.10,59.92561214576589,
haole,haole,,,,,0,78,78,78,,,,,,,,1246.630897210911,None,"['h', 'a', 'o', 'l', 'e']",1,"[0.8436870141886175, 1.0278359721414745, 1.1878353389911354, 1.4118141359649599, 1.5078008309938014]",1246.630897210911,None,1246.631431117747,1246.7310401727445,,,,,,,,,,,,s190_11222022,001,2022_Nov_22_1712,test_typingtask_norepeats,2020.2.10,59.92561214576589,
faqir,faqir,,,,,0,79,79,79,,,,,,,,1252.1307677347213,None,"['f', 'a', 'q', 'i', 'r']",1,"[0.7199521921575069, 0.8319252440705895, 1.1518531497567892, 1.5279010338708758, 1.6719384980387986]",1252.1307677347213,None,1252.130754791759,1252.2306474619545,,,,,,,,,,,,s190_11222022,001,2022_Nov_22_1712,test_typingtask_norepeats,2020.2.10,59.92561214576589,
heond,heond,,,,,0,80,80,80,,,,,,,,1257.6307000149973,None,"['h', 'e', 'o', 'n', 'd']",1,"[0.819983190856874, 1.075913914013654, 1.2360137696377933, 1.467887635808438, 1.5958731709979475]",1257.6307000149973,None,1257.631063015759,1257.730864112731,,,,,,,,,,,,s190_11222022,001,2022_Nov_22_1712,test_typingtask_norepeats,2020.2.10,59.92561214576589,
puppy,puppy,,,,,0,81,81,81,,,,,,,,1263.131031001918,None,"['p', 'u', 'p', 'p', 'y']",1,"[0.767575214151293, 0.9996708831749856, 1.1595516670495272, 1.3116609663702548, 1.4316065879538655]",1263.131031001918,None,1263.130906577781,1263.23087401269,,,,,,,,,,,,s190_11222022,001,2022_Nov_22_1712,test_typingtask_norepeats,2020.2.10,59.92561214576589,
tithe,tithe,,,,,0,82,82,82,,,,,,,,1268.6310815047473,None,"['t', 'i', 't', 'h', 'e']",1,"[0.7156108771450818, 0.8434990840032697, 0.9876551763154566, 1.1475138133391738, 1.2116330661810935]",1268.6310815047473,None,1268.6307444647887,1268.7310498077422,,,,,,,,,,,,s190_11222022,001,2022_Nov_22_1712,test_typingtask_norepeats,2020.2.10,59.92561214576589,
buddy,buddy,,,,,0,83,83,83,,,,,,,,1274.1310414839536,None,"['b', 'u', 'd', 'd', 'y']",1,"[0.7116909539327025, 0.8796578710898757, 1.0235618050210178, 1.1996546420268714, 1.2955826241523027]",1274.1310414839536,None,1274.1308092620225,1274.2313102670014,,,,,,,,,,,,s190_11222022,001,2022_Nov_22_1712,test_typingtask_norepeats,2020.2.10,59.92561214576589,
edthe,edthe,,,,,0,84,84,84,,,,,,,,1279.6310554877855,None,"['e', 'd', 't', 'h', 'e']",1,"[0.6276095150969923, 0.8356155352666974, 1.0356110013090074, 1.1716040959581733, 1.283540132921189]",1279.6310554877855,None,1279.6308925958351,1279.7309854677878,,,,,,,,,,,,s190_11222022,001,2022_Nov_22_1712,test_typingtask_norepeats,2020.2.10,59.92561214576589,
heond,heond,,,,,0,85,85,85,,,,,,,,1285.130956953857,None,"['h', 'e', 'o', 'n', 'd']",1,"[0.7516868822276592, 0.9517239034175873, 1.127696085255593, 1.3357503591105342, 1.479630057234317]",1285.130956953857,None,1285.1310987417587,1285.2309397468343,,,,,,,,,,,,s190_11222022,001,2022_Nov_22_1712,test_typingtask_norepeats,2020.2.10,59.92561214576589,
haole,haole,,,,,0,86,86,86,,,,,,,,1290.648227723781,None,"['h', 'a', 'o', 'l', 'e']",1,"[0.7144098607823253, 0.8503560298122466, 1.0663828658871353, 1.2904700846411288, 1.4024876519106328]",1290.648227723781,None,1290.6477601249703,1290.7477639997378,,,,,,,,,,,,s190_11222022,001,2022_Nov_22_1712,test_typingtask_norepeats,2020.2.10,59.92561214576589,
cheer,cheer,,,,,0,87,87,87,,,,,,,,1296.147559353616,None,"['c', 'h', 'e', 'e', 'r']",1,"[0.6951920953579247, 0.8391520231962204, 0.9670296423137188, 1.143028796184808, 1.3910346860066056]",1296.147559353616,None,1296.147696961742,1296.2480304436758,,,,,,,,,,,,s190_11222022,001,2022_Nov_22_1712,test_typingtask_norepeats,2020.2.10,59.92561214576589,
kremp,kremp,,,,,0,88,88,88,,,,,,,,1301.6477018380538,None,"['k', 'r', 'e', 'm', 'p']",1,"[0.8749467171728611, 0.9870890309102833, 1.0508880019187927, 1.1710080169141293, 1.4029757608659565]",1301.6477018380538,None,1301.6476435340942,1301.74764429871,,,,,,,,,,,,s190_11222022,001,2022_Nov_22_1712,test_typingtask_norepeats,2020.2.10,59.92561214576589,
lucky,lucky,,,,,0,89,89,89,,,,,,,,1307.1646190616302,None,"['l', 'u', 'c', 'k', 'y']",1,"[0.822096339892596, 1.1420201119035482, 1.2780663799494505, 1.4539825390093029, 1.6220308458432555]",1307.1646190616302,None,1307.1641452937388,1307.2640808569267,,,,,,,,,,,,s190_11222022,001,2022_Nov_22_1712,test_typingtask_norepeats,2020.2.10,59.92561214576589,
think,think,,,,,0,90,90,90,,,,,,,,1312.6643539699726,None,"['t', 'h', 'i', 'n', 'k']",1,"[0.6423066691495478, 0.7542960732243955, 0.9383801240473986, 1.1143194851465523, 1.3223594399169087]",1312.6643539699726,None,1312.6644791398198,1312.7647465616465,,,,,,,,,,,,s190_11222022,001,2022_Nov_22_1712,test_typingtask_norepeats,2020.2.10,59.92561214576589,
vanru,vanru,,,,,0,91,91,91,,,,,,,,1318.1645217137411,None,"['v', 'a', 'n', 'r', 'u']",1,"[0.8140718238428235, 0.9100774838589132, 1.1100564650259912, 1.3180769737809896, 1.4861617018468678]",1318.1645217137411,None,1318.164292495791,1318.2640433716588,,,,,,,,,,,,s190_11222022,001,2022_Nov_22_1712,test_typingtask_norepeats,2020.2.10,59.92561214576589,
haole,haole,,,,,0,92,92,92,,,,,,,,1323.6652750140056,None,"['h', 'a', 'o', 'l', 'e']",1,"[0.7454922860488296, 0.8813781891949475, 1.1053254613652825, 1.3533874889835715, 1.4814166580326855]",1323.6652750140056,None,1323.6642997247168,1323.7642990737222,,,,,,,,,,,,s190_11222022,001,2022_Nov_22_1712,test_typingtask_norepeats,2020.2.10,59.92561214576589,
buddy,buddy,,,,,0,93,93,93,,,,,,,,1329.1644320827909,None,"['b', 'u', 'd', 'd', 'y']",1,"[0.6382368472404778, 0.7982138814404607, 0.9261570093221962, 1.0941871372051537, 1.2141906451433897]",1329.1644320827909,None,1329.1643853980117,1329.264264904894,,,,,,,,,,,,s190_11222022,001,2022_Nov_22_1712,test_typingtask_norepeats,2020.2.10,59.92561214576589,
zibja,zibja,,,,,0,94,94,94,,,,,,,,1334.6646548607387,None,"['z', 'i', 'b', 'j', 'a']",1,"[0.8099336777813733, 1.0419157920405269, 1.2259400440379977, 1.433935851790011, 1.5460035717114806]",1334.6646548607387,None,1334.6644597608597,1334.7644289960153,,,,,,,,,,,,s190_11222022,001,2022_Nov_22_1712,test_typingtask_norepeats,2020.2.10,59.92561214576589,
cheer,cheer,,,,,0,95,95,95,,,,,,,,1340.1644359990023,None,"['c', 'h', 'e', 'e', 'r']",1,"[0.7022607130929828, 0.8302397793158889, 0.9501384729519486, 1.0943216001614928, 1.302256854251027]",1340.1644359990023,None,1340.164490632806,1340.264557742048,,,,,,,,,,,,s190_11222022,001,2022_Nov_22_1712,test_typingtask_norepeats,2020.2.10,59.92561214576589,
tithe,tithe,,,,,0,96,96,96,,,,,,,,1345.6644241479225,None,"['t', 'i', 't', 'h', 'e']",1,"[0.6582848280668259, 0.7942529539577663, 0.9222318800166249, 1.0421738270670176, 1.1462321900762618]",1345.6644241479225,None,1345.6645583148115,1345.7645412106067,,,,,,,,,,,,s190_11222022,001,2022_Nov_22_1712,test_typingtask_norepeats,2020.2.10,59.92561214576589,
belly,belly,,,,,0,97,97,97,,,,,,,,1351.164376030676,None,"['b', 'e', 'l', 'l', 'y']",1,"[0.6622979599051178, 0.7822969169355929, 0.9421980646438897, 1.110208943951875, 1.2223348207771778]",1351.164376030676,None,1351.1643702491187,1351.264439697843,,,,,,,,,,,,s190_11222022,001,2022_Nov_22_1712,test_typingtask_norepeats,2020.2.10,59.92561214576589,
tithe,tithe,,,,,0,98,98,98,,,,,,,,1356.6644001747482,None,"['t', 'i', 't', 'h', 'e']",1,"[0.6341831889003515, 0.7381917517632246, 0.8663134658709168, 1.0021815886721015, 1.0822996576316655]",1356.6644001747482,None,1356.6641177489423,1356.764383575879,,,,,,,,,,,,s190_11222022,001,2022_Nov_22_1712,test_typingtask_norepeats,2020.2.10,59.92561214576589,
would,would,,,,,0,99,99,99,,,,,,,,1362.1642791768536,None,"['w', 'o', 'u', 'l', 'd']",1,"[0.710308036301285, 0.8064171839505434, 1.062349250074476, 1.3184061483480036, 1.4623218080960214]",1362.1642791768536,None,1362.164347253833,1362.2645598198287,,,,,,,,,,,,s190_11222022,001,2022_Nov_22_1712,test_typingtask_norepeats,2020.2.10,59.92561214576589,
pykka,pykka,,,,,0,100,100,100,,,,,,,,1367.6642560418695,None,"['p', 'y', 'k', 'k', 'a']",1,"[0.9384502917528152, 1.1224543587304652, 1.3304318338632584, 1.4983991021290421, 1.6584542631171644]",1367.6642560418695,None,1367.6644703369589,1367.764529692009,,,,,,,,,,,,s190_11222022,001,2022_Nov_22_1712,test_typingtask_norepeats,2020.2.10,59.92561214576589,
cheer,cheer,,,,,0,101,101,101,,,,,,,,1373.1644791099243,None,"['c', 'h', 'e', 'e', 'r']",1,"[0.7341111446730793, 0.854257320985198, 0.9981153476983309, 1.1741381296887994, 1.4222250799648464]",1373.1644791099243,None,1373.1643630239182,1373.2644453090616,,,,,,,,,,,,s190_11222022,001,2022_Nov_22_1712,test_typingtask_norepeats,2020.2.10,59.92561214576589,
would,would,,,,,0,102,102,102,,,,,,,,1378.6644440037198,None,"['w', 'o', 'u', 'l', 'd']",1,"[0.642184569966048, 0.8022596510127187, 1.1862276270985603, 1.4341476517729461, 1.5702726230956614]",1378.6644440037198,None,1378.6642894457095,1378.7645078706555,,,,,,,,,,,,s190_11222022,001,2022_Nov_22_1712,test_typingtask_norepeats,2020.2.10,59.92561214576589,
theme,theme,,,,,0,103,103,103,,,,,,,,1384.164596032817,None,"['t', 'h', 'm', 'backspace', 'e', 'm', 'e']",0,"[0.6300674891099334, 0.7259928002022207, 1.0140146249905229, 1.5820581642910838, 1.798002507071942, 1.9580732840113342, 2.3581137591972947]",1384.164596032817,None,1384.1643765807153,1384.2647785316221,,,,,,,,,,,,s190_11222022,001,2022_Nov_22_1712,test_typingtask_norepeats,2020.2.10,59.92561214576589,
faqir,faqir,,,,,0,104,104,104,,,,,,,,1389.6811377308331,None,"['f', 'a', 'q', 'i', 'r']",1,"[0.7615349092520773, 0.8575420691631734, 1.2254847981967032, 1.4655481111258268, 1.6094428501091897]",1389.6811377308331,None,1389.6811905159616,1389.7811737279408,,,,,,,,,,,,s190_11222022,001,2022_Nov_22_1712,test_typingtask_norepeats,2020.2.10,59.92561214576589,
druze,druze,,,,,0,105,105,105,,,,,,,,1395.1810429329053,None,"['d', 'r', 'u', 'z', 'e']",1,"[0.6616663672029972, 0.8537272969260812, 1.0536787449382246, 1.1496273940429091, 1.3656169809401035]",1395.1810429329053,None,1395.1811593050138,1395.2811532779597,,,,,,,,,,,,s190_11222022,001,2022_Nov_22_1712,test_typingtask_norepeats,2020.2.10,59.92561214576589,
vanru,vanru,,,,,0,106,106,106,,,,,,,,1400.681146276649,None,"['v', 'a', 'n', 'r', 'u']",1,"[0.6814906010404229, 0.8094392349012196, 0.9695606431923807, 1.1135553722269833, 1.3215268859639764]",1400.681146276649,None,1400.6811085050927,1400.7811563876458,,,,,,,,,,,,s190_11222022,001,2022_Nov_22_1712,test_typingtask_norepeats,2020.2.10,59.92561214576589,
vodka,vodka,,,,,0,107,107,107,,,,,,,,1406.180995986797,None,"['c', 'v', 'o', 'd', 'k', 'a']",0,"[0.8296174588613212, 1.541665414813906, 1.685685477219522, 1.8136800741776824, 2.061693042051047, 2.1737160780467093]",1406.180995986797,None,1406.1810013918207,1406.2810916649178,,,,,,,,,,,,s190_11222022,001,2022_Nov_22_1712,test_typingtask_norepeats,2020.2.10,59.92561214576589,
cheer,cheer,,,,,0,108,108,108,,,,,,,,1411.6809798167087,None,"['c', 'h', 'e', 'e', 'r']",1,"[0.625598166603595, 0.7456933767534792, 0.8737144297920167, 1.0176113066263497, 1.2336643957532942]",1411.6809798167087,None,1411.6811374287122,1411.7811307269149,,,,,,,,,,,,s190_11222022,001,2022_Nov_22_1712,test_typingtask_norepeats,2020.2.10,59.92561214576589,
haole,haole,,,,,0,109,109,109,,,,,,,,1417.1812053746544,None,"['h', 'a', 'o', 'l', 'e']",1,"[0.7413874701596797, 0.9093760158866644, 1.2055435399524868, 1.4455159669741988, 1.5574984150007367]",1417.1812053746544,None,1417.1811560449191,1417.2812266908586,,,,,,,,,,,,s190_11222022,001,2022_Nov_22_1712,test_typingtask_norepeats,2020.2.10,59.92561214576589,
edthe,edthe,,,,,0,110,110,110,,,,,,,,1422.6811441900209,None,"['e', 'd', 't', 'h', 'e']",1,"[0.6415180382318795, 0.8655521338805556, 1.0494821309112012, 1.1775032561272383, 1.265550914220512]",1422.6811441900209,None,1422.6811288889498,1422.7814617538825,,,,,,,,,,,,s190_11222022,001,2022_Nov_22_1712,test_typingtask_norepeats,2020.2.10,59.92561214576589,
heond,heond,,,,,0,111,111,111,,,,,,,,1428.1812327788211,None,"['h', 'e', 'o', 'n', 'd']",1,"[0.7173549011349678, 0.901492727920413, 1.0695054540410638, 1.3014027178287506, 1.4293945487588644]",1428.1812327788211,None,1428.1810712330976,1428.2810270087793,,,,,,,,,,,,s190_11222022,001,2022_Nov_22_1712,test_typingtask_norepeats,2020.2.10,59.92561214576589,
lucky,lucky,,,,,0,112,112,112,,,,,,,,1433.6812258809805,None,"['l', 'u', 'c', 'k', 'y']",1,"[0.6494863927364349, 1.0494433557614684, 1.2334577930159867, 1.3933958299458027, 1.569483210798353]",1433.6812258809805,None,1433.6810803949834,1433.7812253697775,,,,,,,,,,,,s190_11222022,001,2022_Nov_22_1712,test_typingtask_norepeats,2020.2.10,59.92561214576589,
would,would,,,,,0,113,113,113,,,,,,,,1439.1812617196701,None,"['w', 'o', 'u', 'l', 'd']",1,"[0.6054480993188918, 0.6933202249929309, 0.9173240573145449, 1.1654030862264335, 1.2773778410628438]",1439.1812617196701,None,1439.1810317068362,1439.2812019558623,,,,,,,,,,,,s190_11222022,001,2022_Nov_22_1712,test_typingtask_norepeats,2020.2.10,59.92561214576589,
faqir,faqir,,,,,0,114,114,114,,,,,,,,1444.6820055400021,None,"['f', 'a', 'q', 'i', 'r']",1,"[0.6246341969817877, 0.7285756631754339, 1.0405659331008792, 1.2646569502539933, 1.4085614089854062]",1444.6820055400021,None,1444.6816165680998,1444.7808655397967,,,,,,,,,,,,s190_11222022,001,2022_Nov_22_1712,test_typingtask_norepeats,2020.2.10,59.92561214576589,
cheer,cheer,,,,,0,115,115,115,,,,,,,,1450.1811349876225,None,"['c', 'h', 'e', 'e', 'r']",1,"[0.621551797259599, 0.7415695982053876, 0.8535843249410391, 1.0214473688974977, 1.2214649221859872]",1450.1811349876225,None,1450.1812393740752,1450.2813112726435,,,,,,,,,,,,s190_11222022,001,2022_Nov_22_1712,test_typingtask_norepeats,2020.2.10,59.92561214576589,
druze,druze,,,,,0,116,116,116,,,,,,,,1455.6812277906574,None,"['d', 'r', 'u', 'z', 'e']",1,"[0.64943095901981, 0.8414419307373464, 1.0173635859973729, 1.1054820837453008, 1.25740432087332]",1455.6812277906574,None,1455.681213975046,1455.7812182898633,,,,,,,,,,,,s190_11222022,001,2022_Nov_22_1712,test_typingtask_norepeats,2020.2.10,59.92561214576589,
think,think,,,,,0,117,117,117,,,,,,,,1461.181426035706,None,"['t', 'h', 'i', 'n', 'k']",1,"[0.6692531760782003, 0.7331553329713643, 0.9171509030275047, 1.0613023219630122, 1.2452236670069396]",1461.181426035706,None,1461.1813008348458,1461.2815361726098,,,,,,,,,,,,s190_11222022,001,2022_Nov_22_1712,test_typingtask_norepeats,2020.2.10,59.92561214576589,
there,there,,,,,0,118,118,118,,,,,,,,1466.6810756647028,None,"['t', 'h', 'e', 'r', 'e']",1,"[0.6016546217724681, 0.7136221160180867, 0.8095157877542078, 0.9216193431057036, 1.0655389949679375]",1466.6810756647028,None,1466.6811410478317,1466.7811668347567,,,,,,,,,,,,s190_11222022,001,2022_Nov_22_1712,test_typingtask_norepeats,2020.2.10,59.92561214576589,
druze,druze,,,,,0,119,119,119,,,,,,,,1472.181185026653,None,"['d', 'r', 'u', 'z', 'e']",1,"[0.6215330110862851, 0.8454736168496311, 0.9894609609618783, 1.109400202985853, 1.2455523116514087]",1472.181185026653,None,1472.181458741054,1472.2814388507977,,,,,,,,,,,,s190_11222022,001,2022_Nov_22_1712,test_typingtask_norepeats,2020.2.10,59.92561214576589,
about,about,,,,,,,,,0,0,0,0,,,,,,,,,,,,,1477.681269128807,None,1482.7560645267367,None,"['a', 'b', 'o', 'u', 't']",1,"[0.7425424070097506, 0.8865976259112358, 0.9826488709077239, 1.1906200177036226, 1.2866734908893704]",1482.7560645267367,None,1482.7481516470202,1482.8482488859445,s190_11222022,001,2022_Nov_22_1712,test_typingtask_norepeats,2020.2.10,59.92561214576589,
pykka,pykka,,,,,,,,,0,1,1,1,,,,,,,,,,,,,,,1488.26469182875,None,"['p', 'y', 'k', 'k', 'a']",1,"[0.7939236187376082, 0.9939659517258406, 1.209903336595744, 1.3779877196066082, 1.4740228806622326]",1488.26469182875,None,1488.2646494778805,1488.3648149468936,s190_11222022,001,2022_Nov_22_1712,test_typingtask_norepeats,2020.2.10,59.92561214576589,
zibja,zibja,,,,,,,,,0,2,2,2,,,,,,,,,,,,,,,1493.7648846679367,None,"['z', 'i', 'b', 'j', 'a']",1,"[0.7177070244215429, 0.9097254360094666, 1.0537861352786422, 1.2618313604034483, 1.3738110340200365]",1493.7648846679367,None,1493.7646974298173,1493.864715083968,s190_11222022,001,2022_Nov_22_1712,test_typingtask_norepeats,2020.2.10,59.92561214576589,
faqir,faqir,,,,,,,,,0,3,3,3,,,,,,,,,,,,,,,1499.2645451868884,None,"['f', 'a', 'q', 'i', 'r']",1,"[0.7061228239908814, 0.8101100591011345, 1.074163710232824, 1.250160040333867, 1.4180474942550063]",1499.2645451868884,None,1499.264655151032,1499.36484924471,s190_11222022,001,2022_Nov_22_1712,test_typingtask_norepeats,2020.2.10,59.92561214576589,
cheer,cheer,,,,,,,,,0,4,4,4,,,,,,,,,,,,,,,1504.7646373147145,None,"['c', 'h', 'e', 'e', 'r']",1,"[0.6220205817371607, 0.7421056358143687, 0.8380708368495107, 1.0220981310121715, 1.2300780597142875]",1504.7646373147145,None,1504.76475537112,1504.8645706218667,s190_11222022,001,2022_Nov_22_1712,test_typingtask_norepeats,2020.2.10,59.92561214576589,
faqir,faqir,,,,,,,,,0,5,5,5,,,,,,,,,,,,,,,1510.264538901858,None,"['f', 'a', 'q', 'i', 'r']",1,"[0.6260355310514569, 0.7301045469939709, 1.0501629509963095, 1.226036449894309, 1.3701756009832025]",1510.264538901858,None,1510.2645549938084,1510.3646846977063,s190_11222022,001,2022_Nov_22_1712,test_typingtask_norepeats,2020.2.10,59.92561214576589,
think,think,,,,,,,,,0,6,6,6,,,,,,,,,,,,,,,1515.7644020747393,None,"['t', 'h', 'i', 'n', 'k']",1,"[0.630274161696434, 0.718185449950397, 0.894194982945919, 1.0543860886245966, 1.2622710149735212]",1515.7644020747393,None,1515.7644515951165,1515.864659155719,s190_11222022,001,2022_Nov_22_1712,test_typingtask_norepeats,2020.2.10,59.92561214576589,
vodka,vodka,,,,,,,,,0,7,7,7,,,,,,,,,,,,,,,1521.2647348497994,None,"['v', 'o', 'd', 'k', 'a']",1,"[0.809862591791898, 0.9619112857617438, 1.0819675796665251, 1.2659250856377184, 1.3699422078207135]",1521.2647348497994,None,1521.264597013686,1521.3647645288147,s190_11222022,001,2022_Nov_22_1712,test_typingtask_norepeats,2020.2.10,59.92561214576589,
haole,haole,,,,,,,,,0,8,8,8,,,,,,,,,,,,,,,1526.7645961106755,None,"['h', 'a', 'o', 'l', 'e']",1,"[0.717992858029902, 0.8541344562545419, 1.030072991270572, 1.2460235343314707, 1.358054332435131]",1526.7645961106755,None,1526.764584109746,1526.8646397767588,s190_11222022,001,2022_Nov_22_1712,test_typingtask_norepeats,2020.2.10,59.92561214576589,
tithe,tithe,,,,,,,,,0,9,9,9,,,,,,,,,,,,,,,1532.2646276857704,None,"['t', 'i', 't', 'h', 'e']",1,"[0.6339656813070178, 0.7380786100402474, 0.8820424671284854, 1.0020775310695171, 1.1219801711849868]",1532.2646276857704,None,1532.2646712740884,1532.364554845728,s190_11222022,001,2022_Nov_22_1712,test_typingtask_norepeats,2020.2.10,59.92561214576589,
cooed,cooed,,,,,,,,,0,10,10,10,,,,,,,,,,,,,,,1537.7648130957969,None,"['c', 'o', 'o', 'e', 'd']",1,"[0.7737794951535761, 0.8938036011531949, 1.1018111002631485, 1.2379877329804003, 1.4539047069847584]",1537.7648130957969,None,1537.7645748109558,1537.8647958487272,s190_11222022,001,2022_Nov_22_1712,test_typingtask_norepeats,2020.2.10,59.92561214576589,
vodka,vodka,,,,,,,,,0,11,11,11,,,,,,,,,,,,,,,1543.2647174228914,None,"['v', 'o', 'd', 'k', 'a']",1,"[0.6819249433465302, 0.7938813911750913, 0.9540125350467861, 1.0899905334226787, 1.2098764614202082]",1543.2647174228914,None,1543.2644671649673,1543.3647634549998,s190_11222022,001,2022_Nov_22_1712,test_typingtask_norepeats,2020.2.10,59.92561214576589,
heond,heond,,,,,,,,,0,12,12,12,,,,,,,,,,,,,,,1548.7647390556522,None,"['h', 'e', 'o', 'n', 'd']",1,"[0.7098552673123777, 0.8539942572824657, 0.9899545670486987, 1.205919946078211, 1.2938521462492645]",1548.7647390556522,None,1548.7646732559429,1548.8644636557437,s190_11222022,001,2022_Nov_22_1712,test_typingtask_norepeats,2020.2.10,59.92561214576589,
about,about,,,,,,,,,0,13,13,13,,,,,,,,,,,,,,,1554.2645773519762,None,"['a', 'b', 'o', 'u', 't']",1,"[0.5140898670069873, 0.6740030068904161, 0.7781142168678343, 1.0021235700696707, 1.1620955527760088]",1554.2645773519762,None,1554.2647027788685,1554.364446497988,s190_11222022,001,2022_Nov_22_1712,test_typingtask_norepeats,2020.2.10,59.92561214576589,
there,there,,,,,,,,,0,14,14,14,,,,,,,,,,,,,,,1559.7647937918082,None,"['t', 'h', 'e', 'r', 'e']",1,"[0.621873187366873, 0.7098079770803452, 0.8218516809865832, 0.8859378811903298, 1.0218291119672358]",1559.7647937918082,None,1559.7647982007825,1559.8647566647269,s190_11222022,001,2022_Nov_22_1712,test_typingtask_norepeats,2020.2.10,59.92561214576589,
vanru,vanru,,,,,,,,,0,15,15,15,,,,,,,,,,,,,,,1565.264879877679,None,"['v', 'a', 'n', 'r', 'u']",1,"[0.6257761749438941, 0.7618038700893521, 0.8898128410801291, 1.0177074861712754, 1.1538600651547313]",1565.264879877679,None,1565.2648165157066,1565.3646393977106,s190_11222022,001,2022_Nov_22_1712,test_typingtask_norepeats,2020.2.10,59.92561214576589,
pykka,pykka,,,,,,,,,0,16,16,16,,,,,,,,,,,,,,,1570.7646488039754,None,"['p', 'y', 'k', 'k', 'a']",1,"[0.6621106863021851, 0.9020576560869813, 1.1020595040172338, 1.2620343030430377, 1.3580229291692376]",1570.7646488039754,None,1570.7647689227947,1570.864685206674,s190_11222022,001,2022_Nov_22_1712,test_typingtask_norepeats,2020.2.10,59.92561214576589,
therm,therm,,,,,,,,,0,17,17,17,,,,,,,,,,,,,,,1576.264707898721,None,"['t', 'h', 'e', 'r', 'm']",1,"[0.5779587477445602, 0.6900042868219316, 0.7779710898175836, 0.8579632779583335, 0.9619369260035455]",1576.264707898721,None,1576.264742991049,1576.3648515688255,s190_11222022,001,2022_Nov_22_1712,test_typingtask_norepeats,2020.2.10,59.92561214576589,
buddy,buddy,,,,,,,,,0,18,18,18,,,,,,,,,,,,,,,1581.764739554841,None,"['b', 'u', 'd', 'd', 'y']",1,"[0.6619502641260624, 0.8379313270561397, 0.96596439788118, 1.1338449958711863, 1.381924320012331]",1581.764739554841,None,1581.7647489738652,1581.8647996908985,s190_11222022,001,2022_Nov_22_1712,test_typingtask_norepeats,2020.2.10,59.92561214576589,
kremp,kremp,,,,,,,,,0,19,19,19,,,,,,,,,,,,,,,1587.2646643808112,None,"['k', 'r', 'e', 'm', 'p']",1,"[0.6979934400878847, 0.8740461729466915, 0.9459316781722009, 1.0979444500990212, 1.2979456670582294]",1587.2646643808112,None,1587.2645973717795,1587.3650950766169,s190_11222022,001,2022_Nov_22_1712,test_typingtask_norepeats,2020.2.10,59.92561214576589,
druze,druze,,,,,,,,,0,20,20,20,,,,,,,,,,,,,,,1592.7647098926827,None,"['d', 'r', 'u', 'z', 'e']",1,"[0.6059421761892736, 0.8059880193322897, 0.9499968881718814, 1.070001716259867, 1.213969875127077]",1592.7647098926827,None,1592.7646708000452,1592.8648582398891,s190_11222022,001,2022_Nov_22_1712,test_typingtask_norepeats,2020.2.10,59.92561214576589,
belly,belly,,,,,,,,,0,21,21,21,,,,,,,,,,,,,,,1598.2647559680045,None,"['b', 'e', 'l', 'l', 'y']",1,"[0.5859643211588264, 0.7059595421887934, 0.8579015270806849, 1.042017387226224, 1.1218448081053793]",1598.2647559680045,None,1598.2648308878765,1598.3647602479905,s190_11222022,001,2022_Nov_22_1712,test_typingtask_norepeats,2020.2.10,59.92561214576589,
kremp,kremp,,,,,,,,,0,22,22,22,,,,,,,,,,,,,,,1603.7647332916968,None,"['k', 'r', 'e', 'm', 'p']",1,"[0.5978779466822743, 0.8058759849518538, 0.8859936357475817, 1.045851405709982, 1.2299331068061292]",1603.7647332916968,None,1603.7647505016998,1603.8647154346108,s190_11222022,001,2022_Nov_22_1712,test_typingtask_norepeats,2020.2.10,59.92561214576589,
therm,therm,,,,,,,,,0,23,23,23,,,,,,,,,,,,,,,1609.264871431049,None,"['t', 'h', 'e', 'r', 'm']",1,"[0.6418465082533658, 0.7538329842500389, 0.8738399841822684, 0.94575060531497, 1.0498135020025074]",1609.264871431049,None,1609.2645963896998,1609.3647608808242,s190_11222022,001,2022_Nov_22_1712,test_typingtask_norepeats,2020.2.10,59.92561214576589,
would,would,,,,,,,,,0,24,24,24,,,,,,,,,,,,,,,1614.7647369666956,None,"['w', 'o', 'u', 'l', 'd']",1,"[0.5819518943317235, 0.685971393249929, 0.9178479071706533, 1.1579558583907783, 1.2780164740979671]",1614.7647369666956,None,1614.7646110161209,1614.86481142696,s190_11222022,001,2022_Nov_22_1712,test_typingtask_norepeats,2020.2.10,59.92561214576589,
vodka,vodka,,,,,,,,,0,25,25,25,,,,,,,,,,,,,,,1620.2647319557145,None,"['v', 'o', 'd', 'k', 'a']",1,"[0.6418569078668952, 0.7539720661006868, 0.8978658448904753, 1.0979024260304868, 1.209866519086063]",1620.2647319557145,None,1620.2647726038472,1620.3645976656117,s190_11222022,001,2022_Nov_22_1712,test_typingtask_norepeats,2020.2.10,59.92561214576589,
druze,druze,,,,,,,,,0,26,26,26,,,,,,,,,,,,,,,1625.7650033659302,None,"['d', 'r', 'u', 'z', 'e']",1,"[0.6057179588824511, 0.8216884299181402, 0.9656785968691111, 1.0777153908275068, 1.2537130890414119]",1625.7650033659302,None,1625.7647520318628,1625.8645879337564,s190_11222022,001,2022_Nov_22_1712,test_typingtask_norepeats,2020.2.10,59.92561214576589,
there,there,,,,,,,,,0,27,27,27,,,,,,,,,,,,,,,1631.2648495170288,None,"['t', 'h', 'e', 'r', 'e']",1,"[0.609742077998817, 0.7298273150809109, 0.8337291590869427, 0.8977483892813325, 1.0337367933243513]",1631.2648495170288,None,1631.2647034419701,1631.3646494108252,s190_11222022,001,2022_Nov_22_1712,test_typingtask_norepeats,2020.2.10,59.92561214576589,
about,about,,,,,,,,,0,28,28,28,,,,,,,,,,,,,,,1636.76491918182,None,"['a', 'b', 'o', 'u', 't']",1,"[0.5018126009963453, 0.6537780398502946, 0.7497826400212944, 0.9737445781938732, 1.10967474617064]",1636.76491918182,None,1636.7649920099416,1636.8648879318498,s190_11222022,001,2022_Nov_22_1712,test_typingtask_norepeats,2020.2.10,59.92561214576589,
champ,champ,,,,,,,,,0,29,29,29,,,,,,,,,,,,,,,1642.2648601569235,None,"['c', 'h', 'a', 'm', 'p']",1,"[0.7057802341878414, 0.8257966469973326, 0.9458391349762678, 1.0817990531213582, 1.2897783261723816]",1642.2648601569235,None,1642.2648377070204,1642.3651980329305,s190_11222022,001,2022_Nov_22_1712,test_typingtask_norepeats,2020.2.10,59.92561214576589,
theme,theme,,,,,,,,,0,30,30,30,,,,,,,,,,,,,,,1647.7648571776226,None,"['t', 'h', 'e', 'm', 'e']",1,"[0.5818472048267722, 0.6937273046933115, 0.8138450989499688, 0.9658553097397089, 1.0858203540556133]",1647.7648571776226,None,1647.7647886118853,1647.8648744686507,s190_11222022,001,2022_Nov_22_1712,test_typingtask_norepeats,2020.2.10,59.92561214576589,
zibja,zibja,,,,,,,,,0,31,31,31,,,,,,,,,,,,,,,1653.2647675336339,None,"['z', 'i', 'b', 'j', 'a']",1,"[0.7058885172009468, 1.3379145818762481, 1.4898163969628513, 1.729982083197683, 1.849961597006768]",1653.2647675336339,None,1653.2648264729419,1653.365039083641,s190_11222022,001,2022_Nov_22_1712,test_typingtask_norepeats,2020.2.10,59.92561214576589,
champ,champ,,,,,,,,,0,32,32,32,,,,,,,,,,,,,,,1658.76472330885,None,"['c', 'h', 'a', 'm', 'p']",1,"[0.7019164129160345, 0.821979456115514, 0.9419892700389028, 1.0859025842510164, 1.3019864773377776]",1658.76472330885,None,1658.7648342299276,1658.8648120458238,s190_11222022,001,2022_Nov_22_1712,test_typingtask_norepeats,2020.2.10,59.92561214576589,
faqir,faqir,,,,,,,,,0,33,33,33,,,,,,,,,,,,,,,1664.264669443015,None,"['f', 'a', 'q', 'i', 'r']",1,"[0.7300460641272366, 0.8579799658618867, 1.3060294990427792, 1.522029488813132, 1.7059814240783453]",1664.264669443015,None,1664.2647543638946,1664.3648548577912,s190_11222022,001,2022_Nov_22_1712,test_typingtask_norepeats,2020.2.10,59.92561214576589,
would,would,,,,,,,,,0,34,34,34,,,,,,,,,,,,,,,1669.7646946148016,None,"['w', 'o', 'u', 'l', 'd']",1,"[0.6539868568070233, 0.7419795161113143, 0.9819984519854188, 1.2459499291144311, 1.3579555158503354]",1669.7646946148016,None,1669.7648081929424,1669.8650000207126,s190_11222022,001,2022_Nov_22_1712,test_typingtask_norepeats,2020.2.10,59.92561214576589,
heond,heond,,,,,,,,,0,35,35,35,,,,,,,,,,,,,,,1675.264731663745,None,"['h', 'e', 'o', 'n', 'd']",1,"[0.6819671611301601, 0.8019932578317821, 0.953962885774672, 1.1540173497051, 1.2659834497608244]",1675.264731663745,None,1675.2648606389762,1675.364713815041,s190_11222022,001,2022_Nov_22_1712,test_typingtask_norepeats,2020.2.10,59.92561214576589,
there,there,,,,,,,,,0,36,36,36,,,,,,,,,,,,,,,1680.7648656689562,None,"['t', 'h', 'e', 'r', 'e']",1,"[0.6138389757834375, 0.7177258068695664, 0.8457109117880464, 0.9097357150167227, 1.061864994931966]",1680.7648656689562,None,1680.7647405277007,1680.8648032150231,s190_11222022,001,2022_Nov_22_1712,test_typingtask_norepeats,2020.2.10,59.92561214576589,
think,think,,,,,,,,,0,37,37,37,,,,,,,,,,,,,,,1686.2649657707661,None,"['t', 'h', 'i', 'n', 'k']",1,"[0.545608039945364, 0.6417459989897907, 0.841620631981641, 1.0096261883154511, 1.2336268522776663]",1686.2649657707661,None,1686.2647611490452,1686.3649327419698,s190_11222022,001,2022_Nov_22_1712,test_typingtask_norepeats,2020.2.10,59.92561214576589,
cooed,cooed,,,,,,,,,0,38,38,38,,,,,,,,,,,,,,,1691.7651946316473,None,"['c', 'o', 'o', 'e', 'd']",1,"[0.6373877450823784, 0.7814590912312269, 0.9734483379870653, 1.1333876233547926, 1.3573891939595342]",1691.7651946316473,None,1691.7651688587853,1691.8647759296,s190_11222022,001,2022_Nov_22_1712,test_typingtask_norepeats,2020.2.10,59.92561214576589,
would,would,,,,,,,,,0,39,39,39,,,,,,,,,,,,,,,1697.2649343707599,None,"['w', 'o', 'u', 'l', 'd']",1,"[0.6417831070721149, 0.7377914190292358, 0.993646337185055, 1.2577780219726264, 1.3936680681072176]",1697.2649343707599,None,1697.2649347140455,1697.3646746287122,s190_11222022,001,2022_Nov_22_1712,test_typingtask_norepeats,2020.2.10,59.92561214576589,
cheer,cheer,,,,,,,,,0,40,40,40,,,,,,,,,,,,,,,1702.764888538979,None,"['c', 'h', 'e', 'e', 'r']",1,"[0.6297783153131604, 0.8058109642006457, 0.9498116569593549, 1.1018220111727715, 1.3737013610079885]",1702.764888538979,None,1702.765108713042,1702.8648388436995,s190_11222022,001,2022_Nov_22_1712,test_typingtask_norepeats,2020.2.10,59.92561214576589,
puppy,puppy,,,,,,,,,0,41,41,41,,,,,,,,,,,,,,,1708.2649893867783,None,"['p', 'u', 'p', 'p', 'y']",1,"[0.7536855950020254, 1.0576747050508857, 1.2335890959948301, 1.4095969311892986, 1.5216632303781807]",1708.2649893867783,None,1708.2648907938042,1708.3649175856262,s190_11222022,001,2022_Nov_22_1712,test_typingtask_norepeats,2020.2.10,59.92561214576589,
vanru,vanru,,,,,,,,,0,42,42,42,,,,,,,,,,,,,,,1713.765204266645,None,"['v', 'a', 'n', 'r', 'u']",1,"[0.6855066474527121, 0.8214032831601799, 0.9733877833932638, 1.1013819612562656, 1.253522066399455]",1713.765204266645,None,1713.7649349426852,1713.86497950973,s190_11222022,001,2022_Nov_22_1712,test_typingtask_norepeats,2020.2.10,59.92561214576589,
about,about,,,,,,,,,0,43,43,43,,,,,,,,,,,,,,,1719.2649016859941,None,"['a', 'b', 'o', 'u', 't']",1,"[0.5456965649500489, 0.6977321826852858, 0.8176916767843068, 1.0497972648590803, 1.1856813146732748]",1719.2649016859941,None,1719.2650818108582,1719.365024579689,s190_11222022,001,2022_Nov_22_1712,test_typingtask_norepeats,2020.2.10,59.92561214576589,
cooed,cooed,,,,,,,,,0,44,44,44,,,,,,,,,,,,,,,1724.7649949006736,None,"['c', 'o', 'o', 'e', 'd']",1,"[0.6935951909981668, 0.8217139379121363, 1.013666118029505, 1.1336064678616822, 1.3657057769596577]",1724.7649949006736,None,1724.7652185080574,1724.8649975247681,s190_11222022,001,2022_Nov_22_1712,test_typingtask_norepeats,2020.2.10,59.92561214576589,
vanru,vanru,,,,,,,,,0,45,45,45,,,,,,,,,,,,,,,1730.2649093046784,None,"['v', 'a', 'n', 'r', 'u']",1,"[0.7298053330741823, 0.8257496538572013, 1.0096907219849527, 1.1936803380958736, 1.3376855682581663]",1730.2649093046784,None,1730.2648938820698,1730.364955429919,s190_11222022,001,2022_Nov_22_1712,test_typingtask_norepeats,2020.2.10,59.92561214576589,
belly,belly,,,,,,,,,0,46,46,46,,,,,,,,,,,,,,,1735.7648328449577,None,"['b', 'e', 'l', 'l', 'y']",1,"[0.6859050001949072, 0.7978079449385405, 0.9177542640827596, 1.1178666013292968, 1.2618469540029764]",1735.7648328449577,None,1735.764827218,1735.8649342218414,s190_11222022,001,2022_Nov_22_1712,test_typingtask_norepeats,2020.2.10,59.92561214576589,
lucky,lucky,,,,,,,,,0,47,47,47,,,,,,,,,,,,,,,1741.264841843862,None,"['l', 'u', 'c', 'k', 'y']",1,"[0.7138630170375109, 0.9937768350355327, 1.177899671252817, 1.3138656942173839, 1.497796637006104]",1741.264841843862,None,1741.2649646327832,1741.3649824676104,s190_11222022,001,2022_Nov_22_1712,test_typingtask_norepeats,2020.2.10,59.92561214576589,
pykka,pykka,,,,,,,,,0,48,48,48,,,,,,,,,,,,,,,1746.7650719257072,None,"['p', 'y', 'k', 'k', 'a']",1,"[0.8055276330560446, 0.997582518029958, 1.2056536311283708, 1.381592731922865, 1.5175168528221548]",1746.7650719257072,None,1746.7650460927748,1746.8649343256839,s190_11222022,001,2022_Nov_22_1712,test_typingtask_norepeats,2020.2.10,59.92561214576589,
champ,champ,,,,,,,,,0,49,49,49,,,,,,,,,,,,,,,1752.2650161660276,None,"['c', 'h', 'a', 'm', 'p']",1,"[0.6656790631823242, 0.8175710802897811, 0.9536971938796341, 1.1056328332051635, 1.3456155890598893]",1752.2650161660276,None,1752.264756635856,1752.3649793970399,s190_11222022,001,2022_Nov_22_1712,test_typingtask_norepeats,2020.2.10,59.92561214576589,
belly,belly,,,,,,,,,0,50,50,50,,,,,,,,,,,,,,,1757.7651282730512,None,"['b', 'e', 'l', 'l', 'y']",1,"[0.7015166901983321, 0.821521146222949, 0.9495662301778793, 1.1335540981963277, 1.2454469483345747]",1757.7651282730512,None,1757.7648835550995,1757.8650791840628,s190_11222022,001,2022_Nov_22_1712,test_typingtask_norepeats,2020.2.10,59.92561214576589,
buddy,buddy,,,,,,,,,0,51,51,51,,,,,,,,,,,,,,,1763.2652250048704,None,"['b', 'u', 'd', 'd', 'y']",1,"[0.6654587420634925, 0.8414846360683441, 0.9854867677204311, 1.1694855820387602, 1.2494693156331778]",1763.2652250048704,None,1763.2649493390695,1763.3648611358367,s190_11222022,001,2022_Nov_22_1712,test_typingtask_norepeats,2020.2.10,59.92561214576589,
belly,belly,,,,,,,,,0,52,52,52,,,,,,,,,,,,,,,1768.7652496378869,None,"['b', 'e', 'l', 'l', 'y']",1,"[0.5734621603041887, 0.6694742604158819, 0.8053527851589024, 0.9654053393751383, 1.0853420654311776]",1768.7652496378869,None,1768.7661100417376,None,s190_11222022,001,2022_Nov_22_1712,test_typingtask_norepeats,2020.2.10,59.92561214576589,
about,about,,,,,,,,,0,53,53,53,,,,,,,,,,,,,,,1774.2650183276273,None,"['a', 'b', 'o', 'u', 't']",1,"[0.5136700947768986, 0.6656830445863307, 0.7696567350067198, 1.025588751770556, 1.121689131949097]",1774.2650183276273,None,1774.2649858208374,1774.3647767617367,s190_11222022,001,2022_Nov_22_1712,test_typingtask_norepeats,2020.2.10,59.92561214576589,
think,think,,,,,,,,,0,54,54,54,,,,,,,,,,,,,,,1779.7650557588786,None,"['t', 'h', 'i', 'n', 'k']",1,"[0.6376489489339292, 0.7496399246156216, 0.9335333006456494, 1.0935594639740884, 1.3095368477515876]",1779.7650557588786,None,1779.7655440108852,1779.865509507712,s190_11222022,001,2022_Nov_22_1712,test_typingtask_norepeats,2020.2.10,59.92561214576589,
theme,theme,,,,,,,,,0,55,55,55,,,,,,,,,,,,,,,1785.265224199742,None,"['t', 'h', 'e', 'm', 'e']",1,"[0.6413753828965127, 0.7535018227063119, 0.9134724987670779, 1.0494700530543923, 1.1453532711602747]",1785.265224199742,None,1785.2650629748591,1785.3653384158388,s190_11222022,001,2022_Nov_22_1712,test_typingtask_norepeats,2020.2.10,59.92561214576589,
zibja,zibja,,,,,,,,,0,56,56,56,,,,,,,,,,,,,,,1790.7652153386734,None,"['z', 'i', 'b', 'j', 'a']",1,"[0.8294356991536915, 1.0214836252853274, 1.1973989233374596, 1.3974122172221541, 1.4933701232075691]",1790.7652153386734,None,1790.7650298728609,1790.8650784860365,s190_11222022,001,2022_Nov_22_1712,test_typingtask_norepeats,2020.2.10,59.92561214576589,
heond,heond,,,,,,,,,0,57,57,57,,,,,,,,,,,,,,,1796.265991072636,None,"['h', 'e', 'o', 'n', 'd']",1,"[0.7287340392358601, 0.8646686351858079, 1.024648569058627, 1.2245833561755717, 1.3767282492481172]",1796.265991072636,None,1796.2654140029103,1796.3654037537053,s190_11222022,001,2022_Nov_22_1712,test_typingtask_norepeats,2020.2.10,59.92561214576589,
champ,champ,,,,,,,,,0,58,58,58,,,,,,,,,,,,,,,1801.7651746650226,None,"['c', 'h', 'a', 'm', 'p']",1,"[0.6294959881342947, 0.7735155979171395, 0.8694695807062089, 1.0695442408323288, 1.325473987031728]",1801.7651746650226,None,1801.7648030259647,1801.8650051630102,s190_11222022,001,2022_Nov_22_1712,test_typingtask_norepeats,2020.2.10,59.92561214576589,
tithe,tithe,,,,,,,,,0,59,59,59,,,,,,,,,,,,,,,1807.2648391257972,None,"['t', 'i', 't', 'h', 'e']",1,"[0.68979666614905, 0.8337654541246593, 0.9618128030560911, 1.0897356239147484, 1.1778014148585498]",1807.2648391257972,None,1807.2648871197366,1807.365007773973,s190_11222022,001,2022_Nov_22_1712,test_typingtask_norepeats,2020.2.10,59.92561214576589,
puppy,puppy,,,,,,,,,0,60,60,60,,,,,,,,,,,,,,,1812.765307568945,None,"['p', 'u', 'p', 'p', 'y']",1,"[0.6133301993831992, 1.117281123995781, 1.2453668462112546, 1.3812893321737647, 1.5333257741294801]",1812.765307568945,None,1812.7650200339035,1812.865021103993,s190_11222022,001,2022_Nov_22_1712,test_typingtask_norepeats,2020.2.10,59.92561214576589,
heond,heond,,,,,,,,,0,61,61,61,,,,,,,,,,,,,,,1818.2648663017899,None,"['h', 'e', 'o', 'n', 'd']",1,"[0.7058440539985895, 0.8097304399125278, 0.9777395967394114, 1.2017819317989051, 1.3137548519298434]",1818.2648663017899,None,1818.2652023887263,1818.3649478196166,s190_11222022,001,2022_Nov_22_1712,test_typingtask_norepeats,2020.2.10,59.92561214576589,
would,would,,,,,,,,,0,62,62,62,,,,,,,,,,,,,,,1823.7650962509215,None,"['w', 'o', 'u', 'l', 'd']",1,"[0.5655587841756642, 0.6455095931887627, 0.8615872617810965, 1.1254741200245917, 1.2455938821658492]",1823.7650962509215,None,1823.7650778341108,1823.8650331548415,s190_11222022,001,2022_Nov_22_1712,test_typingtask_norepeats,2020.2.10,59.92561214576589,
lucky,lucky,,,,,,,,,0,63,63,63,,,,,,,,,,,,,,,1829.265174892731,None,"['l', 'u', 'c', 'k', 'y']",1,"[0.6015336131677032, 0.8735207859426737, 1.0015050182119012, 1.145402783062309, 1.3615541229955852]",1829.265174892731,None,1829.2648892687635,1829.3650687397458,s190_11222022,001,2022_Nov_22_1712,test_typingtask_norepeats,2020.2.10,59.92561214576589,
buddy,buddy,,,,,,,,,0,64,64,64,,,,,,,,,,,,,,,1834.765108177904,None,"['b', 'u', 'd', 'd', 'y']",1,"[0.621586951892823, 0.7815475002862513, 0.9016092801466584, 1.06961123412475, 1.1974858031608164]",1834.765108177904,None,1834.7649123390206,1834.8651386126876,s190_11222022,001,2022_Nov_22_1712,test_typingtask_norepeats,2020.2.10,59.92561214576589,
tithe,tithe,,,,,,,,,0,65,65,65,,,,,,,,,,,,,,,1840.2652034577914,None,"['t', 'i', 't', 'h', 'e']",1,"[0.5614715740084648, 0.6494527417235076, 0.7933925250545144, 0.9375192206352949, 1.0093837049789727]",1840.2652034577914,None,1840.2651273627766,1840.3653866038658,s190_11222022,001,2022_Nov_22_1712,test_typingtask_norepeats,2020.2.10,59.92561214576589,
would,would,,,,,,,,,0,66,66,66,,,,,,,,,,,,,,,1845.7651364016347,None,"['w', 'o', 'u', 'l', 'd']",1,"[0.5415746988728642, 0.6135648167692125, 0.8375330427661538, 1.0855756369419396, 1.1735730217769742]",1845.7651364016347,None,1845.7652348518372,1845.8650118247606,s190_11222022,001,2022_Nov_22_1712,test_typingtask_norepeats,2020.2.10,59.92561214576589,
puppy,puppy,,,,,,,,,0,67,67,67,,,,,,,,,,,,,,,1851.2652110080235,None,"['p', 'u', 'p', 'p', 'y']",1,"[0.6013788925483823, 0.8974487278610468, 1.0093851727433503, 1.1694643278606236, 1.2415050538256764]",1851.2652110080235,None,1851.2651149016806,1851.364971528761,s190_11222022,001,2022_Nov_22_1712,test_typingtask_norepeats,2020.2.10,59.92561214576589,
edthe,edthe,,,,,,,,,0,68,68,68,,,,,,,,,,,,,,,1856.7654045466334,None,"['e', 'd', 't', 'h', 'e']",1,"[0.637214164249599, 0.8771948460489511, 1.0852969912812114, 1.2292311559431255, 1.3413086808286607]",1856.7654045466334,None,1856.765028040018,1856.865434135776,s190_11222022,001,2022_Nov_22_1712,test_typingtask_norepeats,2020.2.10,59.92561214576589,
buddy,buddy,,,,,,,,,0,69,69,69,,,,,,,,,,,,,,,1862.265486300923,None,"['b', 'u', 'd', 'd', 'y']",1,"[0.617105292622, 0.7851063786074519, 0.9132196167483926, 1.0891583529300988, 1.1851985328830779]",1862.265486300923,None,1862.2651895509102,1862.3654763880186,s190_11222022,001,2022_Nov_22_1712,test_typingtask_norepeats,2020.2.10,59.92561214576589,
lucky,lucky,,,,,,,,,0,70,70,70,,,,,,,,,,,,,,,1867.7650796766393,None,"['l', 'u', 'c', 'k', 'y']",1,"[0.7255619559437037, 0.9896335918456316, 1.1255622152239084, 1.2696407451294363, 1.4696406181901693]",1867.7650796766393,None,1867.7651857040823,1867.8652394670062,s190_11222022,001,2022_Nov_22_1712,test_typingtask_norepeats,2020.2.10,59.92561214576589,
druze,druze,,,,,,,,,0,71,71,71,,,,,,,,,,,,,,,1873.2650516107678,None,"['d', 'r', 'u', 'z', 'e']",1,"[0.6416568639688194, 1.0496124541386962, 1.2496325368992984, 1.353579540271312, 1.593526819255203]",1873.2650516107678,None,1873.265105340723,1873.365181399975,s190_11222022,001,2022_Nov_22_1712,test_typingtask_norepeats,2020.2.10,59.92561214576589,
theme,theme,,,,,,,,,0,72,72,72,,,,,,,,,,,,,,,1878.7649933188222,None,"['t', 'h', 'e', 'm', 'e']",1,"[0.5976928621530533, 0.7175942342728376, 0.8136414708569646, 0.9656686820089817, 1.0537400729954243]",1878.7649933188222,None,1878.7649073848502,1878.8651453587227,s190_11222022,001,2022_Nov_22_1712,test_typingtask_norepeats,2020.2.10,59.92561214576589,
buddy,buddy,,,,,,,,,0,73,73,73,,,,,,,,,,,,,,,1884.2650422328152,None,"['b', 'u', 'd', 'd', 'y']",1,"[0.6576178097166121, 0.8017192138358951, 0.9456538399681449, 1.1215503867715597, 1.2255698926746845]",1884.2650422328152,None,1884.2651185547934,1884.3650206699967,s190_11222022,001,2022_Nov_22_1712,test_typingtask_norepeats,2020.2.10,59.92561214576589,
kremp,kremp,,,,,,,,,0,74,74,74,,,,,,,,,,,,,,,1889.7649578340352,None,"['k', 'r', 'e', 'm', 'p']",1,"[0.8377369870431721, 0.9497429900802672, 1.0297100450843573, 1.181635889224708, 1.405755062121898]",1889.7649578340352,None,1889.7651047078893,1889.865249545779,s190_11222022,001,2022_Nov_22_1712,test_typingtask_norepeats,2020.2.10,59.92561214576589,
there,there,,,,,,,,,0,75,75,75,,,,,,,,,,,,,,,1895.2651173537597,None,"['t', 'h', 'e', 'r', 'e']",1,"[0.6815304779447615, 0.8015440301969647, 0.9135620119050145, 1.001572203822434, 1.1376009960658848]",1895.2651173537597,None,1895.2651974499227,1895.365116242785,s190_11222022,001,2022_Nov_22_1712,test_typingtask_norepeats,2020.2.10,59.92561214576589,
lucky,lucky,,,,,,,,,0,76,76,76,,,,,,,,,,,,,,,1900.7653865767643,None,"['l', 'u', 'c', 'k', 'y']",1,"[0.7332765562459826, 1.0533167202956975, 1.1812516790814698, 1.381212105974555, 1.5413160133175552]",1900.7653865767643,None,1900.7651681160555,1900.864942159038,s190_11222022,001,2022_Nov_22_1712,test_typingtask_norepeats,2020.2.10,59.92561214576589,
puppy,puppy,,,,,,,,,0,77,77,77,,,,,,,,,,,,,,,1906.2651387318037,None,"['p', 'u', 'p', 'p', 'y']",1,"[0.6814997969195247, 1.0415236712433398, 1.265524448826909, 1.4495571851730347, 1.6015044650994241]",1906.2651387318037,None,1906.265034597926,1906.365165465977,s190_11222022,001,2022_Nov_22_1712,test_typingtask_norepeats,2020.2.10,59.92561214576589,
druze,druze,,,,,,,,,0,78,78,78,,,,,,,,,,,,,,,1911.7652037888765,None,"['d', 'r', 'u', 'z', 'e']",1,"[0.6614871448837221, 0.8695129840634763, 1.0934068290516734, 1.1893895347602665, 1.3735076929442585]",1911.7652037888765,None,1911.7652656688356,1911.8650289396755,s190_11222022,001,2022_Nov_22_1712,test_typingtask_norepeats,2020.2.10,59.92561214576589,
tithe,tithe,,,,,,,,,0,79,79,79,,,,,,,,,,,,,,,1917.2651580176316,None,"['t', 'i', 't', 'h', 'e']",1,"[0.6335003990679979, 0.7375125619582832, 0.8894938752055168, 1.0414597392082214, 1.121538668870926]",1917.2651580176316,None,1917.2651984459721,1917.36491482798,s190_11222022,001,2022_Nov_22_1712,test_typingtask_norepeats,2020.2.10,59.92561214576589,
lucky,lucky,,,,,,,,,0,80,80,80,,,,,,,,,,,,,,,1922.7652572877705,None,"['l', 'u', 'c', 'k', 'y']",1,"[0.8054402810521424, 1.1173303970135748, 1.261413674801588, 1.4614180331118405, 1.6133914710953832]",1922.7652572877705,None,1922.7652916159482,1922.8650681297295,s190_11222022,001,2022_Nov_22_1712,test_typingtask_norepeats,2020.2.10,59.92561214576589,
faqir,faqir,,,,,,,,,0,81,81,81,,,,,,,,,,,,,,,1928.2656614137813,None,"['f', 'a', 'q', 'i', 'r']",1,"[0.7130324770696461, 0.9289506142958999, 1.2489865589886904, 1.4889982021413743, 1.6569253569468856]",1928.2656614137813,None,1928.2653223817238,1928.365249002818,s190_11222022,001,2022_Nov_22_1712,test_typingtask_norepeats,2020.2.10,59.92561214576589,
theme,theme,,,,,,,,,0,82,82,82,,,,,,,,,,,,,,,1933.7652294868603,None,"['t', 'h', 'e', 'm', 'e']",1,"[0.6054672640748322, 0.6933447360061109, 0.8293624157086015, 0.9574750168249011, 1.0694718579761684]",1933.7652294868603,None,1933.7653526939453,1933.865207501687,s190_11222022,001,2022_Nov_22_1712,test_typingtask_norepeats,2020.2.10,59.92561214576589,
edthe,edthe,,,,,,,,,0,83,83,83,,,,,,,,,,,,,,,1939.265426653903,None,"['e', 'd', 't', 'h', 'e']",1,"[0.8171535362489522, 1.0412298101000488, 1.225153076928109, 1.3771768962033093, 1.4652300900779665]",1939.265426653903,None,1939.265173710976,1939.3653753036633,s190_11222022,001,2022_Nov_22_1712,test_typingtask_norepeats,2020.2.10,59.92561214576589,
pykka,pykka,,,,,,,,,0,84,84,84,,,,,,,,,,,,,,,1944.7651505796239,None,"['p', 'y', 'k', 'k', 'a']",1,"[0.7174424352124333, 0.9335529571399093, 1.173444766085595, 1.3495463822036982, 1.4375653229653835]",1944.7651505796239,None,1944.7654020559044,1944.8653240869753,s190_11222022,001,2022_Nov_22_1712,test_typingtask_norepeats,2020.2.10,59.92561214576589,
think,think,,,,,,,,,0,85,85,85,,,,,,,,,,,,,,,1950.2650752696209,None,"['t', 'h', 'i', 'n', 'k']",1,"[0.6016997629776597, 0.7216240898706019, 0.9136010459624231, 1.0416008117608726, 1.2416448607109487]",1950.2650752696209,None,1950.2651708289982,1950.3652411117218,s190_11222022,001,2022_Nov_22_1712,test_typingtask_norepeats,2020.2.10,59.92561214576589,
haole,haole,,,,,,,,,0,86,86,86,,,,,,,,,,,,,,,1955.7651724177413,None,"['h', 'a', 'o', 'l', 'e']",1,"[0.6294260532595217, 0.7575426362454891, 0.9414437361992896, 1.1735416892915964, 1.269528475124389]",1955.7651724177413,None,1955.765245840978,1955.8652591747232,s190_11222022,001,2022_Nov_22_1712,test_typingtask_norepeats,2020.2.10,59.92561214576589,
puppy,puppy,,,,,,,,,0,87,87,87,,,,,,,,,,,,,,,1961.265038328711,None,"['p', 'u', 'p', 'p', 'y']",1,"[0.5935568800196052, 0.8895611809566617, 1.0095555488951504, 1.1775635872036219, 1.2816327400505543]",1961.265038328711,None,1961.2654178539292,1961.3651398918591,s190_11222022,001,2022_Nov_22_1712,test_typingtask_norepeats,2020.2.10,59.92561214576589,
edthe,edthe,,,,,,,,,0,88,88,88,,,,,,,,,,,,,,,1966.765124595724,None,"['e', 'd', 't', 'h', 'e']",1,"[0.6294715460389853, 0.9814690742641687, 1.1974914548918605, 1.3655754798091948, 1.4535948731936514]",1966.765124595724,None,1966.7652662448586,1966.865714753978,s190_11222022,001,2022_Nov_22_1712,test_typingtask_norepeats,2020.2.10,59.92561214576589,
kremp,kremp,,,,,,,,,0,89,89,89,,,,,,,,,,,,,,,1972.2652302058414,None,"['k', 'r', 'e', 'm', 'p']",1,"[0.7854809598065913, 0.9214920159429312, 0.9933771560899913, 1.12147231772542, 1.3614539140835404]",1972.2652302058414,None,1972.2651436311194,1972.3652639528736,s190_11222022,001,2022_Nov_22_1712,test_typingtask_norepeats,2020.2.10,59.92561214576589,
haole,haole,,,,,,,,,0,90,90,90,,,,,,,,,,,,,,,1977.7654535458423,None,"['h', 'a', 'o', 'l', 'e']",1,"[0.653259807266295, 0.7252382291480899, 0.9492097073234618, 1.1891867923550308, 1.2771423570811749]",1977.7654535458423,None,1977.7651082240977,1977.8650973257609,s190_11222022,001,2022_Nov_22_1712,test_typingtask_norepeats,2020.2.10,59.92561214576589,
edthe,edthe,,,,,,,,,0,91,91,91,,,,,,,,,,,,,,,1983.2653345367871,None,"['e', 'd', 't', 'h', 'e']",1,"[0.6733661368489265, 0.8893705559894443, 1.0653627240099013, 1.1933010411448777, 1.3052732250653207]",1983.2653345367871,None,1983.2651665858925,1983.3652204736136,s190_11222022,001,2022_Nov_22_1712,test_typingtask_norepeats,2020.2.10,59.92561214576589,
tithe,tithe,,,,,,,,,0,92,92,92,,,,,,,,,,,,,,,1988.765211911872,None,"['t', 'i', 't', 'h', 'e']",1,"[0.7494679926894605, 0.8214040407910943, 0.9654472228139639, 1.085482802707702, 1.197392894886434]",1988.765211911872,None,1988.7652360048146,1988.865009742789,s190_11222022,001,2022_Nov_22_1712,test_typingtask_norepeats,2020.2.10,59.92561214576589,
therm,therm,,,,,,,,,0,93,93,93,,,,,,,,,,,,,,,1994.2653682068922,None,"['t', 'h', 'e', 'r', 'm']",1,"[0.6012191898189485, 0.6973145017400384, 0.8172214888036251, 0.8732308717444539, 0.9853421561419964]",1994.2653682068922,None,1994.265330479108,1994.3651979709975,s190_11222022,001,2022_Nov_22_1712,test_typingtask_norepeats,2020.2.10,59.92561214576589,
heond,heond,,,,,,,,,0,94,94,94,,,,,,,,,,,,,,,1999.765487764962,None,"['h', 'e', 'o', 'n', 'd']",1,"[0.7331844982691109, 0.8851569392718375, 1.0291127632372081, 1.237264740280807, 1.3811430442146957]",1999.765487764962,None,1999.7653378677555,1999.8654451048933,s190_11222022,001,2022_Nov_22_1712,test_typingtask_norepeats,2020.2.10,59.92561214576589,
cheer,cheer,,,,,,,,,0,95,95,95,,,,,,,,,,,,,,,2005.2652913369238,None,"['c', 'h', 'e', 'e', 'r']",1,"[0.6733567276969552, 0.7932775970548391, 0.9214357719756663, 1.065353235695511, 1.2653625030070543]",2005.2652913369238,None,2005.2654004237615,2005.3653964889236,s190_11222022,001,2022_Nov_22_1712,test_typingtask_norepeats,2020.2.10,59.92561214576589,
therm,therm,,,,,,,,,0,96,96,96,,,,,,,,,,,,,,,2010.7652134979144,None,"['t', 'h', 'e', 'r', 'm']",1,"[0.6134436610154808, 0.7094505811110139, 0.8294271090999246, 0.9334785640239716, 1.0214948812499642]",2010.7652134979144,None,2010.7653989271262,2010.8653300716542,s190_11222022,001,2022_Nov_22_1712,test_typingtask_norepeats,2020.2.10,59.92561214576589,
cheer,cheer,,,,,,,,,0,97,97,97,,,,,,,,,,,,,,,2016.2654001666233,None,"['c', 'h', 'e', 'e', 'r']",1,"[0.5693019898608327, 0.6892454591579735, 0.8252945388667285, 0.9452818571589887, 1.2972476920112967]",2016.2654001666233,None,2016.2654711088167,2016.3653839607723,s190_11222022,001,2022_Nov_22_1712,test_typingtask_norepeats,2020.2.10,59.92561214576589,
haole,haole,,,,,,,,,0,98,98,98,,,,,,,,,,,,,,,2021.765244810842,None,"['h', 'a', 'o', 'l', 'e']",1,"[0.6694714231416583, 0.7894005100242794, 0.9813496670685709, 1.2134514511562884, 1.285466921981424]",2021.765244810842,None,2021.7653685590253,2021.8653524229303,s190_11222022,001,2022_Nov_22_1712,test_typingtask_norepeats,2020.2.10,59.92561214576589,
cooed,cooed,,,,,,,,,0,99,99,99,,,,,,,,,,,,,,,2027.2650741618127,None,"['c', 'o', 'o', 'e', 'd']",1,"[0.6656263084150851, 0.7856193613260984, 0.9775104019790888, 1.089606162160635, 1.3536426620557904]",2027.2650741618127,None,2027.2651759997011,2027.3653548578732,s190_11222022,001,2022_Nov_22_1712,test_typingtask_norepeats,2020.2.10,59.92561214576589,
edthe,edthe,,,,,,,,,0,100,100,100,,,,,,,,,,,,,,,2032.7820193190128,None,"['e', 'd', 't', 'h', 'e']",1,"[0.6126063098199666, 0.8366593969985843, 1.0286703840829432, 1.1646160590462387, 1.2765753101557493]",2032.7820193190128,None,2032.7818126199768,2032.8822800428607,s190_11222022,001,2022_Nov_22_1712,test_typingtask_norepeats,2020.2.10,59.92561214576589,
pykka,pykka,,,,,,,,,0,101,101,101,,,,,,,,,,,,,,,2038.2821594397537,None,"['p', 'y', 'k', 'k', 'a']",1,"[0.6565935229882598, 0.8325529266148806, 1.1045219278894365, 1.288565649650991, 1.4004310448653996]",2038.2821594397537,None,2038.2819370768034,2038.381920227781,s190_11222022,001,2022_Nov_22_1712,test_typingtask_norepeats,2020.2.10,59.92561214576589,
belly,belly,,,,,,,,,0,102,102,102,,,,,,,,,,,,,,,2043.7820121287368,None,"['b', 'e', 'l', 'l', 'y']",1,"[0.7486464050598443, 0.8446704940870404, 0.9566971841268241, 1.1486844480969012, 1.2446377240121365]",2043.7820121287368,None,2043.781972695701,2043.8818818558939,s190_11222022,001,2022_Nov_22_1712,test_typingtask_norepeats,2020.2.10,59.92561214576589,
theme,theme,,,,,,,,,0,103,103,103,,,,,,,,,,,,,,,2049.2821204387583,None,"['t', 'h', 'e', 'm', 'e']",1,"[0.6086136708036065, 0.7205930929630995, 0.8325834348797798, 0.968465518206358, 1.0805781157687306]",2049.2821204387583,None,2049.282087117061,2049.3821312347427,s190_11222022,001,2022_Nov_22_1712,test_typingtask_norepeats,2020.2.10,59.92561214576589,
vanru,vanru,,,,,,,,,0,104,104,104,,,,,,,,,,,,,,,2054.7821998959407,None,"['v', 'a', 'n', 'r', 'u']",1,"[0.8365451330319047, 0.9884985270909965, 1.1485003153793514, 1.3165078023448586, 1.4603957729414105]",2054.7821998959407,None,2054.7819789430127,2054.882066713646,s190_11222022,001,2022_Nov_22_1712,test_typingtask_norepeats,2020.2.10,59.92561214576589,
there,there,,,,,,,,,0,105,105,105,,,,,,,,,,,,,,,2060.2819764707237,None,"['t', 'h', 'e', 'r', 'e']",1,"[0.6087312297895551, 0.7047306760214269, 0.8327144128270447, 0.9126091268844903, 1.0487211770378053]",2060.2819764707237,None,2060.2820509398357,2060.3823622488417,s190_11222022,001,2022_Nov_22_1712,test_typingtask_norepeats,2020.2.10,59.92561214576589,
haole,haole,,,,,,,,,0,106,106,106,,,,,,,,,,,,,,,2065.7825323538855,None,"['h', 'a', 'o', 'l', 'e']",1,"[0.7000535549595952, 0.8120851689018309, 0.9881652388721704, 1.220198368653655, 1.3082225415855646]",2065.7825323538855,None,2065.7821009830573,2065.8820863426663,s190_11222022,001,2022_Nov_22_1712,test_typingtask_norepeats,2020.2.10,59.92561214576589,
druze,druze,,,,,,,,,0,107,107,107,,,,,,,,,,,,,,,2071.282021428924,None,"['d', 'r', 'u', 'z', 'e']",1,"[0.6565751759335399, 0.8486685431562364, 1.0086389309726655, 1.0886926110833883, 1.2326440801844]",2071.282021428924,None,2071.282006892003,2071.3823056709953,s190_11222022,001,2022_Nov_22_1712,test_typingtask_norepeats,2020.2.10,59.92561214576589,
therm,therm,,,,,,,,,0,108,108,108,,,,,,,,,,,,,,,2076.7819827306084,None,"['t', 'h', 'e', 'r', 'm']",1,"[0.6046102088876069, 0.7246640617959201, 0.8367418181151152, 0.9167358297854662, 1.020744637120515]",2076.7819827306084,None,2076.7820507517085,2076.882081430871,s190_11222022,001,2022_Nov_22_1712,test_typingtask_norepeats,2020.2.10,59.92561214576589,
zibja,zibja,,,,,,,,,0,109,109,109,,,,,,,,,,,,,,,2082.2819796358235,None,"['z', 'i', 'b', 'j', 'a']",1,"[0.7366875386796892, 0.9367648740299046, 1.0806260108947754, 1.2566090188920498, 1.3606180758215487]",2082.2819796358235,None,2082.282030997891,2082.3821428669617,s190_11222022,001,2022_Nov_22_1712,test_typingtask_norepeats,2020.2.10,59.92561214576589,
cooed,cooed,,,,,,,,,0,110,110,110,,,,,,,,,,,,,,,2087.7821329697035,None,"['c', 'o', 'o', 'e', 'd']",1,"[0.6124760298989713, 0.7085878578945994, 0.9004598050378263, 0.9884821488521993, 1.2205233359709382]",2087.7821329697035,None,2087.7820508150385,2087.8821791866794,s190_11222022,001,2022_Nov_22_1712,test_typingtask_norepeats,2020.2.10,59.92561214576589,
vodka,vodka,,,,,,,,,0,111,111,111,,,,,,,,,,,,,,,2093.2820566026494,None,"['v', 'o', 'd', 'k', 'a']",1,"[0.6725950962863863, 0.768654091283679, 0.9526556450873613, 1.1526547390967607, 1.2645984990522265]",2093.2820566026494,None,2093.2822176670657,2093.382375553716,s190_11222022,001,2022_Nov_22_1712,test_typingtask_norepeats,2020.2.10,59.92561214576589,
champ,champ,,,,,,,,,0,112,112,112,,,,,,,,,,,,,,,2098.782123423647,None,"['c', 'h', 'a', 'm', 'p']",1,"[0.5966041730716825, 0.6924772062338889, 0.8125701271928847, 0.9644718384370208, 1.172521430067718]",2098.782123423647,None,2098.7819860289806,2098.882139378693,s190_11222022,001,2022_Nov_22_1712,test_typingtask_norepeats,2020.2.10,59.92561214576589,
faqir,faqir,,,,,,,,,0,113,113,113,,,,,,,,,,,,,,,2104.28223486105,None,"['f', 'a', 'q', 'i', 'r']",1,"[0.616467313375324, 0.7364926491864026, 0.992350832093507, 1.096446255221963, 1.3285222193226218]",2104.28223486105,None,2104.2819091836923,2104.382413248997,s190_11222022,001,2022_Nov_22_1712,test_typingtask_norepeats,2020.2.10,59.92561214576589,
zibja,zibja,,,,,,,,,0,114,114,114,,,,,,,,,,,,,,,2109.782166732941,None,"['z', 'i', 'b', 'j', 'a']",1,"[0.684413829818368, 0.8685689480043948, 1.0205566361546516, 1.212420767173171, 1.3245487208478153]",2109.782166732941,None,2109.7819742910565,2109.8819699259475,s190_11222022,001,2022_Nov_22_1712,test_typingtask_norepeats,2020.2.10,59.92561214576589,
cheer,cheer,,,,,,,,,0,115,115,115,,,,,,,,,,,,,,,2115.2821932230145,None,"['c', 'h', 'e', 'e', 'r']",1,"[0.552523551043123, 0.6805097991600633, 0.7925492059439421, 0.9365220651961863, 1.1525152567774057]",2115.2821932230145,None,2115.2822720791214,2115.3823356810026,s190_11222022,001,2022_Nov_22_1712,test_typingtask_norepeats,2020.2.10,59.92561214576589,
kremp,kremp,,,,,,,,,0,116,116,116,,,,,,,,,,,,,,,2120.7828455199488,None,"['k', 'r', 'e', 'm', 'p']",1,"[0.6996990190818906, 0.8438152042217553, 0.9397723469883204, 1.075700213201344, 1.2996984333731234]",2120.7828455199488,None,2120.7829260040075,2120.8820181936026,s190_11222022,001,2022_Nov_22_1712,test_typingtask_norepeats,2020.2.10,59.92561214576589,
think,think,,,,,,,,,0,117,117,117,,,,,,,,,,,,,,,2126.282862490043,None,"['t', 'h', 'i', 'n', 'k']",1,"[0.6078514591790736, 0.6878340267576277, 0.8877583597786725, 1.0478268708102405, 1.2398493778891861]",2126.282862490043,None,2126.2821894098074,2126.382060973905,s190_11222022,001,2022_Nov_22_1712,test_typingtask_norepeats,2020.2.10,59.92561214576589,
vodka,vodka,,,,,,,,,0,118,118,118,,,,,,,,,,,,,,,2131.782457933761,None,"['v', 'o', 'd', 'k', 'a']",1,"[0.7641517147421837, 0.9001318798400462, 1.052254542708397, 1.2283035926520824, 1.3722510626539588]",2131.782457933761,None,2131.782090192754,2131.8821836658753,s190_11222022,001,2022_Nov_22_1712,test_typingtask_norepeats,2020.2.10,59.92561214576589,
vanru,vanru,,,,,,,,,0,119,119,119,,,,,,,,,,,,,,,2137.282193044666,None,"['v', 'a', 'n', 'r', 'u']",1,"[0.6404597680084407, 0.8003969117999077, 0.928460949100554, 1.0804733620025218, 1.224517575930804]",2137.282193044666,None,2137.282214945741,2137.382367110811,s190_11222022,001,2022_Nov_22_1712,test_typingtask_norepeats,2020.2.10,59.92561214576589,
