string,corrAns,practice_trials.thisRepN,practice_trials.thisTrialN,practice_trials.thisN,practice_trials.thisIndex,trials_1.thisRepN,trials_1.thisTrialN,trials_1.thisN,trials_1.thisIndex,trials_2.thisRepN,trials_2.thisTrialN,trials_2.thisN,trials_2.thisIndex,key_resp_0.keys,key_resp_0.corr,key_resp_0.rt,text_1.started,text_1.stopped,key_resp_1.keys,key_resp_1.corr,key_resp_1.rt,key_resp_1.started,key_resp_1.stopped,sound_1A_1.started,sound_1A_1.stopped,break_time.started,break_time.stopped,text_2.started,text_2.stopped,key_resp_2.keys,key_resp_2.corr,key_resp_2.rt,key_resp_2.started,key_resp_2.stopped,sound_1A_2.started,sound_1A_2.stopped,participant,session,date,expName,psychopyVersion,frameRate,
fresh,fresh,0,0,0,0,,,,,,,,,"['f', 'r', 'e', 's', 'h']",1,"[1.328159497003071, 1.5601889080135152, 1.6562603340134956, 1.8721516859950498, 1.9682315700338222]",,,,,,,,,,,,,,,,,,,,,s198_02202023,001,2023_Feb_20_1733,test_typingtask_norepeats,2020.2.10,60.014305716887726,
dream,dream,0,1,1,1,,,,,,,,,"['d', 'r', 'e', 'a', 'm']",1,"[1.0668954009888694, 1.3067231770255603, 1.4505982659757137, 1.5466889290255494, 1.634614877984859]",,,,,,,,,,,,,,,,,,,,,s198_02202023,001,2023_Feb_20_1733,test_typingtask_norepeats,2020.2.10,60.014305716887726,
slime,slime,0,2,2,2,,,,,,,,,"['s', 'l', 'i', 'm', 'e']",1,"[0.8144740260322578, 0.9185439019929618, 1.110447354032658, 1.2865487710223533, 1.366599494998809]",,,,,,,,,,,,,,,,,,,,,s198_02202023,001,2023_Feb_20_1733,test_typingtask_norepeats,2020.2.10,60.014305716887726,
heond,heond,,,,,0,0,0,0,,,,,,,,518338.635783824,None,"['h', 'e', 'o', 'n', 'd']",1,"[1.2249255070346408, 1.488880422024522, 1.592881988035515, 1.8169045310351066, 1.9288555100210942]",518338.635783824,None,518338.6306882918,518338.73060189304,,,,,,,,,,,,s198_02202023,001,2023_Feb_20_1733,test_typingtask_norepeats,2020.2.10,60.014305716887726,
puppy,puppy,,,,,0,1,1,1,,,,,,,,518344.11366875505,None,"['p', 'u', 'p', 'p', 'y']",1,"[0.8269523450289853, 1.0589600990060717, 1.258958414022345, 1.4109904629876837, 1.6110791150131263]",518344.11366875505,None,518344.1135157896,518344.213687885,,,,,,,,,,,,s198_02202023,001,2023_Feb_20_1733,test_typingtask_norepeats,2020.2.10,60.014305716887726,
zibja,zibja,,,,,0,2,2,2,,,,,,,,518349.61461411405,None,"['z', 'i', 'b', 'j', 'a']",1,"[1.222113191965036, 1.3741067149676383, 2.1580885109724477, 2.6380695219850168, 2.7741153679671697]",518349.61461411405,None,518349.6132225256,518349.71373191505,,,,,,,,,,,,s198_02202023,001,2023_Feb_20_1733,test_typingtask_norepeats,2020.2.10,60.014305716887726,
about,about,,,,,0,3,3,3,,,,,,,,518355.113508085,None,"['a', 'b', 'o', 'u', 't']",1,"[0.7552375929662958, 0.8671536309993826, 1.0752820459892973, 1.1552238009753637, 1.259124280011747]",518355.113508085,None,518355.1137441356,518355.21341462503,,,,,,,,,,,,s198_02202023,001,2023_Feb_20_1733,test_typingtask_norepeats,2020.2.10,60.014305716887726,
tithe,tithe,,,,,0,4,4,4,,,,,,,,518360.613708297,None,"['t', 'i', 't', 'h', 'e']",1,"[0.9589544559712522, 1.071022557967808, 1.2470196529757231, 1.5429077809676528, 2.1509081789990887]",518360.613708297,None,518360.6136728736,518360.71346615604,,,,,,,,,,,,s198_02202023,001,2023_Feb_20_1733,test_typingtask_norepeats,2020.2.10,60.014305716887726,
druze,druze,,,,,0,5,5,5,,,,,,,,518366.11343499704,None,"['d', 'r', 'u', 'z', 'e']",1,"[0.8511775900260545, 1.0753638559835963, 1.1632713730214164, 1.5712684390018694, 1.8192912639933638]",518366.11343499704,None,518366.1134585226,518366.21328636503,,,,,,,,,,,,s198_02202023,001,2023_Feb_20_1733,test_typingtask_norepeats,2020.2.10,60.014305716887726,
cooed,cooed,,,,,0,6,6,6,,,,,,,,518371.61322512804,None,"['c', 'o', 'o', 'e', 'd']",1,"[0.7673878829809837, 0.9354766790056601, 1.1194172849645838, 1.2313951620017178, 1.4314348030020483]",518371.61322512804,None,518371.6135071906,518371.71344622603,,,,,,,,,,,,s198_02202023,001,2023_Feb_20_1733,test_typingtask_norepeats,2020.2.10,60.014305716887726,
lucky,lucky,,,,,0,7,7,7,,,,,,,,518377.113836415,None,"['l', 'u', 'c', 'k', 'y']",1,"[0.6427997259888798, 0.8188335730228573, 0.9307932020165026, 1.0588779560057446, 1.250783235009294]",518377.113836415,None,518377.1136253616,518377.21371602203,,,,,,,,,,,,s198_02202023,001,2023_Feb_20_1733,test_typingtask_norepeats,2020.2.10,60.014305716887726,
vodka,vodka,,,,,0,8,8,8,,,,,,,,518382.61344720004,None,"['v', 'o', 'd', 'k', 'a']",1,"[0.9592664299998432, 1.0472599820350297, 1.2552750440081581, 1.487290411023423, 1.5671674930490553]",518382.61344720004,None,518382.6132910296,518382.713445699,,,,,,,,,,,,s198_02202023,001,2023_Feb_20_1733,test_typingtask_norepeats,2020.2.10,60.014305716887726,
tithe,tithe,,,,,0,9,9,9,,,,,,,,518388.113291834,None,"['t', 'i', 't', 'h', 'e']",1,"[0.8273581250105053, 1.0034523130161688, 1.2594494700315408, 1.3554484950145707, 1.9793369870167226]",518388.113291834,None,518388.1133853216,518388.213361148,,,,,,,,,,,,s198_02202023,001,2023_Feb_20_1733,test_typingtask_norepeats,2020.2.10,60.014305716887726,
about,about,,,,,0,10,10,10,,,,,,,,518393.61354600603,None,"['a', 'b', 'o', 'u', 't']",1,"[0.679139947053045, 0.7911389640066773, 0.999162309046369, 1.0871732120285742, 1.1991842450224794]",518393.61354600603,None,518393.61375259364,518393.71365856903,,,,,,,,,,,,s198_02202023,001,2023_Feb_20_1733,test_typingtask_norepeats,2020.2.10,60.014305716887726,
champ,champ,,,,,0,11,11,11,,,,,,,,518399.11364086904,None,"['c', 'h', 'a', 'm', 'p']",1,"[0.8269985989900306, 0.9150595890241675, 1.0749991440097801, 1.1950420250068419, 1.4110600790008903]",518399.11364086904,None,518399.11375271063,518399.213675906,,,,,,,,,,,,s198_02202023,001,2023_Feb_20_1733,test_typingtask_norepeats,2020.2.10,60.014305716887726,
cheer,cheer,,,,,0,12,12,12,,,,,,,,518404.613134416,None,"['c', 'h', 'e', 'e', 'r']",1,"[0.6875722979893908, 0.7835916519979946, 0.9434920100029558, 1.1115835169912316, 1.2955501839751378]",518404.613134416,None,518404.6134808756,518404.71330035804,,,,,,,,,,,,s198_02202023,001,2023_Feb_20_1733,test_typingtask_norepeats,2020.2.10,60.014305716887726,
belly,belly,,,,,0,13,13,13,,,,,,,,518410.11338603403,None,"['b', 'e', 'l', 'l', 'y']",1,"[0.779299005982466, 0.8913542379741557, 1.075383335002698, 1.2353016079869121, 1.4113208029884845]",518410.11338603403,None,518410.11351510766,518410.21337793703,,,,,,,,,,,,s198_02202023,001,2023_Feb_20_1733,test_typingtask_norepeats,2020.2.10,60.014305716887726,
edthe,edthe,,,,,0,14,14,14,,,,,,,,518415.613540936,None,"['e', 'd', 't', 'h', 'e']",1,"[0.8070784389856271, 1.0951740460004658, 1.7191674169735052, 1.7991592600010335, 2.2231498059700243]",518415.613540936,None,518415.6132891526,518415.713474658,,,,,,,,,,,,s198_02202023,001,2023_Feb_20_1733,test_typingtask_norepeats,2020.2.10,60.014305716887726,
lucky,lucky,,,,,0,15,15,15,,,,,,,,518421.113471141,None,"['l', 'u', 'c', 'k', 'y']",1,"[0.6511534820310771, 0.8431603300268762, 0.9791757900384255, 1.0833032270311378, 1.2672237069928087]",518421.113471141,None,518421.1132830647,518421.213470708,,,,,,,,,,,,s198_02202023,001,2023_Feb_20_1733,test_typingtask_norepeats,2020.2.10,60.014305716887726,
heond,heond,,,,,0,16,16,16,,,,,,,,518426.61351107,None,"['h', 'e', 'o', 'n', 'd']",1,"[0.7832277279812843, 0.9352188300108537, 1.0231772219995037, 1.2071699709631503, 1.2791177199687809]",518426.61351107,None,518426.6135710636,518426.713315665,,,,,,,,,,,,s198_02202023,001,2023_Feb_20_1733,test_typingtask_norepeats,2020.2.10,60.014305716887726,
haole,haole,,,,,0,17,17,17,,,,,,,,518432.113326231,None,"['h', 'a', 'o', 'l', 'e']",1,"[0.8834406139794737, 1.219364066957496, 1.771358068974223, 2.2034019619459286, 2.4512946879840456]",518432.113326231,None,518432.1136555326,518432.213657747,,,,,,,,,,,,s198_02202023,001,2023_Feb_20_1733,test_typingtask_norepeats,2020.2.10,60.014305716887726,
think,think,,,,,0,18,18,18,,,,,,,,518437.61347906804,None,"['t', 'h', 'i', 'n', 'k']",1,"[0.6871962190489285, 0.7592285890132189, 0.8872594500426203, 1.0472310000332072, 1.1911446599988267]",518437.61347906804,None,518437.61359542166,518437.713303162,,,,,,,,,,,,s198_02202023,001,2023_Feb_20_1733,test_typingtask_norepeats,2020.2.10,60.014305716887726,
about,about,,,,,0,19,19,19,,,,,,,,518443.11380368203,None,"['a', 'b', 'o', 'u', 't']",1,"[0.6029314139741473, 0.6989031639532186, 0.8989201579825021, 0.9709338109823875, 1.0989230489940383]",518443.11380368203,None,518443.1137476916,518443.21386202204,,,,,,,,,,,,s198_02202023,001,2023_Feb_20_1733,test_typingtask_norepeats,2020.2.10,60.014305716887726,
theme,theme,,,,,0,20,20,20,,,,,,,,518448.61386330705,None,"['t', 'h', 'e', 'm', 'e']",1,"[0.630765434994828, 0.7108361840364523, 0.862886291986797, 0.9667564510018565, 1.0868714959942736]",518448.61386330705,None,518448.61412410357,518448.713882374,,,,,,,,,,,,s198_02202023,001,2023_Feb_20_1733,test_typingtask_norepeats,2020.2.10,60.014305716887726,
tithe,tithe,,,,,0,21,21,21,,,,,,,,518454.113529228,None,"['t', 'h', 't', 'e']",0,"[0.691085624974221, 0.7791526970104314, 0.939173195976764, 1.8191594330128282]",518454.113529228,None,518454.11350179766,518454.213899995,,,,,,,,,,,,s198_02202023,001,2023_Feb_20_1733,test_typingtask_norepeats,2020.2.10,60.014305716887726,
edthe,edthe,,,,,0,22,22,22,,,,,,,,518459.61353366,None,"['e', 'd', 't', 'h', 'e']",1,"[0.8151906249695458, 1.0872055200161412, 1.535172762000002, 1.6151543259620667, 2.111231880960986]",518459.61353366,None,518459.6133785546,518459.71335130505,,,,,,,,,,,,s198_02202023,001,2023_Feb_20_1733,test_typingtask_norepeats,2020.2.10,60.014305716887726,
cooed,cooed,,,,,0,23,23,23,,,,,,,,518465.113653393,None,"['c', 'o', 'o', 'e', 'd']",1,"[0.6590401040157303, 0.835045310028363, 0.9950547880143858, 1.0832682700129226, 1.274952467996627]",518465.113653393,None,518465.1137237046,518465.213695953,,,,,,,,,,,,s198_02202023,001,2023_Feb_20_1733,test_typingtask_norepeats,2020.2.10,60.014305716887726,
edthe,edthe,,,,,0,24,24,24,,,,,,,,518470.613792002,None,"['e', 'd', 't', 'h', 'e']",1,"[0.8148517389781773, 1.0629561679670587, 1.334936041967012, 1.4149264119914733, 1.814863367995713]",518470.613792002,None,518470.61391383957,518470.713797228,,,,,,,,,,,,s198_02202023,001,2023_Feb_20_1733,test_typingtask_norepeats,2020.2.10,60.014305716887726,
druze,druze,,,,,0,25,25,25,,,,,,,,518476.113492864,None,"['d', 'r', 'u', 'z', 'e']",1,"[0.6592040339601226, 0.8992534090066329, 0.9632585569634102, 1.25113126198994, 1.4752544490038417]",518476.113492864,None,518476.1136470076,518476.213492004,,,,,,,,,,,,s198_02202023,001,2023_Feb_20_1733,test_typingtask_norepeats,2020.2.10,60.014305716887726,
faqir,faqir,,,,,0,26,26,26,,,,,,,,518481.63022861205,None,"['f', 'a', 'q', 'i', 'r']",1,"[0.9904075619997457, 1.0945335929864086, 1.4385152740287594, 1.7824824950075708, 2.2784605249762535]",518481.63022861205,None,518481.6302277206,518481.729890378,,,,,,,,,,,,s198_02202023,001,2023_Feb_20_1733,test_typingtask_norepeats,2020.2.10,60.014305716887726,
belly,belly,,,,,0,27,27,27,,,,,,,,518487.130419071,None,"['b', 'e', 'l', 'l', 'y']",1,"[0.6823507450171746, 0.794287606026046, 0.9383213369874284, 1.0743173690279946, 1.2502555359969847]",518487.130419071,None,518487.1306063746,518487.23012897,,,,,,,,,,,,s198_02202023,001,2023_Feb_20_1733,test_typingtask_norepeats,2020.2.10,60.014305716887726,
puppy,puppy,,,,,0,28,28,28,,,,,,,,518492.630323469,None,"['p', 'u', 'p', 'p', 'y']",1,"[0.5743031200254336, 0.7663886710070074, 0.9423784289974719, 1.0943763030227274, 1.2864032970392145]",518492.630323469,None,518492.63055103563,518492.73069392703,,,,,,,,,,,,s198_02202023,001,2023_Feb_20_1733,test_typingtask_norepeats,2020.2.10,60.014305716887726,
druze,druze,,,,,0,29,29,29,,,,,,,,518498.13037978305,None,"['d', 'r', 'u', 'z', 'e']",1,"[0.7142349039786495, 0.9303122860146686, 1.0102288289926946, 1.2663635730277747, 1.4903506279806606]",518498.13037978305,None,518498.13044906163,518498.230119944,,,,,,,,,,,,s198_02202023,001,2023_Feb_20_1733,test_typingtask_norepeats,2020.2.10,60.014305716887726,
would,would,,,,,0,30,30,30,,,,,,,,518503.63043787604,None,"['w', 'o', 'u', 'l', 'd']",1,"[0.622312885010615, 0.7582947270129807, 0.8383056250168011, 1.0302828020066954, 1.1261742950300686]",518503.63043787604,None,518503.63034717564,518503.730252757,,,,,,,,,,,,s198_02202023,001,2023_Feb_20_1733,test_typingtask_norepeats,2020.2.10,60.014305716887726,
cheer,cheer,,,,,0,31,31,31,,,,,,,,518509.130353951,None,"['c', 'h', 'e', 'e', 'r']",1,"[0.6982736180070788, 0.7783624120056629, 0.9303528100135736, 1.0823690370307304, 1.2663687680033036]",518509.130353951,None,518509.1303040106,518509.23086240905,,,,,,,,,,,,s198_02202023,001,2023_Feb_20_1733,test_typingtask_norepeats,2020.2.10,60.014305716887726,
cooed,cooed,,,,,0,32,32,32,,,,,,,,518514.630533191,None,"['c', 'o', 'o', 'e', 'd']",1,"[0.6302110039978288, 0.7821915660169907, 0.9580978830344975, 1.0701986910426058, 1.2781447999877855]",518514.630533191,None,518514.6306577326,518514.730470443,,,,,,,,,,,,s198_02202023,001,2023_Feb_20_1733,test_typingtask_norepeats,2020.2.10,60.014305716887726,
pykka,pykka,,,,,0,33,33,33,,,,,,,,518520.130166797,None,"['p', 'y', 'k', 'k', 'a']",1,"[0.6744623809936456, 0.9225237829959951, 1.3065747159998864, 1.4825575329596177, 1.6344551849761046]",518520.130166797,None,518520.1302165217,518520.22997791803,,,,,,,,,,,,s198_02202023,001,2023_Feb_20_1733,test_typingtask_norepeats,2020.2.10,60.014305716887726,
faqir,faqir,,,,,0,34,34,34,,,,,,,,518525.630484174,None,"['f', 'a', 'q', 'i', 'r']",1,"[0.934134774026461, 1.0141823410522193, 1.2942161930259317, 1.5022459050524049, 1.6541932680411264]",518525.630484174,None,518525.63073068764,518525.730179971,,,,,,,,,,,,s198_02202023,001,2023_Feb_20_1733,test_typingtask_norepeats,2020.2.10,60.014305716887726,
cooed,cooed,,,,,0,35,35,35,,,,,,,,518531.13012464,None,"['c', 'o', 'o', 'e', 'd']",1,"[0.6504905889742076, 0.794576317013707, 0.9465043799718842, 1.0665523260249756, 1.2666675560176373]",518531.13012464,None,518531.13025588065,518531.229812611,,,,,,,,,,,,s198_02202023,001,2023_Feb_20_1733,test_typingtask_norepeats,2020.2.10,60.014305716887726,
think,think,,,,,0,36,36,36,,,,,,,,518536.630197676,None,"['t', 'h', 'i', 'n', 'k']",1,"[0.694491604983341, 0.7905289909685962, 0.9185617589973845, 1.1185046709724702, 1.2624325779615901]",518536.630197676,None,518536.63025422266,518536.730105141,,,,,,,,,,,,s198_02202023,001,2023_Feb_20_1733,test_typingtask_norepeats,2020.2.10,60.014305716887726,
belly,belly,,,,,0,37,37,37,,,,,,,,518542.130292612,None,"['b', 'e', 'l', 'l', 'y']",1,"[0.6983798859873787, 0.826330145006068, 0.9463361850357614, 1.1063297350192443, 1.2824329670402221]",518542.130292612,None,518542.13022677565,518542.229969793,,,,,,,,,,,,s198_02202023,001,2023_Feb_20_1733,test_typingtask_norepeats,2020.2.10,60.014305716887726,
vodka,vodka,,,,,0,38,38,38,,,,,,,,518547.63058979204,None,"['v', 'o', 'd', 'k', 'a']",1,"[1.062125391967129, 1.1900389780057594, 1.4460973459645174, 1.638153882988263, 1.7663081180071458]",518547.63058979204,None,518547.63041826466,518547.730122515,,,,,,,,,,,,s198_02202023,001,2023_Feb_20_1733,test_typingtask_norepeats,2020.2.10,60.014305716887726,
theme,theme,,,,,0,39,39,39,,,,,,,,518553.13057182904,None,"['t', 'h', 'e', 'm', 'e']",1,"[0.6260511199943721, 0.6980538939824328, 0.8420453429571353, 0.9620710799936205, 1.082150844973512]",518553.13057182904,None,518553.1306304346,518553.229898969,,,,,,,,,,,,s198_02202023,001,2023_Feb_20_1733,test_typingtask_norepeats,2020.2.10,60.014305716887726,
would,would,,,,,0,40,40,40,,,,,,,,518558.63044011005,None,"['w', 'o', 'u', 'l', 'd']",1,"[0.5822814929997548, 0.6942483869497664, 0.7583109569968656, 0.9421921809553169, 1.0462503669550642]",518558.63044011005,None,518558.6304274036,518558.730040277,,,,,,,,,,,,s198_02202023,001,2023_Feb_20_1733,test_typingtask_norepeats,2020.2.10,60.014305716887726,
therm,therm,,,,,0,41,41,41,,,,,,,,518564.13034674904,None,"['t', 'h', 'e', 'r', 'm']",1,"[0.7303703940124251, 0.8183468590141274, 1.0183256010059267, 1.2342985410359688, 1.3143197360332124]",518564.13034674904,None,518564.1304870616,518564.230316799,,,,,,,,,,,,s198_02202023,001,2023_Feb_20_1733,test_typingtask_norepeats,2020.2.10,60.014305716887726,
champ,champ,,,,,0,42,42,42,,,,,,,,518569.630579472,None,"['c', 'h', 'a', 'm', 'p']",1,"[0.7100930120213889, 0.7660865830257535, 1.0461007470148616, 1.1980870179831982, 1.3260512920096517]",518569.630579472,None,518569.6307093246,518569.73064798,,,,,,,,,,,,s198_02202023,001,2023_Feb_20_1733,test_typingtask_norepeats,2020.2.10,60.014305716887726,
druze,druze,,,,,0,43,43,43,,,,,,,,518575.13066692505,None,"['d', 'u', 'r', 'z', 'e']",0,"[0.714045989967417, 0.8020569189684466, 0.9619406589772552, 1.4499256649869494, 1.7300128889619373]",518575.13066692505,None,518575.1304916387,518575.23113735503,,,,,,,,,,,,s198_02202023,001,2023_Feb_20_1733,test_typingtask_norepeats,2020.2.10,60.014305716887726,
theme,theme,,,,,0,44,44,44,,,,,,,,518580.630350575,None,"['t', 'h', 'e', 'm', 'e']",1,"[0.6303753150277771, 0.7023801360046491, 0.8383274259977043, 0.9582959120161831, 1.06225183600327]",518580.630350575,None,518580.63058850565,518580.73014519,,,,,,,,,,,,s198_02202023,001,2023_Feb_20_1733,test_typingtask_norepeats,2020.2.10,60.014305716887726,
zibja,zibja,,,,,0,45,45,45,,,,,,,,518586.130338936,None,"['z', 'i', 'b', 'j', 'a']",1,"[0.8583460670197383, 0.9783733970252797, 1.322389708016999, 1.578403153049294, 1.6743887470220216]",518586.130338936,None,518586.1302748186,518586.23021038604,,,,,,,,,,,,s198_02202023,001,2023_Feb_20_1733,test_typingtask_norepeats,2020.2.10,60.014305716887726,
lucky,lucky,,,,,0,46,46,46,,,,,,,,518591.63060256705,None,"['l', 'u', 'c', 'k', 'y']",1,"[0.6620929980417714, 0.8301238220301457, 0.9821222460013814, 1.0861140910419635, 1.2941833499935456]",518591.63060256705,None,518591.6307210326,518591.73007050104,,,,,,,,,,,,s198_02202023,001,2023_Feb_20_1733,test_typingtask_norepeats,2020.2.10,60.014305716887726,
cheer,cheer,,,,,0,47,47,47,,,,,,,,518597.130216769,None,"['c', 'h', 'e', 'e', 'r']",1,"[0.5945050499867648, 0.650398429017514, 0.8264075859915465, 0.9864746879902668, 1.1785321040078998]",518597.130216769,None,518597.1305921447,518597.23005304905,,,,,,,,,,,,s198_02202023,001,2023_Feb_20_1733,test_typingtask_norepeats,2020.2.10,60.014305716887726,
vanru,vanru,,,,,0,48,48,48,,,,,,,,518602.630203442,None,"['v', 'a', 'n', 'r', 'u']",1,"[1.1264226589701138, 1.2224783069686964, 1.3905009789741598, 1.558445745962672, 1.65449374797754]",518602.630203442,None,518602.63054260565,518602.7300663,,,,,,,,,,,,s198_02202023,001,2023_Feb_20_1733,test_typingtask_norepeats,2020.2.10,60.014305716887726,
edthe,edthe,,,,,0,49,49,49,,,,,,,,518608.130702104,None,"['e', 'd', 't', 'h', 'e']",1,"[0.6980178650119342, 0.9459430029965006, 1.1779983619926497, 1.266089204000309, 1.4259256910299882]",518608.130702104,None,518608.13072848064,518608.23023294,,,,,,,,,,,,s198_02202023,001,2023_Feb_20_1733,test_typingtask_norepeats,2020.2.10,60.014305716887726,
cheer,cheer,,,,,0,50,50,50,,,,,,,,518613.630589705,None,"['c', 'h', 'e', 'e', 'r']",1,"[0.6221517070080154, 0.6861205869936384, 0.8460148490266874, 1.006050658004824, 1.1740262330276892]",518613.630589705,None,518613.63034821965,518613.72995409,,,,,,,,,,,,s198_02202023,001,2023_Feb_20_1733,test_typingtask_norepeats,2020.2.10,60.014305716887726,
pykka,pykka,,,,,0,51,51,51,,,,,,,,518619.130241364,None,"['p', 'y', 'k', 'k', 'a']",1,"[0.6424464160227217, 0.8343801959999837, 1.146438867028337, 1.3224958869977854, 1.4503767770365812]",518619.130241364,None,518619.1302536306,518619.230071905,,,,,,,,,,,,s198_02202023,001,2023_Feb_20_1733,test_typingtask_norepeats,2020.2.10,60.014305716887726,
would,would,,,,,0,52,52,52,,,,,,,,518624.630519354,None,"['w', 'o', 'u', 'l', 'd']",1,"[0.5902223080047406, 0.7021873180055991, 0.7901789780007675, 0.9821780979982577, 1.0862114350311458]",518624.630519354,None,518624.63032323366,518624.730573687,,,,,,,,,,,,s198_02202023,001,2023_Feb_20_1733,test_typingtask_norepeats,2020.2.10,60.014305716887726,
vanru,vanru,,,,,0,53,53,53,,,,,,,,518630.130288342,None,"['v', 'a', 'n', 'r', 'u']",1,"[0.9463602909818292, 1.0183943780139089, 1.1543589200009592, 1.354315200005658, 1.4343202299787663]",518630.130288342,None,518630.1303699146,518630.230036852,,,,,,,,,,,,s198_02202023,001,2023_Feb_20_1733,test_typingtask_norepeats,2020.2.10,60.014305716887726,
think,think,,,,,0,54,54,54,,,,,,,,518635.630448475,None,"['t', 'h', 'i', 'n', 'k']",1,"[0.630223253974691, 0.7261772209894843, 0.8862841699738055, 1.0461994759971276, 1.1902362030232325]",518635.630448475,None,518635.6304016516,518635.73019325203,,,,,,,,,,,,s198_02202023,001,2023_Feb_20_1733,test_typingtask_norepeats,2020.2.10,60.014305716887726,
vodka,vodka,,,,,0,55,55,55,,,,,,,,518641.13049398,None,"['w', 'o', 'd', 'k', 'a']",0,"[0.6261304420186207, 0.7381864690105431, 0.8902464359998703, 1.0902453160379082, 1.1702390390564688]",518641.13049398,None,518641.1304330946,518641.23017092,,,,,,,,,,,,s198_02202023,001,2023_Feb_20_1733,test_typingtask_norepeats,2020.2.10,60.014305716887726,
theme,theme,,,,,0,56,56,56,,,,,,,,518646.630529728,None,"['t', 'h', 'e', 'm', 'e']",1,"[0.6141116330400109, 0.6861990740289912, 0.8382111950195394, 0.9420710540143773, 1.070209285011515]",518646.630529728,None,518646.6304872676,518646.730351057,,,,,,,,,,,,s198_02202023,001,2023_Feb_20_1733,test_typingtask_norepeats,2020.2.10,60.014305716887726,
pykka,pykka,,,,,0,57,57,57,,,,,,,,518652.130465767,None,"['p', 'y', 'k', 'k', 'a']",1,"[0.5702429510420188, 0.7382094780332409, 1.0182410740526393, 1.1782545110327192, 1.2902698840480298]",518652.130465767,None,518652.1305710686,518652.23024073103,,,,,,,,,,,,s198_02202023,001,2023_Feb_20_1733,test_typingtask_norepeats,2020.2.10,60.014305716887726,
buddy,buddy,,,,,0,58,58,58,,,,,,,,518657.63071158703,None,"['b', 'u', 'd', 'd', 'y']",1,"[0.7740282359882258, 0.9739125859923661, 1.1419481629855, 1.3179637369466946, 1.4619836669880897]",518657.63071158703,None,518657.63060308667,518657.730285677,,,,,,,,,,,,s198_02202023,001,2023_Feb_20_1733,test_typingtask_norepeats,2020.2.10,60.014305716887726,
would,would,,,,,0,59,59,59,,,,,,,,518663.130596673,None,"['w', 'o', 'u', 'l', 'd']",1,"[0.5781135950237513, 0.6980690719792619, 0.754140788980294, 0.9540849479963072, 1.0661444659926929]",518663.130596673,None,518663.13084352657,518663.230530294,,,,,,,,,,,,s198_02202023,001,2023_Feb_20_1733,test_typingtask_norepeats,2020.2.10,60.014305716887726,
tithe,tithe,,,,,0,60,60,60,,,,,,,,518668.63030438905,None,"['t', 'h', 't', 'e']",0,"[0.6223205769783817, 0.7183025929844007, 1.798365134978667, 2.1983154449844733]",518668.63030438905,None,518668.6306776627,518668.730243296,,,,,,,,,,,,s198_02202023,001,2023_Feb_20_1733,test_typingtask_norepeats,2020.2.10,60.014305716887726,
kremp,kremp,,,,,0,61,61,61,,,,,,,,518674.130382427,None,"['k', 'r', 'e', 'm', 'p']",1,"[0.866418266959954, 1.138310078997165, 1.362375542987138, 1.4902290719910525, 1.6023457269766368]",518674.130382427,None,518674.13049971557,518674.23002337705,,,,,,,,,,,,s198_02202023,001,2023_Feb_20_1733,test_typingtask_norepeats,2020.2.10,60.014305716887726,
think,think,,,,,0,62,62,62,,,,,,,,518679.630234436,None,"['t', 'h', 'i', 'n', 'k']",1,"[0.6624441889580339, 0.7424253989593126, 0.8864924889639951, 1.054449017974548, 1.2144030269701034]",518679.630234436,None,518679.6304375216,518679.73014712305,,,,,,,,,,,,s198_02202023,001,2023_Feb_20_1733,test_typingtask_norepeats,2020.2.10,60.014305716887726,
buddy,buddy,,,,,0,63,63,63,,,,,,,,518685.130403352,None,"['b', 'u', 'd', 'd', 'y']",1,"[0.6903251479961909, 0.9142817680258304, 1.1462958350311965, 1.2982644659932703, 1.458283550979104]",518685.130403352,None,518685.13031965063,518685.23038043204,,,,,,,,,,,,s198_02202023,001,2023_Feb_20_1733,test_typingtask_norepeats,2020.2.10,60.014305716887726,
zibja,zibja,,,,,0,64,64,64,,,,,,,,518690.630659263,None,"['z', 'i', 'b', 'j', 'a']",1,"[0.9739637519815005, 1.1660605579963885, 1.430073302006349, 1.6540694430004805, 1.7740812900010496]",518690.630659263,None,518690.6302879907,518690.730286549,,,,,,,,,,,,s198_02202023,001,2023_Feb_20_1733,test_typingtask_norepeats,2020.2.10,60.014305716887726,
vodka,vodka,,,,,0,65,65,65,,,,,,,,518696.13054166205,None,"['v', 'o', 'd', 'k', 'a']",1,"[0.8421458780067042, 0.9622069570468739, 1.1860934510477819, 1.3701867600320838, 1.4501886470243335]",518696.13054166205,None,518696.13048627763,518696.230055277,,,,,,,,,,,,s198_02202023,001,2023_Feb_20_1733,test_typingtask_norepeats,2020.2.10,60.014305716887726,
kremp,kremp,,,,,0,66,66,66,,,,,,,,518701.63064533804,None,"['k', 'r', 'e', 'm', 'p']",1,"[0.7339720239979215, 0.9259799349820241, 1.0381043929955922, 1.1660714690224268, 1.2700696570100263]",518701.63064533804,None,518701.6309002746,518701.730203507,,,,,,,,,,,,s198_02202023,001,2023_Feb_20_1733,test_typingtask_norepeats,2020.2.10,60.014305716887726,
puppy,puppy,,,,,0,67,67,67,,,,,,,,518707.13039665704,None,"['p', 'u', 'p', 'p', 'y']",1,"[0.5862533390172757, 0.7863285620114766, 0.962324975989759, 1.1142713750014082, 1.322289326984901]",518707.13039665704,None,518707.13071864063,518707.23020280903,,,,,,,,,,,,s198_02202023,001,2023_Feb_20_1733,test_typingtask_norepeats,2020.2.10,60.014305716887726,
heond,heond,,,,,0,68,68,68,,,,,,,,518712.63061808405,None,"['h', 'e', 'o', 'n', 'd']",1,"[0.9020975499879569, 1.1020973319537006, 1.2141080239671282, 1.3741194019676186, 1.5020823189988732]",518712.63061808405,None,518712.6306693946,518712.73020964704,,,,,,,,,,,,s198_02202023,001,2023_Feb_20_1733,test_typingtask_norepeats,2020.2.10,60.014305716887726,
vanru,vanru,,,,,0,69,69,69,,,,,,,,518718.130725264,None,"['v', 'a', 'n', 'r', 'u']",1,"[0.9059548940276727, 1.0419106609770097, 1.1539949160069227, 1.290014315978624, 1.3780250559793785]",518718.130725264,None,518718.1305435016,518718.230278042,,,,,,,,,,,,s198_02202023,001,2023_Feb_20_1733,test_typingtask_norepeats,2020.2.10,60.014305716887726,
haole,haole,,,,,0,70,70,70,,,,,,,,518723.630444663,None,"['h', 'a', 'o', 'l', 'e']",1,"[0.7582372699980624, 0.8622858870076016, 1.0221636409987696, 1.2862085190135986, 1.4142439420102164]",518723.630444663,None,518723.6304994426,518723.730417674,,,,,,,,,,,,s198_02202023,001,2023_Feb_20_1733,test_typingtask_norepeats,2020.2.10,60.014305716887726,
kremp,kremp,,,,,0,71,71,71,,,,,,,,518729.130555363,None,"['k', 'r', 'e', 'm', 'p']",1,"[0.7061302709626034, 0.9380494229844771, 1.1141227209591307, 1.1940506749670021, 1.2901704589603469]",518729.130555363,None,518729.1306790096,518729.230374713,,,,,,,,,,,,s198_02202023,001,2023_Feb_20_1733,test_typingtask_norepeats,2020.2.10,60.014305716887726,
tithe,tithe,,,,,0,72,72,72,,,,,,,,518734.63044203405,None,"['t', 'i', 't', 'h', 'e']",1,"[0.7261883280007169, 0.8383029930409975, 0.9582488070009276, 1.0542472340166569, 1.222298779990524]",518734.63044203405,None,518734.6306694007,518734.73055128,,,,,,,,,,,,s198_02202023,001,2023_Feb_20_1733,test_typingtask_norepeats,2020.2.10,60.014305716887726,
there,there,,,,,0,73,73,73,,,,,,,,518740.13050649804,None,"['t', 'h', 'e', 'r', 'e']",1,"[0.5862205530283973, 0.6742251819814555, 0.8261057829950005, 0.9862529230304062, 1.0421863890369423]",518740.13050649804,None,518740.1305291606,518740.230158072,,,,,,,,,,,,s198_02202023,001,2023_Feb_20_1733,test_typingtask_norepeats,2020.2.10,60.014305716887726,
faqir,faqir,,,,,0,74,74,74,,,,,,,,518745.63071009703,None,"['f', 'a', 'q', 'i', 'r']",1,"[0.9419831950217485, 1.0220273479935713, 1.3739018400083296, 1.5339085250161588, 1.6939009749912657]",518745.63071009703,None,518745.6309420066,518745.730375391,,,,,,,,,,,,s198_02202023,001,2023_Feb_20_1733,test_typingtask_norepeats,2020.2.10,60.014305716887726,
champ,champ,,,,,0,75,75,75,,,,,,,,518751.13042621705,None,"['c', 'h', 'a', 'm', 'p']",1,"[0.6982986350194551, 0.7622378469677642, 0.8981808049720712, 1.0261678079841658, 1.1542964319814928]",518751.13042621705,None,518751.13068280264,518751.230258373,,,,,,,,,,,,s198_02202023,001,2023_Feb_20_1733,test_typingtask_norepeats,2020.2.10,60.014305716887726,
faqir,faqir,,,,,0,76,76,76,,,,,,,,518756.630708919,None,"['f', 'a', 'q', 'i', 'r']",1,"[0.7098941679578274, 0.822016840975266, 1.141928081982769, 1.3098918509786017, 1.550013169995509]",518756.630708919,None,518756.6306128246,518756.73021345504,,,,,,,,,,,,s198_02202023,001,2023_Feb_20_1733,test_typingtask_norepeats,2020.2.10,60.014305716887726,
there,there,,,,,0,77,77,77,,,,,,,,518762.130578876,None,"['t', 'h', 'e', 'r', 'e']",1,"[0.5539783329586498, 0.6339841859880835, 0.7780889209825546, 0.8660504349973053, 0.9621151729952544]",518762.130578876,None,518762.13045907265,518762.23056510504,,,,,,,,,,,,s198_02202023,001,2023_Feb_20_1733,test_typingtask_norepeats,2020.2.10,60.014305716887726,
vodka,vodka,,,,,0,78,78,78,,,,,,,,518767.630896879,None,"['v', 'o', 'd', 'k', 'a']",1,"[0.8298443589592353, 0.9817916039610282, 1.165777407004498, 1.3337312729563564, 1.429861543001607]",518767.630896879,None,518767.6307795616,518767.73041466204,,,,,,,,,,,,s198_02202023,001,2023_Feb_20_1733,test_typingtask_norepeats,2020.2.10,60.014305716887726,
faqir,faqir,,,,,0,79,79,79,,,,,,,,518773.130953425,None,"['f', 'a', 'q', 'i', 'r']",1,"[0.6577279029879719, 0.7697774589760229, 1.025671113980934, 1.1616906420094892, 1.3137392600183375]",518773.130953425,None,518773.1309371076,518773.230520603,,,,,,,,,,,,s198_02202023,001,2023_Feb_20_1733,test_typingtask_norepeats,2020.2.10,60.014305716887726,
lucky,lucky,,,,,0,80,80,80,,,,,,,,518778.630676397,None,"['l', 'u', 'c', 'k', 'y']",1,"[0.6459422850166447, 0.8380228890455328, 1.0060057790251449, 1.093934832024388, 1.3179370340076275]",518778.630676397,None,518778.63064938365,518778.730253792,,,,,,,,,,,,s198_02202023,001,2023_Feb_20_1733,test_typingtask_norepeats,2020.2.10,60.014305716887726,
pykka,pykka,,,,,0,81,81,81,,,,,,,,518784.13064659905,None,"['p', 'y', 'k', 'k', 'a']",1,"[0.7140406399848871, 0.9060831280075945, 1.1859877990209498, 1.3540431010187604, 1.4900879710330628]",518784.13064659905,None,518784.13063456863,518784.23030671,,,,,,,,,,,,s198_02202023,001,2023_Feb_20_1733,test_typingtask_norepeats,2020.2.10,60.014305716887726,
buddy,buddy,,,,,0,82,82,82,,,,,,,,518789.630839588,None,"['b', 'u', 'd', 'd', 'y']",1,"[0.741921940993052, 0.957816804992035, 1.1418126830249093, 1.3018646360142156, 1.437836615019478]",518789.630839588,None,518789.6307242046,518789.730875451,,,,,,,,,,,,s198_02202023,001,2023_Feb_20_1733,test_typingtask_norepeats,2020.2.10,60.014305716887726,
think,think,,,,,0,83,83,83,,,,,,,,518795.13097665604,None,"['t', 'h', 'i', 'n', 'k']",1,"[0.6576747589861043, 0.7456360459909774, 0.8657476929947734, 1.0256440969533287, 1.1777795659727417]",518795.13097665604,None,518795.13066397666,518795.230542702,,,,,,,,,,,,s198_02202023,001,2023_Feb_20_1733,test_typingtask_norepeats,2020.2.10,60.014305716887726,
therm,therm,,,,,0,84,84,84,,,,,,,,518800.630683919,None,"['t', 'h', 'e', 'r', 'm', 'space']",0,"[0.7259397879824974, 0.8139859389630146, 1.0059409029781818, 1.117933016968891, 1.214035918994341, 1.2939314100076444]",518800.630683919,None,518800.63067472563,518800.73129868903,,,,,,,,,,,,s198_02202023,001,2023_Feb_20_1733,test_typingtask_norepeats,2020.2.10,60.014305716887726,
buddy,buddy,,,,,0,85,85,85,,,,,,,,518806.14749223605,None,"['b', 'u', 'd', 'd', 'y']",1,"[0.7372115799807943, 0.9371169049991295, 1.0572514099767432, 1.201141497993376, 1.3212347109802067]",518806.14749223605,None,518806.1476621566,518806.24745768,,,,,,,,,,,,s198_02202023,001,2023_Feb_20_1733,test_typingtask_norepeats,2020.2.10,60.014305716887726,
therm,therm,,,,,0,86,86,86,,,,,,,,518811.647605539,None,"['t', 'h', 'e', 'r', 'm']",1,"[0.5891279070056044, 0.6690796439652331, 0.829033009998966, 0.8929988070158288, 1.1170013179653324]",518811.647605539,None,518811.6473297756,518811.74730603304,,,,,,,,,,,,s198_02202023,001,2023_Feb_20_1733,test_typingtask_norepeats,2020.2.10,60.014305716887726,
belly,belly,,,,,0,87,87,87,,,,,,,,518817.14768539905,None,"['b', 'e', 'l', 'l', 'y']",1,"[0.7449955790070817, 0.9210409770021215, 1.06501754099736, 1.208938430994749, 1.4009299610042945]",518817.14768539905,None,518817.1475494596,518817.24774579203,,,,,,,,,,,,s198_02202023,001,2023_Feb_20_1733,test_typingtask_norepeats,2020.2.10,60.014305716887726,
there,there,,,,,0,88,88,88,,,,,,,,518822.64773236803,None,"['t', 'h', 'e', 'r', 'e']",1,"[0.6370029699755833, 0.684993049944751, 0.8450184739776887, 0.9330005189985968, 1.0289782449835911]",518822.64773236803,None,518822.64745657763,518822.74764719,,,,,,,,,,,,s198_02202023,001,2023_Feb_20_1733,test_typingtask_norepeats,2020.2.10,60.014305716887726,
kremp,kremp,,,,,0,89,89,89,,,,,,,,518828.147684252,None,"['k', 'r', 'e', 'm', 'p']",1,"[0.8330404769512825, 1.008938787970692, 1.1049372449633665, 1.200935392989777, 1.313024642993696]",518828.147684252,None,518828.1478102276,518828.24747430504,,,,,,,,,,,,s198_02202023,001,2023_Feb_20_1733,test_typingtask_norepeats,2020.2.10,60.014305716887726,
about,about,,,,,0,90,90,90,,,,,,,,518833.64751622605,None,"['a', 'b', 'o', 'u', 't']",1,"[0.5812064950005151, 0.6851949840201996, 0.917102400038857, 0.973187475989107, 1.1252803220413625]",518833.64751622605,None,518833.6477782236,518833.747466974,,,,,,,,,,,,s198_02202023,001,2023_Feb_20_1733,test_typingtask_norepeats,2020.2.10,60.014305716887726,
puppy,puppy,,,,,0,91,91,91,,,,,,,,518839.147335625,None,"['p', 'u', 'p', 'p', 'y']",1,"[0.5932869570096955, 0.7853954450110905, 0.98537240101723, 1.1453882460482419, 1.305350587994326]",518839.147335625,None,518839.1474933546,518839.247613203,,,,,,,,,,,,s198_02202023,001,2023_Feb_20_1733,test_typingtask_norepeats,2020.2.10,60.014305716887726,
haole,haole,,,,,0,92,92,92,,,,,,,,518844.64764544205,None,"['h', 'a', 'o', 'l', 'e']",1,"[0.7252577720209956, 0.9330841900082305, 2.013091274013277, 2.2210253730299883, 2.300975913007278]",518844.64764544205,None,518844.64769726165,518844.747692796,,,,,,,,,,,,s198_02202023,001,2023_Feb_20_1733,test_typingtask_norepeats,2020.2.10,60.014305716887726,
champ,champ,,,,,0,93,93,93,,,,,,,,518850.147805805,None,"['c', 'h', 'a', 'm', 'p']",1,"[0.6088533299625851, 0.6808577399933711, 0.8328497349866666, 0.9208986549638212, 1.0168096869601868]",518850.147805805,None,518850.1476276496,518850.24769726,,,,,,,,,,,,s198_02202023,001,2023_Feb_20_1733,test_typingtask_norepeats,2020.2.10,60.014305716887726,
heond,heond,,,,,0,94,94,94,,,,,,,,518855.647367561,None,"['h', 'e', 'o', 'n', 'd']",1,"[0.8293198670144193, 0.9812832130119205, 1.0932546440162696, 1.3093224400072359, 1.4293184599955566]",518855.647367561,None,518855.64745173464,518855.747382112,,,,,,,,,,,,s198_02202023,001,2023_Feb_20_1733,test_typingtask_norepeats,2020.2.10,60.014305716887726,
cheer,cheer,,,,,0,95,95,95,,,,,,,,518861.14703863405,None,"['c', 'h', 'e', 'e', 'r']",1,"[0.7056842099991627, 0.7536696039605886, 0.937676613975782, 1.1056843209662475, 1.2416812279843725]",518861.14703863405,None,518861.1471601926,518861.24727134005,,,,,,,,,,,,s198_02202023,001,2023_Feb_20_1733,test_typingtask_norepeats,2020.2.10,60.014305716887726,
about,about,,,,,0,96,96,96,,,,,,,,518866.647348162,None,"['a', 'b', 'o', 'u', 't']",1,"[0.5893760459730402, 0.7092743459506892, 0.917271822982002, 0.973285035986919, 1.09326572495047]",518866.647348162,None,518866.6474089506,518866.74755431304,,,,,,,,,,,,s198_02202023,001,2023_Feb_20_1733,test_typingtask_norepeats,2020.2.10,60.014305716887726,
vanru,vanru,,,,,0,97,97,97,,,,,,,,518872.147255956,None,"['v', 'a', 'n', 'r', 'u']",1,"[0.7694710780051537, 0.9374696480226703, 1.0174768220167607, 1.1614055419922806, 1.2494023949839175]",518872.147255956,None,518872.1474147326,518872.247281839,,,,,,,,,,,,s198_02202023,001,2023_Feb_20_1733,test_typingtask_norepeats,2020.2.10,60.014305716887726,
haole,haole,,,,,0,98,98,98,,,,,,,,518877.64717346104,None,"['h', 'a', 'o', 'l', 'e']",1,"[0.733548560005147, 0.8535579890012741, 1.8135531329899095, 2.0135752779897302, 2.069551936001517]",518877.64717346104,None,518877.64745491964,518877.747298359,,,,,,,,,,,,s198_02202023,001,2023_Feb_20_1733,test_typingtask_norepeats,2020.2.10,60.014305716887726,
druze,druze,,,,,0,99,99,99,,,,,,,,518883.14735242503,None,"['d', 'r', 'u', 'z', 'e']",1,"[0.6733312400174327, 0.8893269069958478, 0.9613512690411881, 1.2573905440513045, 1.5213859810028225]",518883.14735242503,None,518883.1472892186,518883.24772765004,,,,,,,,,,,,s198_02202023,001,2023_Feb_20_1733,test_typingtask_norepeats,2020.2.10,60.014305716887726,
puppy,puppy,,,,,0,100,100,100,,,,,,,,518888.64782067103,None,"['p', 'u', 'p', 'p', 'y']",1,"[0.5729311699979007, 0.7489459870266728, 0.980817202012986, 1.1247908599907532, 1.3328984290128574]",518888.64782067103,None,518888.6474832756,518888.747751544,,,,,,,,,,,,s198_02202023,001,2023_Feb_20_1733,test_typingtask_norepeats,2020.2.10,60.014305716887726,
there,there,,,,,0,101,101,101,,,,,,,,518894.147605584,None,"['t', 'h', 'e', 'r', 'e']",1,"[0.6731157239992172, 0.7531043729977682, 0.8971163009991869, 0.9850995189626701, 1.0810171339544468]",518894.147605584,None,518894.1473426346,518894.24748108804,,,,,,,,,,,,s198_02202023,001,2023_Feb_20_1733,test_typingtask_norepeats,2020.2.10,60.014305716887726,
buddy,buddy,,,,,0,102,102,102,,,,,,,,518899.64771036303,None,"['b', 'u', 'd', 'd', 'y']",1,"[0.7009109199861996, 0.9089229499804787, 1.076909324969165, 1.2289170759613626, 1.3650147619773634]",518899.64771036303,None,518899.6478564446,518899.747532974,,,,,,,,,,,,s198_02202023,001,2023_Feb_20_1733,test_typingtask_norepeats,2020.2.10,60.014305716887726,
edthe,edthe,,,,,0,103,103,103,,,,,,,,518905.14738956303,None,"['e', 'd', 't', 'h', 'e']",1,"[0.8254291729535908, 1.057357213983778, 1.2733424179605208, 1.353335163963493, 1.6812941569951363]",518905.14738956303,None,518905.14748753665,518905.24726742203,,,,,,,,,,,,s198_02202023,001,2023_Feb_20_1733,test_typingtask_norepeats,2020.2.10,60.014305716887726,
zibja,zibja,,,,,0,104,104,104,,,,,,,,518910.647573544,None,"['z', 'i', 'b', 'j', 'a']",1,"[1.1491601649904624, 1.3010479459771886, 1.5491836770088412, 1.8050491659669206, 1.9010382189881057]",518910.647573544,None,518910.6475559956,518910.747344525,,,,,,,,,,,,s198_02202023,001,2023_Feb_20_1733,test_typingtask_norepeats,2020.2.10,60.014305716887726,
champ,champ,,,,,0,105,105,105,,,,,,,,518916.14757157204,None,"['c', 'h', 'a', 'm', 'p']",1,"[0.6730820930097252, 0.7291181709733792, 0.8810973429935984, 0.9851671229698695, 1.097150475019589]",518916.14757157204,None,518916.14759578765,518916.247829232,,,,,,,,,,,,s198_02202023,001,2023_Feb_20_1733,test_typingtask_norepeats,2020.2.10,60.014305716887726,
kremp,kremp,,,,,0,106,106,106,,,,,,,,518921.64752022503,None,"['k', 'r', 'e', 'm', 'p']",1,"[0.6931290620123036, 0.8930962919839658, 1.0050865309895016, 1.1331704249605536, 1.23718563496368]",518921.64752022503,None,518921.6475849926,518921.74769028,,,,,,,,,,,,s198_02202023,001,2023_Feb_20_1733,test_typingtask_norepeats,2020.2.10,60.014305716887726,
cooed,cooed,,,,,0,107,107,107,,,,,,,,518927.14803017804,None,"['c', 'o', 'o', 'e', 'd']",1,"[0.6805895409779623, 0.8487586050177924, 1.0165896979742683, 1.1286087540211156, 1.3285998409846798]",518927.14803017804,None,518927.14774098457,518927.247806148,,,,,,,,,,,,s198_02202023,001,2023_Feb_20_1733,test_typingtask_norepeats,2020.2.10,60.014305716887726,
there,there,,,,,0,108,108,108,,,,,,,,518932.647386257,None,"['t', 'h', 'e', 'r', 'e']",1,"[0.6373358540004119, 0.709320313995704, 0.8452873129863292, 0.9253977740299888, 1.0133323600166477]",518932.647386257,None,518932.64740535757,518932.747821014,,,,,,,,,,,,s198_02202023,001,2023_Feb_20_1733,test_typingtask_norepeats,2020.2.10,60.014305716887726,
belly,belly,,,,,0,109,109,109,,,,,,,,518938.14731394703,None,"['b', 'e', 'l', 'l', 'y']",1,"[0.6813537210109644, 0.817303235991858, 0.9613363689859398, 1.1053068090113811, 1.3054196470184252]",518938.14731394703,None,518938.1475003116,518938.24742229603,,,,,,,,,,,,s198_02202023,001,2023_Feb_20_1733,test_typingtask_norepeats,2020.2.10,60.014305716887726,
heond,heond,,,,,0,110,110,110,,,,,,,,518943.647377363,None,"['h', 'e', 'o', 'n', 'd']",1,"[0.7732551119988784, 0.8932457130285911, 1.005339007009752, 1.1573512110044248, 1.2533123990288004]",518943.647377363,None,518943.6474807237,518943.747582163,,,,,,,,,,,,s198_02202023,001,2023_Feb_20_1733,test_typingtask_norepeats,2020.2.10,60.014305716887726,
therm,therm,,,,,0,111,111,111,,,,,,,,518949.147479453,None,"['t', 'h', 'e', 'r', 'm', 'space']",0,"[0.7131929390016012, 0.7771302179899067, 0.9452449539676309, 1.001142280001659, 1.0572139629512094, 1.1692548919818364]",518949.147479453,None,518949.1475194766,518949.247558941,,,,,,,,,,,,s198_02202023,001,2023_Feb_20_1733,test_typingtask_norepeats,2020.2.10,60.014305716887726,
theme,theme,,,,,0,112,112,112,,,,,,,,518954.647370557,None,"['t', 'h', 'e', 'm', 'e']",1,"[0.5413295699981973, 0.60526405001292, 0.7573530169902369, 0.8453798010013998, 0.9653070739586838]",518954.647370557,None,518954.6474108846,518954.747565041,,,,,,,,,,,,s198_02202023,001,2023_Feb_20_1733,test_typingtask_norepeats,2020.2.10,60.014305716887726,
zibja,zibja,,,,,0,113,113,113,,,,,,,,518960.14757489704,None,"['z', 'i', 'b', 'j', 'a']",1,"[0.9130342910066247, 1.0090548690059222, 1.5451927930116653, 1.8010319590102881, 1.9531974010169506]",518960.14757489704,None,518960.1473746756,518960.247527442,,,,,,,,,,,,s198_02202023,001,2023_Feb_20_1733,test_typingtask_norepeats,2020.2.10,60.014305716887726,
lucky,lucky,,,,,0,114,114,114,,,,,,,,518965.64757634,None,"['l', 'u', 'c', 'k', 'y']",1,"[0.637167619948741, 0.8531499609816819, 1.0930415079928935, 1.1570549819734879, 1.4851039729546756]",518965.64757634,None,518965.6473573897,518965.74759750004,,,,,,,,,,,,s198_02202023,001,2023_Feb_20_1733,test_typingtask_norepeats,2020.2.10,60.014305716887726,
haole,haole,,,,,0,115,115,115,,,,,,,,518971.147821725,None,"['h', 'a', 'o', 'l', 'e']",1,"[0.672796527040191, 0.8167978870333172, 1.0167954940116033, 1.2649010730092414, 1.392802570015192]",518971.147821725,None,518971.1478241916,518971.247848725,,,,,,,,,,,,s198_02202023,001,2023_Feb_20_1733,test_typingtask_norepeats,2020.2.10,60.014305716887726,
pykka,pykka,,,,,0,116,116,116,,,,,,,,518976.64752591803,None,"['p', 'y', 'k', 'k', 'a']",1,"[0.6290828119963408, 0.7972011839738116, 1.0930926019791514, 1.2532441999646835, 1.4211655799881555]",518976.64752591803,None,518976.6476622446,518976.747728125,,,,,,,,,,,,s198_02202023,001,2023_Feb_20_1733,test_typingtask_norepeats,2020.2.10,60.014305716887726,
would,would,,,,,0,117,117,117,,,,,,,,518982.14764464804,None,"['w', 'o', 'u', 'l', 'd']",1,"[0.6570914799813181, 0.7769649149850011, 0.8411021389765665, 1.0329994600033388, 1.153027991997078]",518982.14764464804,None,518982.14820401266,518982.247696224,,,,,,,,,,,,s198_02202023,001,2023_Feb_20_1733,test_typingtask_norepeats,2020.2.10,60.014305716887726,
therm,therm,,,,,0,118,118,118,,,,,,,,518987.647895362,None,"['t', 'h', 'e', 'r', 'm']",1,"[0.6608627460082062, 0.7488064860226586, 0.9248266909853555, 1.0048410050221719, 1.124854850990232]",518987.647895362,None,518987.64795753465,518987.747776211,,,,,,,,,,,,s198_02202023,001,2023_Feb_20_1733,test_typingtask_norepeats,2020.2.10,60.014305716887726,
vanru,vanru,,,,,0,119,119,119,,,,,,,,518993.14762531203,None,"['v', 'a', 'n', 'r', 'u']",1,"[0.8411174780339934, 1.0009945210185833, 1.105113705038093, 1.2810015979921445, 1.369101787044201]",518993.14762531203,None,518993.1475813866,518993.24770598003,,,,,,,,,,,,s198_02202023,001,2023_Feb_20_1733,test_typingtask_norepeats,2020.2.10,60.014305716887726,
vodka,vodka,,,,,,,,,0,0,0,0,,,,,,,,,,,,,518998.647882294,None,519068.343542833,None,"['v', 'o', 'd', 'k', 'a']",1,"[1.0290786540135741, 1.1013666940270923, 1.6371866179979406, 1.8291829809895717, 1.9170803860179149]",519068.343542833,None,519068.33158987516,519068.431195038,s198_02202023,001,2023_Feb_20_1733,test_typingtask_norepeats,2020.2.10,60.014305716887726,
kremp,kremp,,,,,,,,,0,1,1,1,,,,,,,,,,,,,,,519073.84763193503,None,"['k', 'r', 'e', 'm', 'p']",1,"[0.7330988989560865, 1.1490517979837023, 1.2611145599512383, 1.4050290119484998, 1.4851120859966613]",519073.84763193503,None,519073.8476383856,519073.947694348,s198_02202023,001,2023_Feb_20_1733,test_typingtask_norepeats,2020.2.10,60.014305716887726,
therm,therm,,,,,,,,,0,2,2,2,,,,,,,,,,,,,,,519079.347699297,None,"['t', 'h', 'e', 'r', 'm']",1,"[0.6809886459959671, 0.7609342929790728, 0.9209276000037789, 0.9769179649883881, 1.105035457003396]",519079.347699297,None,519079.3478170376,519079.44756585103,s198_02202023,001,2023_Feb_20_1733,test_typingtask_norepeats,2020.2.10,60.014305716887726,
there,there,,,,,,,,,0,3,3,3,,,,,,,,,,,,,,,519084.84756045,None,"['t', 'h', 'e', 'r', 'e']",1,"[0.6290749559993856, 0.7090606029960327, 0.8451547839795239, 0.9090922640170902, 1.021134661976248]",519084.84756045,None,519084.8477739666,519084.94758891,s198_02202023,001,2023_Feb_20_1733,test_typingtask_norepeats,2020.2.10,60.014305716887726,
vodka,vodka,,,,,,,,,0,4,4,4,,,,,,,,,,,,,,,519090.347922098,None,"['v', 'o', 'd', 'k', 'a']",1,"[0.8086998469661921, 0.9206957209971733, 1.2567688669660129, 1.448731180978939, 1.5686980159953237]",519090.347922098,None,519090.3476719456,519090.448012044,s198_02202023,001,2023_Feb_20_1733,test_typingtask_norepeats,2020.2.10,60.014305716887726,
think,think,,,,,,,,,0,5,5,5,,,,,,,,,,,,,,,519095.84759455704,None,"['t', 'h', 'i', 'n', 'k']",1,"[0.6611084819887765, 0.7570846189628355, 0.9330595439532772, 1.1251373979612254, 1.3171005309559405]",519095.84759455704,None,519095.8477227106,519095.947769617,s198_02202023,001,2023_Feb_20_1733,test_typingtask_norepeats,2020.2.10,60.014305716887726,
about,about,,,,,,,,,0,6,6,6,,,,,,,,,,,,,,,519101.34768914204,None,"['a', 'b', 'o', 'u', 't']",1,"[0.6089257069979794, 0.7289618829963729, 0.9289781490224414, 1.016942846996244, 1.153009524976369]",519101.34768914204,None,519101.34768782766,519101.44759351504,s198_02202023,001,2023_Feb_20_1733,test_typingtask_norepeats,2020.2.10,60.014305716887726,
therm,therm,,,,,,,,,0,7,7,7,,,,,,,,,,,,,,,519106.848106254,None,"['t', 'h', 'e', 'r', 'm']",1,"[0.724648265982978, 0.812545583001338, 0.9565353090292774, 1.0045492560020648, 1.092604243021924]",519106.848106254,None,519106.8478797636,519106.948023031,s198_02202023,001,2023_Feb_20_1733,test_typingtask_norepeats,2020.2.10,60.014305716887726,
puppy,puppy,,,,,,,,,0,8,8,8,,,,,,,,,,,,,,,519112.348128941,None,"['p', 'u', 'p', 'p', 'y']",1,"[0.6486499149468727, 0.832596993946936, 1.0325892639812082, 1.1845482789794914, 1.3526032889494672]",519112.348128941,None,519112.3480143576,519112.448042666,s198_02202023,001,2023_Feb_20_1733,test_typingtask_norepeats,2020.2.10,60.014305716887726,
cooed,cooed,,,,,,,,,0,9,9,9,,,,,,,,,,,,,,,519117.847780735,None,"['c', 'o', 'o', 'e', 'd']",1,"[0.7489964629639871, 0.9249255600152537, 1.0849494659923948, 1.2289025639765896, 1.468896041973494]",519117.847780735,None,519117.8474306277,519117.947599338,s198_02202023,001,2023_Feb_20_1733,test_typingtask_norepeats,2020.2.10,60.014305716887726,
pykka,pykka,,,,,,,,,0,10,10,10,,,,,,,,,,,,,,,519123.34772386705,None,"['p', 'y', 'k', 'k', 'a']",1,"[0.66494273400167, 0.8410329719772562, 1.1129662349703722, 1.2809927799971774, 1.433092368999496]",519123.34772386705,None,519123.3478162106,519123.447699673,s198_02202023,001,2023_Feb_20_1733,test_typingtask_norepeats,2020.2.10,60.014305716887726,
lucky,lucky,,,,,,,,,0,11,11,11,,,,,,,,,,,,,,,519128.847779588,None,"['l', 'u', 'c', 'k', 'y']",1,"[0.7088334509753622, 0.9169089189963415, 1.1492009990033694, 1.2689301900099963, 1.5008252509869635]",519128.847779588,None,519128.8477413466,519128.947620827,s198_02202023,001,2023_Feb_20_1733,test_typingtask_norepeats,2020.2.10,60.014305716887726,
puppy,puppy,,,,,,,,,0,12,12,12,,,,,,,,,,,,,,,519134.347822175,None,"['p', 'u', 'p', 'p', 'y']",1,"[0.49687736202031374, 0.6727924509905279, 0.8649307620362379, 1.0087916410411708, 1.1528401779942214]",519134.347822175,None,519134.3477486336,519134.447714038,s198_02202023,001,2023_Feb_20_1733,test_typingtask_norepeats,2020.2.10,60.014305716887726,
buddy,buddy,,,,,,,,,0,13,13,13,,,,,,,,,,,,,,,519139.84812857804,None,"['b', 'u', 'd', 'd', 'y']",1,"[0.8606079919845797, 0.9325866620056331, 1.1885630289907567, 1.3565731690032408, 1.5486044859862886]",519139.84812857804,None,519139.8482164326,519139.948406619,s198_02202023,001,2023_Feb_20_1733,test_typingtask_norepeats,2020.2.10,60.014305716887726,
vanru,vanru,,,,,,,,,0,14,14,14,,,,,,,,,,,,,,,519145.348276276,None,"['v', 'a', 'n', 'r', 'u']",1,"[0.7763613130082376, 1.0324228910030797, 1.1124276430346072, 1.2964332200353965, 1.384344507008791]",519145.348276276,None,519145.3480586966,519145.448337799,s198_02202023,001,2023_Feb_20_1733,test_typingtask_norepeats,2020.2.10,60.014305716887726,
pykka,pykka,,,,,,,,,0,15,15,15,,,,,,,,,,,,,,,519150.84776166803,None,"['p', 'y', 'k', 'k', 'a']",1,"[0.6609112969599664, 0.8288671259651892, 1.1249215839779936, 1.268946947006043, 1.4449363789753988]",519150.84776166803,None,519150.8478978566,519150.94799124304,s198_02202023,001,2023_Feb_20_1733,test_typingtask_norepeats,2020.2.10,60.014305716887726,
therm,therm,,,,,,,,,0,16,16,16,,,,,,,,,,,,,,,519156.34772862005,None,"['t', 'h', 'e', 'r', 'm']",1,"[0.7289879399468191, 0.7850228349561803, 0.9849980229628272, 1.0569706090027466, 1.1129221969749779]",519156.34772862005,None,519156.34791265265,519156.447838495,s198_02202023,001,2023_Feb_20_1733,test_typingtask_norepeats,2020.2.10,60.014305716887726,
haole,haole,,,,,,,,,0,17,17,17,,,,,,,,,,,,,,,519161.847685836,None,"['h', 'a', 'o', 'l', 'e']",1,"[0.7809923400054686, 0.9490894429618493, 1.4210440929746255, 1.6690254499553703, 1.7889396929531358]",519161.847685836,None,519161.84783946164,519161.94782737,s198_02202023,001,2023_Feb_20_1733,test_typingtask_norepeats,2020.2.10,60.014305716887726,
kremp,kremp,,,,,,,,,0,18,18,18,,,,,,,,,,,,,,,519167.34770322504,None,"['k', 'r', 'e', 'm', 'p']",1,"[0.7530575970304199, 0.9129828560398892, 1.0089015400153585, 1.0809891890385188, 1.1929207800421864]",519167.34770322504,None,519167.3478722916,519167.447904732,s198_02202023,001,2023_Feb_20_1733,test_typingtask_norepeats,2020.2.10,60.014305716887726,
edthe,edthe,,,,,,,,,0,19,19,19,,,,,,,,,,,,,,,519172.84774722,None,"['e', 'd', 't', 'h', 'e']",1,"[0.7329000639729202, 0.9489778769784607, 1.1648773750057444, 1.2449610339826904, 1.5409345849766396]",519172.84774722,None,519172.8478553527,519172.94821055705,s198_02202023,001,2023_Feb_20_1733,test_typingtask_norepeats,2020.2.10,60.014305716887726,
druze,druze,,,,,,,,,0,20,20,20,,,,,,,,,,,,,,,519178.347704601,None,"['d', 'r', 'u', 'z', 'e']",1,"[0.712986294995062, 0.9209775099880062, 1.0170225920155644, 1.392928930989001, 1.71298047399614]",519178.347704601,None,519178.3478148206,519178.447743621,s198_02202023,001,2023_Feb_20_1733,test_typingtask_norepeats,2020.2.10,60.014305716887726,
tithe,tithe,,,,,,,,,0,21,21,21,,,,,,,,,,,,,,,519183.84784418205,None,"['t', 'i', 't', 'h', 'e']",1,"[0.8047870339942165, 0.9007811010233127, 1.0368942199856974, 1.1648141680052504, 1.3408948199939914]",519183.84784418205,None,519183.8477938296,519183.947846264,s198_02202023,001,2023_Feb_20_1733,test_typingtask_norepeats,2020.2.10,60.014305716887726,
buddy,buddy,,,,,,,,,0,22,22,22,,,,,,,,,,,,,,,519189.348189602,None,"['b', 'u', 'd', 'd', 'y']",1,"[0.8165327950264327, 0.8885495620197617, 1.1605153980199248, 1.3364818260306492, 1.512459471996408]",519189.348189602,None,519189.34798474365,519189.44809024304,s198_02202023,001,2023_Feb_20_1733,test_typingtask_norepeats,2020.2.10,60.014305716887726,
faqir,faqir,,,,,,,,,0,23,23,23,,,,,,,,,,,,,,,519194.84781876404,None,"['f', 'a', 'q', 'i', 'r']",1,"[0.780900254030712, 0.8767891610041261, 1.2531475650030188, 1.500787114026025, 1.7329032830311917]",519194.84781876404,None,519194.8480989586,519194.948076626,s198_02202023,001,2023_Feb_20_1733,test_typingtask_norepeats,2020.2.10,60.014305716887726,
kremp,kremp,,,,,,,,,0,24,24,24,,,,,,,,,,,,,,,519200.348111664,None,"['k', 'r', 'e', 'm', 'p']",1,"[0.9205915229977109, 1.3046280149719678, 1.392503109993413, 1.5125788410077803, 1.6644864740082994]",519200.348111664,None,519200.34827041265,519200.44817499805,s198_02202023,001,2023_Feb_20_1733,test_typingtask_norepeats,2020.2.10,60.014305716887726,
faqir,faqir,,,,,,,,,0,25,25,25,,,,,,,,,,,,,,,519205.84819656704,None,"['f', 'a', 'q', 'i', 'r']",1,"[0.7724897739826702, 0.860509218997322, 1.0924284380162135, 1.2124925690004602, 1.356493211002089]",519205.84819656704,None,519205.8484841597,519205.948171677,s198_02202023,001,2023_Feb_20_1733,test_typingtask_norepeats,2020.2.10,60.014305716887726,
vodka,vodka,,,,,,,,,0,26,26,26,,,,,,,,,,,,,,,519211.34832268103,None,"['v', 'o', 'd', 'k', 'a']",1,"[0.8244231019634753, 0.9602939079632051, 1.1364126880071126, 1.3603736439836212, 1.4564526589820161]",519211.34832268103,None,519211.34830102965,519211.4482488,s198_02202023,001,2023_Feb_20_1733,test_typingtask_norepeats,2020.2.10,60.014305716887726,
buddy,buddy,,,,,,,,,0,27,27,27,,,,,,,,,,,,,,,519216.84803993703,None,"['b', 'u', 'd', 'd', 'y']",1,"[1.1486476190038957, 1.260618204018101, 1.6526480650063604, 1.7886893620016053, 1.9806515380041674]",519216.84803993703,None,519216.8479110496,519216.94783908,s198_02202023,001,2023_Feb_20_1733,test_typingtask_norepeats,2020.2.10,60.014305716887726,
belly,belly,,,,,,,,,0,28,28,28,,,,,,,,,,,,,,,519222.348409973,None,"['b', 'e', 'l', 'l', 'y']",1,"[0.7283220930257812, 0.840293808025308, 1.0001989160082303, 1.1522677330067381, 1.368298533023335]",519222.348409973,None,519222.34820409864,519222.44838284404,s198_02202023,001,2023_Feb_20_1733,test_typingtask_norepeats,2020.2.10,60.014305716887726,
haole,haole,,,,,,,,,0,29,29,29,,,,,,,,,,,,,,,519227.847910679,None,"['h', 'a', 'o', 'l', 'e']",1,"[0.668796498037409, 0.7567686200491153, 0.9807346989982761, 1.2127596290083602, 1.3248396670096554]",519227.847910679,None,519227.84791141364,519227.947896943,s198_02202023,001,2023_Feb_20_1733,test_typingtask_norepeats,2020.2.10,60.014305716887726,
puppy,puppy,,,,,,,,,0,30,30,30,,,,,,,,,,,,,,,519233.347801211,None,"['p', 'u', 'p', 'p', 'y']",1,"[0.704933924949728, 0.8889547979924828, 1.080889920995105, 1.2329255910008214, 1.4248930369503796]",519233.347801211,None,519233.3480652976,519233.447850054,s198_02202023,001,2023_Feb_20_1733,test_typingtask_norepeats,2020.2.10,60.014305716887726,
buddy,buddy,,,,,,,,,0,31,31,31,,,,,,,,,,,,,,,519238.847764005,None,"['b', 'u', 'd', 'd', 'y']",1,"[0.7169428499764763, 1.0529419149970636, 1.2529480070224963, 1.4208838120102882, 1.5568588000023738]",519238.847764005,None,519238.8478319406,519238.94810197304,s198_02202023,001,2023_Feb_20_1733,test_typingtask_norepeats,2020.2.10,60.014305716887726,
would,would,,,,,,,,,0,32,32,32,,,,,,,,,,,,,,,519244.347950917,None,"['w', 'o', 'u', 'l', 'd']",1,"[0.6407320310245268, 0.7527803690172732, 0.8006767550250515, 1.01674298098078, 1.1288493340252899]",519244.347950917,None,519244.34794154065,519244.447952566,s198_02202023,001,2023_Feb_20_1733,test_typingtask_norepeats,2020.2.10,60.014305716887726,
zibja,zibja,,,,,,,,,0,33,33,33,,,,,,,,,,,,,,,519249.84833271505,None,"['z', 'i', 'b', 'j', 'a']",1,"[1.4842999179963954, 1.620335746963974, 1.868397168989759, 2.100287389010191, 2.18837429798441]",519249.84833271505,None,519249.8482464786,519249.94822743704,s198_02202023,001,2023_Feb_20_1733,test_typingtask_norepeats,2020.2.10,60.014305716887726,
would,would,,,,,,,,,0,34,34,34,,,,,,,,,,,,,,,519255.34804716305,None,"['w', 'o', 'u', 'l', 'd']",1,"[0.616656697995495, 0.7046929459902458, 0.7606452179607004, 0.9526861769845709, 1.048678407969419]",519255.34804716305,None,519255.3478156467,519255.448214123,s198_02202023,001,2023_Feb_20_1733,test_typingtask_norepeats,2020.2.10,60.014305716887726,
lucky,lucky,,,,,,,,,0,35,35,35,,,,,,,,,,,,,,,519260.84793473105,None,"['l', 'u', 'c', 'k', 'y']",1,"[0.6207775460206904, 0.7967896040063351, 0.9728158210054971, 1.0606767600402236, 1.2846698200446554]",519260.84793473105,None,519260.8478603726,519260.948282029,s198_02202023,001,2023_Feb_20_1733,test_typingtask_norepeats,2020.2.10,60.014305716887726,
about,about,,,,,,,,,0,36,36,36,,,,,,,,,,,,,,,519266.34810792,None,"['a', 'b', 'o', 'u', 't']",1,"[0.5525619579711929, 0.6725209179567173, 0.880608843988739, 0.9605023039621301, 1.0806243909755722]",519266.34810792,None,519266.3483560956,519266.44812354003,s198_02202023,001,2023_Feb_20_1733,test_typingtask_norepeats,2020.2.10,60.014305716887726,
tithe,tithe,,,,,,,,,0,37,37,37,,,,,,,,,,,,,,,519271.848072663,None,"['t', 'i', 't', 'h', 'e']",1,"[0.6765886780340225, 0.7645908080157824, 0.9086712850257754, 1.0126149840070866, 1.2125701230252162]",519271.848072663,None,519271.8479990626,519271.94792294904,s198_02202023,001,2023_Feb_20_1733,test_typingtask_norepeats,2020.2.10,60.014305716887726,
haole,haole,,,,,,,,,0,38,38,38,,,,,,,,,,,,,,,519277.348049463,None,"['h', 'a', 'o', 'l', 'e']",1,"[0.8406891720369458, 0.9287077650078572, 1.136642950004898, 1.352660836011637, 1.448730822012294]",519277.348049463,None,519277.3479497937,519277.44811763405,s198_02202023,001,2023_Feb_20_1733,test_typingtask_norepeats,2020.2.10,60.014305716887726,
theme,theme,,,,,,,,,0,39,39,39,,,,,,,,,,,,,,,519282.848289982,None,"['t', 'h', 'e', 'm', 'e']",1,"[0.6843349799746647, 0.7324425249826163, 0.8923267089994624, 1.0363972859922796, 1.172337564988993]",519282.848289982,None,519282.8484802346,519282.948403834,s198_02202023,001,2023_Feb_20_1733,test_typingtask_norepeats,2020.2.10,60.014305716887726,
cooed,cooed,,,,,,,,,0,40,40,40,,,,,,,,,,,,,,,519288.348293829,None,"['c', 'o', 'o', 'e', 'd']",1,"[0.7523731340188533, 0.9204362530144863, 1.0724013579892926, 1.2085015960037708, 1.4563865840318613]",519288.348293829,None,519288.3477875276,519288.44810246205,s198_02202023,001,2023_Feb_20_1733,test_typingtask_norepeats,2020.2.10,60.014305716887726,
druze,druze,,,,,,,,,0,41,41,41,,,,,,,,,,,,,,,519293.848578724,None,"['d', 'r', 'u', 'z', 'e']",1,"[0.6920507879694924, 0.8840420349733904, 0.9321416299790144, 1.2361495629884303, 1.548188210988883]",519293.848578724,None,519293.8482997726,519293.94829646405,s198_02202023,001,2023_Feb_20_1733,test_typingtask_norepeats,2020.2.10,60.014305716887726,
lucky,lucky,,,,,,,,,0,42,42,42,,,,,,,,,,,,,,,519299.34798373503,None,"['l', 'u', 'c', 'k', 'y']",1,"[0.6646460629999638, 0.8567456780001521, 1.0247548960032873, 1.1287538569886237, 1.3687260180013254]",519299.34798373503,None,519299.3480402116,519299.44797812,s198_02202023,001,2023_Feb_20_1733,test_typingtask_norepeats,2020.2.10,60.014305716887726,
think,think,,,,,,,,,0,43,43,43,,,,,,,,,,,,,,,519304.848089819,None,"['t', 'h', 'i', 'n', 'k']",1,"[0.6845227609737776, 0.764590330014471, 0.8925399190047756, 1.0845302899833769, 1.2685955929919146]",519304.848089819,None,519304.8484723546,519304.94811983703,s198_02202023,001,2023_Feb_20_1733,test_typingtask_norepeats,2020.2.10,60.014305716887726,
kremp,kremp,,,,,,,,,0,44,44,44,,,,,,,,,,,,,,,519310.34825251205,None,"['k', 'r', 'e', 'm', 'p']",1,"[0.7043867600150406, 0.8804365340038203, 0.9763751340215094, 1.0485301350126974, 1.1843718780437484]",519310.34825251205,None,519310.3484086667,519310.448298496,s198_02202023,001,2023_Feb_20_1733,test_typingtask_norepeats,2020.2.10,60.014305716887726,
cheer,cheer,,,,,,,,,0,45,45,45,,,,,,,,,,,,,,,519315.84820819105,None,"['c', 'h', 'e', 'e', 'r']",1,"[0.692407067050226, 0.7485101339989342, 0.924475179053843, 1.0924215520499274, 1.2844041750067845]",519315.84820819105,None,519315.8480353666,519315.948049828,s198_02202023,001,2023_Feb_20_1733,test_typingtask_norepeats,2020.2.10,60.014305716887726,
heond,heond,,,,,,,,,0,46,46,46,,,,,,,,,,,,,,,519321.347997942,None,"['h', 'e', 'o', 'n', 'd']",1,"[0.6967276550130919, 0.8086369229713455, 0.9126730519928969, 1.0967043209820986, 1.2006195549620315]",519321.347997942,None,519321.34811347467,519321.448411797,s198_02202023,001,2023_Feb_20_1733,test_typingtask_norepeats,2020.2.10,60.014305716887726,
lucky,lucky,,,,,,,,,0,47,47,47,,,,,,,,,,,,,,,519326.848081792,None,"['l', 'u', 'c', 'k', 'y']",1,"[0.6845378580037504, 0.8446442140266299, 0.9965693289996125, 1.1086907160351984, 1.3406442800187506]",519326.848081792,None,519326.8479585727,519326.94797342,s198_02202023,001,2023_Feb_20_1733,test_typingtask_norepeats,2020.2.10,60.014305716887726,
zibja,zibja,,,,,,,,,0,48,48,48,,,,,,,,,,,,,,,519332.348201362,None,"['z', 'i', 'b', 'j', 'a']",1,"[0.7365422949660569, 0.8565359889762476, 1.072554634010885, 1.2965139389852993, 1.4085145230055787]",519332.348201362,None,519332.3479210567,519332.448257185,s198_02202023,001,2023_Feb_20_1733,test_typingtask_norepeats,2020.2.10,60.014305716887726,
heond,heond,,,,,,,,,0,49,49,49,,,,,,,,,,,,,,,519337.848210219,None,"['h', 'e', 'o', 'n', 'd']",1,"[0.6764056500396691, 0.8365147960139439, 0.9004087659996003, 1.0685358310001902, 1.1644541440182365]",519337.848210219,None,519337.84819486167,519337.947859549,s198_02202023,001,2023_Feb_20_1733,test_typingtask_norepeats,2020.2.10,60.014305716887726,
would,would,,,,,,,,,0,50,50,50,,,,,,,,,,,,,,,519343.34820942004,None,"['w', 'o', 'u', 'l', 'd']",1,"[0.6805086599779315, 0.8164813339826651, 0.8724225540063344, 1.0805247820098884, 1.1604104379657656]",519343.34820942004,None,519343.34842916066,519343.448354686,s198_02202023,001,2023_Feb_20_1733,test_typingtask_norepeats,2020.2.10,60.014305716887726,
haole,haole,,,,,,,,,0,51,51,51,,,,,,,,,,,,,,,519348.848149725,None,"['h', 'a', 'o', 'l', 'e']",1,"[0.6525617439765483, 0.7805466969730332, 0.9245429469738156, 1.1325719819869846, 1.220525712997187]",519348.848149725,None,519348.8480977226,519348.947902733,s198_02202023,001,2023_Feb_20_1733,test_typingtask_norepeats,2020.2.10,60.014305716887726,
buddy,buddy,,,,,,,,,0,52,52,52,,,,,,,,,,,,,,,519354.348338727,None,"['b', 'u', 'd', 'd', 'y']",1,"[0.6643088219570927, 0.8642855039797723, 1.0083731829654425, 1.1842807799694128, 1.3444585309480317]",519354.348338727,None,519354.3483458656,519354.44861253904,s198_02202023,001,2023_Feb_20_1733,test_typingtask_norepeats,2020.2.10,60.014305716887726,
pykka,pykka,,,,,,,,,0,53,53,53,,,,,,,,,,,,,,,519359.84839875804,None,"['p', 'y', 'k', 'k', 'a']",1,"[0.6762232870096341, 0.8362911749863997, 1.1162964249961078, 1.2842261199839413, 1.3883203999721445]",519359.84839875804,None,519359.84834771766,519359.94807829405,s198_02202023,001,2023_Feb_20_1733,test_typingtask_norepeats,2020.2.10,60.014305716887726,
about,about,,,,,,,,,0,54,54,54,,,,,,,,,,,,,,,519365.34827650303,None,"['a', 'b', 'o', 'u', 't']",1,"[0.6324141130317003, 0.7204441730282269, 0.920397020992823, 0.9843364169937558, 1.1364021180197597]",519365.34827650303,None,519365.34810244467,519365.448186844,s198_02202023,001,2023_Feb_20_1733,test_typingtask_norepeats,2020.2.10,60.014305716887726,
zibja,zibja,,,,,,,,,0,55,55,55,,,,,,,,,,,,,,,519370.848110478,None,"['z', 'i', 'b', 'j', 'a']",1,"[0.8526506460038945, 0.9405915410025045, 1.1725800469866954, 1.388612387003377, 1.500509775010869]",519370.848110478,None,519370.84816649766,519370.948159735,s198_02202023,001,2023_Feb_20_1733,test_typingtask_norepeats,2020.2.10,60.014305716887726,
theme,theme,,,,,,,,,0,56,56,56,,,,,,,,,,,,,,,519376.348394959,None,"['t', 'h', 'e', 'm', 'e']",1,"[0.6642494960105978, 0.7283172290190123, 0.8883411359856836, 1.008402846986428, 1.1122511340072379]",519376.348394959,None,519376.34850843064,519376.448317832,s198_02202023,001,2023_Feb_20_1733,test_typingtask_norepeats,2020.2.10,60.014305716887726,
faqir,faqir,,,,,,,,,0,57,57,57,,,,,,,,,,,,,,,519381.84828716004,None,"['f', 'a', 'q', 'i', 'r']",1,"[0.7083371609915048, 0.8923973200144246, 1.3085227769915946, 1.4924447030061856, 1.6924344199942425]",519381.84828716004,None,519381.84842479264,519381.948447238,s198_02202023,001,2023_Feb_20_1733,test_typingtask_norepeats,2020.2.10,60.014305716887726,
therm,therm,,,,,,,,,0,58,58,58,,,,,,,,,,,,,,,519387.348063989,None,"['t', 'h', 'e', 'r', 'm']",1,"[0.6726174089708365, 0.7606222750036977, 0.9366477229632437, 1.000551810953766, 1.1125648379675113]",519387.348063989,None,519387.3480936426,519387.448145492,s198_02202023,001,2023_Feb_20_1733,test_typingtask_norepeats,2020.2.10,60.014305716887726,
druze,druze,,,,,,,,,0,59,59,59,,,,,,,,,,,,,,,519392.84804451,None,"['d', 'r', 'u', 'z', 'e']",1,"[0.7166430589859374, 0.9326552930288017, 0.9966331670293584, 1.3806823650375009, 1.6447436090093106]",519392.84804451,None,519392.84813665564,519392.94795161503,s198_02202023,001,2023_Feb_20_1733,test_typingtask_norepeats,2020.2.10,60.014305716887726,
haole,haole,,,,,,,,,0,60,60,60,,,,,,,,,,,,,,,519398.34857980104,None,"['h', 'a', 'o', 'l', 'e']",1,"[0.6481402110075578, 0.7441034630173817, 0.8881133280228823, 1.0961286789970472, 1.168151164019946]",519398.34857980104,None,519398.34843583265,519398.44854728604,s198_02202023,001,2023_Feb_20_1733,test_typingtask_norepeats,2020.2.10,60.014305716887726,
think,think,,,,,,,,,0,61,61,61,,,,,,,,,,,,,,,519403.848265252,None,"['t', 'h', 'i', 'n', 'k']",1,"[0.6044187300140038, 0.7164636090165004, 0.8444563390221447, 1.012424169050064, 1.1804482720326632]",519403.848265252,None,519403.8479636016,519403.948131988,s198_02202023,001,2023_Feb_20_1733,test_typingtask_norepeats,2020.2.10,60.014305716887726,
puppy,puppy,,,,,,,,,0,62,62,62,,,,,,,,,,,,,,,519409.348060216,None,"['p', 'u', 'p', 'p', 'y']",1,"[0.5845515559776686, 0.7686746810213663, 0.952664777985774, 1.0965925250202417, 1.2486543789855205]",519409.348060216,None,519409.3481439046,519409.448462526,s198_02202023,001,2023_Feb_20_1733,test_typingtask_norepeats,2020.2.10,60.014305716887726,
would,would,,,,,,,,,0,63,63,63,,,,,,,,,,,,,,,519414.848509081,None,"['w', 'o', 'u', 'l', 'd']",1,"[0.6521806390373968, 0.7562294250237755, 0.8201324730180204, 1.0202299330267124, 1.1322232950478792]",519414.848509081,None,519414.8485255457,519414.94835119,s198_02202023,001,2023_Feb_20_1733,test_typingtask_norepeats,2020.2.10,60.014305716887726,
vodka,vodka,,,,,,,,,0,64,64,64,,,,,,,,,,,,,,,519420.349174512,None,"['v', 'o', 'd', 'k', 'a']",1,"[0.8634667809819803, 0.9515305350068957, 1.1994652620051056, 1.3915899469866417, 1.4874712669989094]",519420.349174512,None,519420.34847399965,519420.44825478405,s198_02202023,001,2023_Feb_20_1733,test_typingtask_norepeats,2020.2.10,60.014305716887726,
zibja,zibja,,,,,,,,,0,65,65,65,,,,,,,,,,,,,,,519425.848191761,None,"['z', 'i', 'b', 'j', 'a']",1,"[0.9485908949864097, 1.0444893919629976, 1.3085581899504177, 1.5644822439644486, 1.692514747963287]",519425.848191761,None,519425.8480542416,519425.948151451,s198_02202023,001,2023_Feb_20_1733,test_typingtask_norepeats,2020.2.10,60.014305716887726,
tithe,tithe,,,,,,,,,0,66,66,66,,,,,,,,,,,,,,,519431.348480542,None,"['t', 'i', 't', 'h', 'e']",1,"[0.6962385419756174, 0.9202421340160072, 1.1042405429761857, 1.2082486349972896, 1.416207395028323]",519431.348480542,None,519431.3488084816,519431.448483899,s198_02202023,001,2023_Feb_20_1733,test_typingtask_norepeats,2020.2.10,60.014305716887726,
about,about,,,,,,,,,0,67,67,67,,,,,,,,,,,,,,,519436.848131796,None,"['a', 'b', 'o', 'u', 't']",1,"[0.660499544988852, 0.7885594959952869, 1.004500059003476, 1.0604833699762821, 1.2286228379816748]",519436.848131796,None,519436.84828554664,519436.948266105,s198_02202023,001,2023_Feb_20_1733,test_typingtask_norepeats,2020.2.10,60.014305716887726,
vanru,vanru,,,,,,,,,0,68,68,68,,,,,,,,,,,,,,,519442.34821048804,None,"['v', 'a', 'n', 'r', 'u']",1,"[0.7284838759806007, 0.9124484199564904, 1.0004029289702885, 1.1604231399833225, 1.2644100209581666]",519442.34821048804,None,519442.34813656565,519442.448339372,s198_02202023,001,2023_Feb_20_1733,test_typingtask_norepeats,2020.2.10,60.014305716887726,
cooed,cooed,,,,,,,,,0,69,69,69,,,,,,,,,,,,,,,519447.848190855,None,"['c', 'o', 'o', 'e', 'd']",1,"[0.6124588460079394, 0.7405518779996783, 0.908430335985031, 1.0205432740040123, 1.2764362609595992]",519447.848190855,None,519447.8482165246,519447.948185341,s198_02202023,001,2023_Feb_20_1733,test_typingtask_norepeats,2020.2.10,60.014305716887726,
vodka,vodka,,,,,,,,,0,70,70,70,,,,,,,,,,,,,,,519453.34927450004,None,"['v', 'o', 'd', 'k', 'a']",1,"[0.7753530779737048, 0.855470284994226, 1.055417088966351, 1.2474188249907456, 1.319395867001731]",519453.34927450004,None,519453.34837787657,519453.448144864,s198_02202023,001,2023_Feb_20_1733,test_typingtask_norepeats,2020.2.10,60.014305716887726,
heond,heond,,,,,,,,,0,71,71,71,,,,,,,,,,,,,,,519458.848516563,None,"['h', 'e', 'o', 'n', 'd']",1,"[0.6921386769972742, 0.860109003027901, 0.9241067820112221, 1.0920853840070777, 1.1962385380174965]",519458.848516563,None,519458.84861483367,519458.94846713904,s198_02202023,001,2023_Feb_20_1733,test_typingtask_norepeats,2020.2.10,60.014305716887726,
champ,champ,,,,,,,,,0,72,72,72,,,,,,,,,,,,,,,519464.34835837205,None,"['c', 'h', 'a', 'm', 'p']",1,"[0.6403714289772324, 0.7203322660061531, 0.8723219519597478, 0.9923359290114604, 1.1042602699599229]",519464.34835837205,None,519464.3482477976,519464.44854338904,s198_02202023,001,2023_Feb_20_1733,test_typingtask_norepeats,2020.2.10,60.014305716887726,
there,there,,,,,,,,,0,73,73,73,,,,,,,,,,,,,,,519469.848232652,None,"['t', 'h', 'e', 'r', 'e']",1,"[0.6763902269885875, 0.7485449259984307, 0.8924131050007418, 0.9725139329675585, 1.100394247972872]",519469.848232652,None,519469.8486741886,519469.948137406,s198_02202023,001,2023_Feb_20_1733,test_typingtask_norepeats,2020.2.10,60.014305716887726,
edthe,edthe,,,,,,,,,0,74,74,74,,,,,,,,,,,,,,,519475.348161249,None,"['e', 'd', 't', 'h', 'e']",1,"[0.6724666490335949, 0.896485424018465, 1.144558964006137, 1.2245726989931427, 1.4085857539903373]",519475.348161249,None,519475.3480383166,519475.448421419,s198_02202023,001,2023_Feb_20_1733,test_typingtask_norepeats,2020.2.10,60.014305716887726,
pykka,pykka,,,,,,,,,0,75,75,75,,,,,,,,,,,,,,,519480.84825494804,None,"['p', 'y', 'k', 'k', 'a']",1,"[0.6603526559774764, 0.8204154199920595, 1.0843689719913527, 1.2204600739642046, 1.3563918239669874]",519480.84825494804,None,519480.84824876767,519480.94824179803,s198_02202023,001,2023_Feb_20_1733,test_typingtask_norepeats,2020.2.10,60.014305716887726,
cheer,cheer,,,,,,,,,0,76,76,76,,,,,,,,,,,,,,,519486.34827449603,None,"['c', 'h', 'e', 'e', 'r']",1,"[0.6483953219722025, 0.7124527829582803, 0.8963904149713926, 1.0643641499918886, 1.2483889079885557]",519486.34827449603,None,519486.34850815067,519486.448209987,s198_02202023,001,2023_Feb_20_1733,test_typingtask_norepeats,2020.2.10,60.014305716887726,
vanru,vanru,,,,,,,,,0,77,77,77,,,,,,,,,,,,,,,519491.848236837,None,"['v', 'a', 'n', 'r', 'u']",1,"[0.8364307500305586, 0.9324907340342179, 1.0364912999793887, 1.1965018680202775, 1.28437433403451]",519491.848236837,None,519491.8482879007,519491.947976964,s198_02202023,001,2023_Feb_20_1733,test_typingtask_norepeats,2020.2.10,60.014305716887726,
faqir,faqir,,,,,,,,,0,78,78,78,,,,,,,,,,,,,,,519497.34859859105,None,"['f', 'a', 'q', 'i', 'r']",1,"[0.7521100199664943, 0.8801263250061311, 1.2401423300034367, 1.2720933699747548, 1.6640662449644879]",519497.34859859105,None,519497.3487203446,519497.448559702,s198_02202023,001,2023_Feb_20_1733,test_typingtask_norepeats,2020.2.10,60.014305716887726,
there,there,,,,,,,,,0,79,79,79,,,,,,,,,,,,,,,519502.84839620104,None,"['t', 'h', 'e', 'r', 'e']",1,"[0.6203429459710605, 0.6922176519874483, 0.8363384549738839, 0.908267088001594, 1.0362998049822636]",519502.84839620104,None,519502.8481079696,519502.948512123,s198_02202023,001,2023_Feb_20_1733,test_typingtask_norepeats,2020.2.10,60.014305716887726,
belly,belly,,,,,,,,,0,80,80,80,,,,,,,,,,,,,,,519508.348684331,None,"['b', 'e', 'l', 'l', 'y']",1,"[0.6559186149970628, 0.768061402020976, 0.9119693429674953, 1.0720054759876803, 1.272030577994883]",519508.348684331,None,519508.34869100165,519508.44863837905,s198_02202023,001,2023_Feb_20_1733,test_typingtask_norepeats,2020.2.10,60.014305716887726,
vanru,vanru,,,,,,,,,0,81,81,81,,,,,,,,,,,,,,,519513.84887716104,None,"['v', 'a', 'n', 'r', 'u']",1,"[0.7478095560218208, 0.8518507860135287, 0.9318249190109782, 1.1318480060435832, 1.1957360880333]",519513.84887716104,None,519513.8485542756,519513.948675187,s198_02202023,001,2023_Feb_20_1733,test_typingtask_norepeats,2020.2.10,60.014305716887726,
tithe,tithe,,,,,,,,,0,82,82,82,,,,,,,,,,,,,,,519519.34824658005,None,"['t', 'i', 't', 'h', 'e']",1,"[0.7123780840192921, 0.8004625670146197, 0.9124490050016902, 1.0084798890165985, 1.16837349900743]",519519.34824658005,None,519519.3482837606,519519.448227149,s198_02202023,001,2023_Feb_20_1733,test_typingtask_norepeats,2020.2.10,60.014305716887726,
edthe,edthe,,,,,,,,,0,83,83,83,,,,,,,,,,,,,,,519524.848174964,None,"['e', 'd', 't', 'h', 'e']",1,"[0.6844405979500152, 0.8844448099844158, 1.1004789999569766, 1.1725746750016697, 1.3405710609513335]",519524.848174964,None,519524.8482196046,519524.94865193404,s198_02202023,001,2023_Feb_20_1733,test_typingtask_norepeats,2020.2.10,60.014305716887726,
would,would,,,,,,,,,0,84,84,84,,,,,,,,,,,,,,,519530.348423795,None,"['w', 'o', 'u', 'l', 'd']",1,"[0.6563180439989083, 0.7602280200226232, 0.8323000079835765, 1.0401998559827916, 1.1202475919853896]",519530.348423795,None,519530.34864911565,519530.44862863404,s198_02202023,001,2023_Feb_20_1733,test_typingtask_norepeats,2020.2.10,60.014305716887726,
edthe,edthe,,,,,,,,,0,85,85,85,,,,,,,,,,,,,,,519535.84856894804,None,"['e', 'd', 't', 'h', 'e']",1,"[0.7001500009791926, 0.9321603119606152, 1.172175301995594, 1.2521156889852136, 1.4760496789822355]",519535.84856894804,None,519535.84854404966,519535.94855171605,s198_02202023,001,2023_Feb_20_1733,test_typingtask_norepeats,2020.2.10,60.014305716887726,
cheer,cheer,,,,,,,,,0,86,86,86,,,,,,,,,,,,,,,519541.348385739,None,"['c', 'h', 'e', 'e', 'r']",1,"[0.7042933030170389, 0.7762333109858446, 0.9363013620022684, 1.1042281580157578, 1.3123169210157357]",519541.348385739,None,519541.3485088446,519541.44831345003,s198_02202023,001,2023_Feb_20_1733,test_typingtask_norepeats,2020.2.10,60.014305716887726,
pykka,pykka,,,,,,,,,0,87,87,87,,,,,,,,,,,,,,,519546.848380081,None,"['p', 'y', 'k', 'k', 'a']",1,"[0.7803076740237884, 0.9563063039677218, 1.2762403559754603, 1.3803176369983703, 1.5082452619681135]",519546.848380081,None,519546.84828181565,519546.948342568,s198_02202023,001,2023_Feb_20_1733,test_typingtask_norepeats,2020.2.10,60.014305716887726,
there,there,,,,,,,,,0,88,88,88,,,,,,,,,,,,,,,519552.348228308,None,"['t', 'h', 'e', 'r', 'e']",1,"[0.8165063309716061, 0.8963999290135689, 1.0245241909869947, 1.1204481669701636, 1.232462156971451]",519552.348228308,None,519552.3482140086,519552.448436614,s198_02202023,001,2023_Feb_20_1733,test_typingtask_norepeats,2020.2.10,60.014305716887726,
edthe,edthe,,,,,,,,,0,89,89,89,,,,,,,,,,,,,,,519557.848406377,None,"['e', 'd', 't', 'h', 'e']",1,"[0.708341596997343, 0.9403203100082465, 1.1482187120127492, 1.2362982369959354, 1.4042304250178859]",519557.848406377,None,519557.8484879716,519557.948191179,s198_02202023,001,2023_Feb_20_1733,test_typingtask_norepeats,2020.2.10,60.014305716887726,
think,think,,,,,,,,,0,90,90,90,,,,,,,,,,,,,,,519563.34825871704,None,"['t', 'h', 'i', 'n', 'k']",1,"[0.7445159509661607, 0.840481903986074, 0.9444130539777689, 1.1284568390110508, 1.3044330399716273]",519563.34825871704,None,519563.3484547107,519563.44827539905,s198_02202023,001,2023_Feb_20_1733,test_typingtask_norepeats,2020.2.10,60.014305716887726,
lucky,lucky,,,,,,,,,0,91,91,91,,,,,,,,,,,,,,,519568.848645089,None,"['l', 'u', 'c', 'k', 'y']",1,"[0.6520490040420555, 0.8360846120049246, 1.0120646410505287, 1.0999788190238178, 1.3080987760331482]",519568.848645089,None,519568.84895234765,519568.948581476,s198_02202023,001,2023_Feb_20_1733,test_typingtask_norepeats,2020.2.10,60.014305716887726,
belly,belly,,,,,,,,,0,92,92,92,,,,,,,,,,,,,,,519574.348655775,None,"['b', 'e', 'l', 'l', 'y']",1,"[0.7040206749807112, 0.8320312409778126, 0.9520347919897176, 1.0959717929945327, 1.3040438810130581]",519574.348655775,None,519574.3488598827,519574.44873010804,s198_02202023,001,2023_Feb_20_1733,test_typingtask_norepeats,2020.2.10,60.014305716887726,
tithe,tithe,,,,,,,,,0,93,93,93,,,,,,,,,,,,,,,519579.848312508,None,"['t', 'i', 't', 'h', 'e']",1,"[0.7883642310043797, 0.8842911429819651, 0.9963209389825352, 1.0842927459743805, 1.2683040470001288]",519579.848312508,None,519579.8485413536,519579.94870580104,s198_02202023,001,2023_Feb_20_1733,test_typingtask_norepeats,2020.2.10,60.014305716887726,
vanru,vanru,,,,,,,,,0,94,94,94,,,,,,,,,,,,,,,519585.351508072,None,"['v', 'a', 'n', 'r', 'u']",1,"[0.7810808320064098, 0.8850689520477317, 0.9890745430020615, 1.1810837520170026, 1.2371512640384026]",519585.351508072,None,519585.34970793163,None,s198_02202023,001,2023_Feb_20_1733,test_typingtask_norepeats,2020.2.10,60.014305716887726,
theme,theme,,,,,,,,,0,95,95,95,,,,,,,,,,,,,,,519590.865120909,None,"['t', 'h', 'e', 'm', 'e']",1,"[0.7155725799966604, 0.8036011969670653, 0.9475335709867068, 1.0594920229632407, 1.1556098029832356]",519590.865120909,None,519590.8647294106,519590.965429454,s198_02202023,001,2023_Feb_20_1733,test_typingtask_norepeats,2020.2.10,60.014305716887726,
druze,druze,,,,,,,,,0,96,96,96,,,,,,,,,,,,,,,519596.36510719004,None,"['d', 'r', 'u', 'z', 'e']",1,"[0.7275220829760656, 0.9356028409674764, 0.9915020790067501, 1.3275255609769374, 1.6235817419947125]",519596.36510719004,None,519596.3650340877,519596.46543418703,s198_02202023,001,2023_Feb_20_1733,test_typingtask_norepeats,2020.2.10,60.014305716887726,
think,think,,,,,,,,,0,97,97,97,,,,,,,,,,,,,,,519601.864992888,None,"['t', 'h', 'i', 'n', 'k']",1,"[0.6277455890085548, 0.7316735390340909, 0.8596265300293453, 1.0197328150388785, 1.187707978009712]",519601.864992888,None,519601.8649319116,519601.965070843,s198_02202023,001,2023_Feb_20_1733,test_typingtask_norepeats,2020.2.10,60.014305716887726,
therm,therm,,,,,,,,,0,98,98,98,,,,,,,,,,,,,,,519607.365104529,None,"['t', 'h', 'e', 'r', 'm']",1,"[0.7116163140162826, 0.7915604200097732, 0.9995871789869852, 1.0875737169990316, 1.1675147599889897]",519607.365104529,None,519607.3650961786,519607.46510018705,s198_02202023,001,2023_Feb_20_1733,test_typingtask_norepeats,2020.2.10,60.014305716887726,
champ,champ,,,,,,,,,0,99,99,99,,,,,,,,,,,,,,,519612.866006375,None,"['c', 'h', 'a', 'm', 'p']",1,"[0.6907272919779643, 0.7705864179879427, 0.9227123869932257, 1.0506814469699748, 1.162696662999224]",519612.866006375,None,519612.8651259657,519612.964916134,s198_02202023,001,2023_Feb_20_1733,test_typingtask_norepeats,2020.2.10,60.014305716887726,
cooed,cooed,,,,,,,,,0,100,100,100,,,,,,,,,,,,,,,519618.365174653,None,"['c', 'o', 'o', 'e', 'd']",1,"[0.6555229020304978, 0.79155357304262, 0.9674509660108015, 1.0955726420506835, 1.3515516710467637]",519618.365174653,None,519618.3652218736,519618.46503426705,s198_02202023,001,2023_Feb_20_1733,test_typingtask_norepeats,2020.2.10,60.014305716887726,
heond,heond,,,,,,,,,0,101,101,101,,,,,,,,,,,,,,,519623.86537156603,None,"['h', 'e', 'o', 'n', 'd']",1,"[0.6512523969868198, 0.763273753982503, 0.8592441880027764, 1.0432681959937327, 1.131286060961429]",519623.86537156603,None,519623.86527419067,519623.965541477,s198_02202023,001,2023_Feb_20_1733,test_typingtask_norepeats,2020.2.10,60.014305716887726,
druze,druze,,,,,,,,,0,102,102,102,,,,,,,,,,,,,,,519629.365163968,None,"['d', 'r', 'u', 'z', 'e']",1,"[0.6395538459764794, 0.8794612120254897, 0.9434569440199994, 1.2714327750145458, 1.6555201879818924]",519629.365163968,None,519629.36500407266,519629.465051226,s198_02202023,001,2023_Feb_20_1733,test_typingtask_norepeats,2020.2.10,60.014305716887726,
cheer,cheer,,,,,,,,,0,103,103,103,,,,,,,,,,,,,,,519634.86516428,None,"['c', 'h', 'e', 'e', 'r']",1,"[0.6674559789826162, 0.7235811980208382, 0.8995257100323215, 1.0755426959949546, 1.2835329939844087]",519634.86516428,None,519634.8651768386,519634.965126149,s198_02202023,001,2023_Feb_20_1733,test_typingtask_norepeats,2020.2.10,60.014305716887726,
champ,champ,,,,,,,,,0,104,104,104,,,,,,,,,,,,,,,519640.365221147,None,"['c', 'h', 'a', 'm', 'p']",1,"[0.6873970460146666, 0.775468309991993, 0.9114994810079224, 1.023483960016165, 1.151532281015534]",519640.365221147,None,519640.3651108276,519640.464962653,s198_02202023,001,2023_Feb_20_1733,test_typingtask_norepeats,2020.2.10,60.014305716887726,
theme,theme,,,,,,,,,0,105,105,105,,,,,,,,,,,,,,,519645.86542300903,None,"['t', 'h', 'e', 'm', 'e']",1,"[0.6431904369965196, 0.7152677859994583, 0.8913221980328672, 0.9792668260051869, 1.099248679005541]",519645.86542300903,None,519645.8655903706,519645.96532554604,s198_02202023,001,2023_Feb_20_1733,test_typingtask_norepeats,2020.2.10,60.014305716887726,
belly,belly,,,,,,,,,0,106,106,106,,,,,,,,,,,,,,,519651.36537376704,None,"['b', 'e', 'l', 'l', 'y']",1,"[0.655317371012643, 0.7513154890039004, 0.9113268170040101, 1.0553097910014912, 1.2553529600263573]",519651.36537376704,None,519651.36544494564,519651.465360437,s198_02202023,001,2023_Feb_20_1733,test_typingtask_norepeats,2020.2.10,60.014305716887726,
theme,theme,,,,,,,,,0,107,107,107,,,,,,,,,,,,,,,519656.865286385,None,"['t', 'h', 'e', 'm', 'e']",1,"[0.6034347509848885, 0.6753827249631286, 0.8273899149498902, 0.9154127339716069, 1.0433429989498109]",519656.865286385,None,519656.86554289865,519656.965521737,s198_02202023,001,2023_Feb_20_1733,test_typingtask_norepeats,2020.2.10,60.014305716887726,
zibja,zibja,,,,,,,,,0,108,108,108,,,,,,,,,,,,,,,519662.36515777704,None,"['z', 'i', 'b', 'j', 'a']",1,"[0.9355723500484601, 1.03150090505369, 1.2554692950216122, 1.4875454830471426, 1.5755337550072]",519662.36515777704,None,519662.36527860165,519662.465623644,s198_02202023,001,2023_Feb_20_1733,test_typingtask_norepeats,2020.2.10,60.014305716887726,
heond,heond,,,,,,,,,0,109,109,109,,,,,,,,,,,,,,,519667.865262132,None,"['h', 'e', 'o', 'n', 'd']",1,"[0.659367315005511, 0.7634630899992771, 0.8753570119733922, 1.0274046889971942, 1.1154594320105389]",519667.865262132,None,519667.86516654957,519667.965200714,s198_02202023,001,2023_Feb_20_1733,test_typingtask_norepeats,2020.2.10,60.014305716887726,
cheer,cheer,,,,,,,,,0,110,110,110,,,,,,,,,,,,,,,519673.365281803,None,"['c', 'h', 'e', 'e', 'r']",1,"[0.719422306981869, 0.7833765170071274, 0.9513304610154592, 1.1194422459811904, 1.3033991070115007]",519673.365281803,None,519673.36507517763,519673.46514104505,s198_02202023,001,2023_Feb_20_1733,test_typingtask_norepeats,2020.2.10,60.014305716887726,
puppy,puppy,,,,,,,,,0,111,111,111,,,,,,,,,,,,,,,519678.865210177,None,"['p', 'u', 'p', 'p', 'y']",1,"[0.5794398119905964, 0.779461465019267, 0.963455185003113, 1.1074854879989289, 1.283510715002194]",519678.865210177,None,519678.8650572706,519678.965274585,s198_02202023,001,2023_Feb_20_1733,test_typingtask_norepeats,2020.2.10,60.014305716887726,
champ,champ,,,,,,,,,0,112,112,112,,,,,,,,,,,,,,,519684.365308656,None,"['c', 'h', 'a', 'm', 'p']",1,"[0.6154162460006773, 0.7034039400168695, 0.8473812509910204, 0.9513355889939703, 1.0793386389850639]",519684.365308656,None,519684.3655461086,519684.46546900604,s198_02202023,001,2023_Feb_20_1733,test_typingtask_norepeats,2020.2.10,60.014305716887726,
kremp,kremp,,,,,,,,,0,113,113,113,,,,,,,,,,,,,,,519689.86517625104,None,"['k', 'r', 'e', 'm', 'p']",1,"[0.8274974310188554, 0.995484535000287, 1.107568624021951, 1.163516401022207, 1.2755310630309395]",519689.86517625104,None,519689.8652421186,519689.965088937,s198_02202023,001,2023_Feb_20_1733,test_typingtask_norepeats,2020.2.10,60.014305716887726,
cooed,cooed,,,,,,,,,0,114,114,114,,,,,,,,,,,,,,,519695.365278944,None,"['c', 'o', 'o', 'e', 'd']",1,"[0.6394493590341881, 0.7754183519864455, 0.935396358021535, 1.039423601992894, 1.3034422540222295]",519695.365278944,None,519695.36508434766,519695.46535584604,s198_02202023,001,2023_Feb_20_1733,test_typingtask_norepeats,2020.2.10,60.014305716887726,
faqir,faqir,,,,,,,,,0,115,115,115,,,,,,,,,,,,,,,519700.865492527,None,"['f', 'a', 'q', 'i', 'r']",1,"[0.811217614042107, 0.9231881030136719, 1.2591277930187061, 1.3712475020438433, 1.547213644022122]",519700.865492527,None,519700.8652568826,519700.96554698504,s198_02202023,001,2023_Feb_20_1733,test_typingtask_norepeats,2020.2.10,60.014305716887726,
there,there,,,,,,,,,0,116,116,116,,,,,,,,,,,,,,,519706.365742922,None,"['t', 'h', 'e', 'r', 'e']",1,"[0.5829528069589287, 0.686935490986798, 0.823000983975362, 0.895009615982417, 1.0229499829583801]",519706.365742922,None,519706.3653685206,519706.46581004304,s198_02202023,001,2023_Feb_20_1733,test_typingtask_norepeats,2020.2.10,60.014305716887726,
champ,champ,,,,,,,,,0,117,117,117,,,,,,,,,,,,,,,519711.865189893,None,"['c', 'h', 'a', 'm', 'p']",1,"[0.6115203509689309, 0.7155012100120075, 0.8915710679721087, 1.0034791289945133, 1.1235363759915344]",519711.865189893,None,519711.8652373436,519711.96525496,s198_02202023,001,2023_Feb_20_1733,test_typingtask_norepeats,2020.2.10,60.014305716887726,
belly,belly,,,,,,,,,0,118,118,118,,,,,,,,,,,,,,,519717.365128864,None,"['b', 'e', 'l', 'l', 'y']",1,"[0.7275113589712419, 0.8155621729674749, 0.9836048069992103, 1.1355965239927173, 1.3274906210135669]",519717.365128864,None,519717.36530003767,519717.465212533,s198_02202023,001,2023_Feb_20_1733,test_typingtask_norepeats,2020.2.10,60.014305716887726,
about,about,,,,,,,,,0,119,119,119,,,,,,,,,,,,,,,519722.865128443,None,"['a', 'b', 'o', 'u', 't']",1,"[0.6195609259884804, 0.6916132809710689, 0.8995556959998794, 1.019586319976952, 1.1315276379464194]",519722.865128443,None,519722.86520721565,519722.96524039004,s198_02202023,001,2023_Feb_20_1733,test_typingtask_norepeats,2020.2.10,60.014305716887726,
