string,corrAns,practice_trials.thisRepN,practice_trials.thisTrialN,practice_trials.thisN,practice_trials.thisIndex,trials_1.thisRepN,trials_1.thisTrialN,trials_1.thisN,trials_1.thisIndex,trials_2.thisRepN,trials_2.thisTrialN,trials_2.thisN,trials_2.thisIndex,key_resp_0.keys,key_resp_0.corr,key_resp_0.rt,text_1.started,text_1.stopped,key_resp_1.keys,key_resp_1.corr,key_resp_1.rt,key_resp_1.started,key_resp_1.stopped,sound_1A_1.started,sound_1A_1.stopped,break_time.started,break_time.stopped,text_2.started,text_2.stopped,key_resp_2.keys,key_resp_2.corr,key_resp_2.rt,key_resp_2.started,key_resp_2.stopped,sound_1A_2.started,sound_1A_2.stopped,participant,session,date,expName,psychopyVersion,frameRate,
fresh,fresh,0,0,0,0,,,,,,,,,"['f', 'r', 'e']",0,"[2.2894092069473118, 2.457401632796973, 2.569439318962395]",,,,,,,,,,,,,,,,,,,,,s207_03092023,001,2023_Mar_09_1706,test_typingtask_norepeats,2020.2.10,60.01617436337484,
dream,dream,0,1,1,1,,,,,,,,,"['d', 'r', 'e', 'a', 'm']",1,"[1.4226876851171255, 1.6145628259982914, 1.6866257269866765, 1.790676668053493, 1.9105474911630154]",,,,,,,,,,,,,,,,,,,,,s207_03092023,001,2023_Mar_09_1706,test_typingtask_norepeats,2020.2.10,60.01617436337484,
slime,slime,0,2,2,2,,,,,,,,,"['s', 'l', 'i', 'm', 'e']",1,"[0.9858464859426022, 1.1138256730046123, 1.2738433729391545, 1.505875354865566, 1.6738759139552712]",,,,,,,,,,,,,,,,,,,,,s207_03092023,001,2023_Mar_09_1706,test_typingtask_norepeats,2020.2.10,60.01617436337484,
champ,champ,,,,,0,0,0,0,,,,,,,,1624.3620419008657,None,"['c', 'h', 'a', 'm', 'p']",1,"[0.981517018051818, 1.093402469996363, 1.2054315090645105, 1.3814162670169026, 1.6054739782121032]",1624.3620419008657,None,1624.3556626177858,1624.4556021969765,,,,,,,,,,,,s207_03092023,001,2023_Mar_09_1706,test_typingtask_norepeats,2020.2.10,60.01617436337484,
zibja,zibja,,,,,0,1,1,1,,,,,,,,1629.8722973540425,None,"['z', 'i', 'b', 'j', 'a']",1,"[1.6632602231111377, 1.9913290140684694, 2.7591604781337082, 3.0872578860726207, 3.183149819029495]",1629.8722973540425,None,1629.8714284987188,1629.9716548989527,,,,,,,,,,,,s207_03092023,001,2023_Mar_09_1706,test_typingtask_norepeats,2020.2.10,60.01617436337484,
vodka,vodka,,,,,0,2,2,2,,,,,,,,1635.3716347059235,None,"['v', 'o', 'd', 'k', 'a']",1,"[1.3799547110684216, 1.5478193711023778, 1.7958189269993454, 1.9558982411399484, 2.1078906040638685]",1635.3716347059235,None,1635.3715655446983,1635.47167451703,,,,,,,,,,,,s207_03092023,001,2023_Mar_09_1706,test_typingtask_norepeats,2020.2.10,60.01617436337484,
lucky,lucky,,,,,0,3,3,3,,,,,,,,1640.8715209360234,None,"['l', 'u', 'c', 'k', 'y']",1,"[0.9280149368569255, 1.1200508009642363, 1.2720051498617977, 1.3920685308985412, 1.6240485219750553]",1640.8715209360234,None,1640.8716025787405,1640.9713464989327,,,,,,,,,,,,s207_03092023,001,2023_Mar_09_1706,test_typingtask_norepeats,2020.2.10,60.01617436337484,
faqir,faqir,,,,,0,4,4,4,,,,,,,,1646.3715284909122,None,"['f', 'a', 'q', 'i', 'r']",1,"[1.1639501790050417, 1.2679208430927247, 1.7080411850474775, 1.9560339080635458, 2.204041285905987]",1646.3715284909122,None,1646.3716504228767,1646.4714230708778,,,,,,,,,,,,s207_03092023,001,2023_Mar_09_1706,test_typingtask_norepeats,2020.2.10,60.01617436337484,
lucky,lucky,,,,,0,5,5,5,,,,,,,,1651.8719007829204,None,"['l', 'u', 'c', 'k', 'y']",1,"[0.9036636499222368, 1.087672933936119, 1.1596440870780498, 1.3276471870485693, 1.511787978000939]",1651.8719007829204,None,1651.8720042067114,1651.9718011119403,,,,,,,,,,,,s207_03092023,001,2023_Mar_09_1706,test_typingtask_norepeats,2020.2.10,60.01617436337484,
kremp,kremp,,,,,0,6,6,6,,,,,,,,1657.3718746518716,None,"['k', 'r', 'e', 'm', 'p']",1,"[1.2276708919089288, 1.4037054169457406, 1.5156492968089879, 1.683687537908554, 1.8996233087964356]",1657.3718746518716,None,1657.3716958818957,1657.4717061680276,,,,,,,,,,,,s207_03092023,001,2023_Mar_09_1706,test_typingtask_norepeats,2020.2.10,60.01617436337484,
cooed,cooed,,,,,0,7,7,7,,,,,,,,1662.8716111939866,None,"['c', 'o', 'o', 'e', 'd']",1,"[1.063922386849299, 1.2398318820632994, 1.367822472937405, 1.5119446539320052, 1.6639170618727803]",1662.8716111939866,None,1662.8717345587909,1662.9720125400927,,,,,,,,,,,,s207_03092023,001,2023_Mar_09_1706,test_typingtask_norepeats,2020.2.10,60.01617436337484,
theme,theme,,,,,0,8,8,8,,,,,,,,1668.3714408539236,None,"['t', 'h', 'e', 'm', 'e']",1,"[0.8360776279587299, 0.9001232739537954, 1.0600314040202647, 1.156022964976728, 1.268009423976764]",1668.3714408539236,None,1668.3716008997988,1668.4716061910149,,,,,,,,,,,,s207_03092023,001,2023_Mar_09_1706,test_typingtask_norepeats,2020.2.10,60.01617436337484,
faqir,faqir,,,,,0,9,9,9,,,,,,,,1673.87145942403,None,"['f', 'a', 'q', 'i', 'r']",1,"[1.0960257260594517, 1.2400261999573559, 1.9439476169645786, 2.2959516011178493, 2.400062080938369]",1673.87145942403,None,1673.8717383718583,1673.971408908954,,,,,,,,,,,,s207_03092023,001,2023_Mar_09_1706,test_typingtask_norepeats,2020.2.10,60.01617436337484,
heond,heond,,,,,0,10,10,10,,,,,,,,1679.3716460419819,None,"['h', 'e', 'o', 'n', 'd']",1,"[1.0437888740561903, 1.187924669124186, 1.2919310259167105, 1.4518882241100073, 1.6039096089079976]",1679.3716460419819,None,1679.3716053568758,1679.4715887838975,,,,,,,,,,,,s207_03092023,001,2023_Mar_09_1706,test_typingtask_norepeats,2020.2.10,60.01617436337484,
would,would,,,,,0,11,11,11,,,,,,,,1684.8715154940728,None,"['w', 'o', 'i', 'l', 'd']",0,"[0.8160343940835446, 0.9679222500417382, 1.0879921088926494, 1.5040000630542636, 1.6320136259309947]",1684.8715154940728,None,1684.8716708928812,1684.9715728459414,,,,,,,,,,,,s207_03092023,001,2023_Mar_09_1706,test_typingtask_norepeats,2020.2.10,60.01617436337484,
think,think,,,,,0,12,12,12,,,,,,,,1690.3715523469727,None,"['t', 'h', 'n', 'k']",0,"[0.8679008050821722, 0.9720076690427959, 1.251982914051041, 1.3959251171909273]",1690.3715523469727,None,1690.3715482097584,1690.4717911649495,,,,,,,,,,,,s207_03092023,001,2023_Mar_09_1706,test_typingtask_norepeats,2020.2.10,60.01617436337484,
cooed,cooed,,,,,0,13,13,13,,,,,,,,1695.871655769879,None,"['c', 'o', 'o', 'e', 'd']",1,"[0.9837881929706782, 1.1758759799413383, 1.3198786990251392, 1.4557920498773456, 1.6158640088979155]",1695.871655769879,None,1695.8714182637166,1695.9720995759126,,,,,,,,,,,,s207_03092023,001,2023_Mar_09_1706,test_typingtask_norepeats,2020.2.10,60.01617436337484,
vanru,vanru,,,,,0,14,14,14,,,,,,,,1701.3716093399562,None,"['v', 'a', 'n', 'r', 'u']",1,"[1.107851720880717, 1.2199827078729868, 1.3639269049745053, 1.5159730238374323, 1.6919626439921558]",1701.3716093399562,None,1701.3714476937428,1701.4714287840761,,,,,,,,,,,,s207_03092023,001,2023_Mar_09_1706,test_typingtask_norepeats,2020.2.10,60.01617436337484,
cheer,cheer,,,,,0,15,15,15,,,,,,,,1706.8715809579007,None,"['c', 'h', 'e', 'e', 'r']",1,"[0.799971756990999, 0.9199727969244123, 1.095890900818631, 1.255980870919302, 1.3678679699078202]",1706.8715809579007,None,1706.8716618257574,1706.972050253069,,,,,,,,,,,,s207_03092023,001,2023_Mar_09_1706,test_typingtask_norepeats,2020.2.10,60.01617436337484,
think,think,,,,,0,16,16,16,,,,,,,,1712.3716450668871,None,"['t', 'h', 'i', 'n', 'k']",1,"[0.7318783339578658, 0.8597987189423293, 1.0278991188388318, 1.1397928618825972, 1.2838418728206307]",1712.3716450668871,None,1712.3717355557717,1712.4719352598768,,,,,,,,,,,,s207_03092023,001,2023_Mar_09_1706,test_typingtask_norepeats,2020.2.10,60.01617436337484,
therm,therm,,,,,0,17,17,17,,,,,,,,1717.8717896849848,None,"['t', 'h', 'e', 'r', 'm']",1,"[0.7517363640945405, 0.84767428599298, 0.9757034641224891, 1.0877375069539994, 1.2237756580580026]",1717.8717896849848,None,1717.8717871778179,1717.9719169358723,,,,,,,,,,,,s207_03092023,001,2023_Mar_09_1706,test_typingtask_norepeats,2020.2.10,60.01617436337484,
haole,haole,,,,,0,18,18,18,,,,,,,,1723.3718279250897,None,"['h', 'a', 'o', 'l', 'e']",1,"[0.8596262109931558, 0.9877289279829711, 1.5077392810489982, 1.7076875381171703, 1.7956547350622714]",1723.3718279250897,None,1723.3716505576856,1723.4715935960412,,,,,,,,,,,,s207_03092023,001,2023_Mar_09_1706,test_typingtask_norepeats,2020.2.10,60.01617436337484,
theme,theme,,,,,0,19,19,19,,,,,,,,1728.8719420759007,None,"['t', 'h', 'e', 'm', 'e']",1,"[0.7275979060214013, 0.7996115752030164, 0.9595102891325951, 1.0796986750792712, 1.1996124980505556]",1728.8719420759007,None,1728.871693523787,1728.9715975879226,,,,,,,,,,,,s207_03092023,001,2023_Mar_09_1706,test_typingtask_norepeats,2020.2.10,60.01617436337484,
haole,haole,,,,,0,20,20,20,,,,,,,,1734.3717703600414,None,"['h', 'a', 'o', 'e']",0,"[0.7718043450731784, 0.8916983830276877, 1.0916922520846128, 1.40377178019844]",1734.3717703600414,None,1734.3717406317126,1734.4717453320045,,,,,,,,,,,,s207_03092023,001,2023_Mar_09_1706,test_typingtask_norepeats,2020.2.10,60.01617436337484,
edthe,edthe,,,,,0,21,21,21,,,,,,,,1739.8717154930346,None,"['e', 'd', 't', 'h', 'e']",1,"[1.2238489547744393, 1.3918432779610157, 1.5997977829538286, 1.7277636909857392, 1.8639570497907698]",1739.8717154930346,None,1739.8716644267085,1739.9720129820053,,,,,,,,,,,,s207_03092023,001,2023_Mar_09_1706,test_typingtask_norepeats,2020.2.10,60.01617436337484,
there,there,,,,,0,22,22,22,,,,,,,,1745.3715529160108,None,"['t', 'h', 'e', 'r', 'e']",1,"[0.7160011571832001, 0.81198476604186, 0.9400212040636688, 0.9959677651058882, 1.1000070062000304]",1745.3715529160108,None,1745.3718093959149,1745.4719928018749,,,,,,,,,,,,s207_03092023,001,2023_Mar_09_1706,test_typingtask_norepeats,2020.2.10,60.01617436337484,
druze,druze,,,,,0,23,23,23,,,,,,,,1750.871531684883,None,"['d', 'r', 'u', 'z', 'e']",1,"[0.8719106700737029, 1.1041114451363683, 1.375946608139202, 2.0879905151668936, 2.2720315370243043]",1750.871531684883,None,1750.8716611668467,1750.9718726288993,,,,,,,,,,,,s207_03092023,001,2023_Mar_09_1706,test_typingtask_norepeats,2020.2.10,60.01617436337484,
would,would,,,,,0,24,24,24,,,,,,,,1756.3715892350301,None,"['w', 'i', 'o', 'u', 'l', 'd']",0,"[0.7878821650519967, 1.0839175728615373, 1.8279996199999005, 1.9078616239130497, 2.1399364478420466, 2.235946764005348]",1756.3715892350301,None,1756.3717225177213,1756.471720554866,,,,,,,,,,,,s207_03092023,001,2023_Mar_09_1706,test_typingtask_norepeats,2020.2.10,60.01617436337484,
vodka,vodka,,,,,0,25,25,25,,,,,,,,1761.8720106210094,None,"['v', 'o', 'd', 'k', 'a']",1,"[0.9995408130344003, 1.1355292261578143, 1.3674380232114345, 1.5115327360108495, 1.615546960150823]",1761.8720106210094,None,1761.872060628794,1761.9720040538814,,,,,,,,,,,,s207_03092023,001,2023_Mar_09_1706,test_typingtask_norepeats,2020.2.10,60.01617436337484,
kremp,kremp,,,,,0,26,26,26,,,,,,,,1767.3718167878687,None,"['k', 'r', 'e', 'm', 'p']",1,"[0.9316444208379835, 1.339639537036419, 1.5317349419929087, 1.6517378559801728, 2.0676361890509725]",1767.3718167878687,None,1767.37173085073,1767.4716557639185,,,,,,,,,,,,s207_03092023,001,2023_Mar_09_1706,test_typingtask_norepeats,2020.2.10,60.01617436337484,
about,about,,,,,0,27,27,27,,,,,,,,1772.8717248640023,None,"['a', 'b', 'o', 'u', 't']",1,"[0.7518319389782846, 0.8557515398133546, 1.0798377548344433, 1.1677251840010285, 1.2798526869155467]",1772.8717248640023,None,1772.8715044138487,1772.971702687908,,,,,,,,,,,,s207_03092023,001,2023_Mar_09_1706,test_typingtask_norepeats,2020.2.10,60.01617436337484,
kremp,kremp,,,,,0,28,28,28,,,,,,,,1778.3716962290928,None,"['k', 'r', 'e', 'm', 'p']",1,"[1.0437490448821336, 1.227922729915008, 1.3397549430374056, 1.459757411852479, 1.6518549448810518]",1778.3716962290928,None,1778.3718127987347,1778.4716343740001,,,,,,,,,,,,s207_03092023,001,2023_Mar_09_1706,test_typingtask_norepeats,2020.2.10,60.01617436337484,
vodka,vodka,,,,,0,29,29,29,,,,,,,,1783.8717566409614,None,"['v', 'o', 'd', 'k', 'a']",1,"[1.0558050940744579, 1.1917844358831644, 1.415790885919705, 1.59979347884655, 1.7037794850766659]",1783.8717566409614,None,1783.8718513608444,1783.971598403994,,,,,,,,,,,,s207_03092023,001,2023_Mar_09_1706,test_typingtask_norepeats,2020.2.10,60.01617436337484,
heond,heond,,,,,0,30,30,30,,,,,,,,1789.3720247179735,None,"['h', 'e', 'o', 'n', 'd']",1,"[0.9235315339174122, 1.3075461168773472, 1.4514257870614529, 1.6355141589883715, 1.8355407589115202]",1789.3720247179735,None,1789.3720628998242,1789.4718797870446,,,,,,,,,,,,s207_03092023,001,2023_Mar_09_1706,test_typingtask_norepeats,2020.2.10,60.01617436337484,
cheer,cheer,,,,,0,31,31,31,,,,,,,,1794.8719682609662,None,"['c', 'h', 'e', 'e', 'r']",1,"[0.7515278770588338, 0.8635695879347622, 1.0635696509853005, 1.2075129959266633, 1.343478306895122]",1794.8719682609662,None,1794.8722421486862,1794.9723548488691,,,,,,,,,,,,s207_03092023,001,2023_Mar_09_1706,test_typingtask_norepeats,2020.2.10,60.01617436337484,
pykka,pykka,,,,,0,32,32,32,,,,,,,,1800.3717170250602,None,"['p', 'y', 'k', 'k', 'a']",1,"[1.3237232901155949, 1.6757019120268524, 2.0437160979490727, 2.1798373570200056, 2.2837316060904413]",1800.3717170250602,None,1800.3717127788811,1800.4717430248857,,,,,,,,,,,,s207_03092023,001,2023_Mar_09_1706,test_typingtask_norepeats,2020.2.10,60.01617436337484,
vodka,vodka,,,,,0,33,33,33,,,,,,,,1805.8718224479817,None,"['c', 'o', 'd', 'k', 'a']",0,"[0.9596266641747206, 1.727725462988019, 2.0636912430636585, 2.2077407070901245, 2.31171083310619]",1805.8718224479817,None,1805.8716891377233,1805.9718406070024,,,,,,,,,,,,s207_03092023,001,2023_Mar_09_1706,test_typingtask_norepeats,2020.2.10,60.01617436337484,
haole,haole,,,,,0,34,34,34,,,,,,,,1811.3717714780942,None,"['h', 'a', 'o', 'l', 'e']",1,"[0.8197644390165806, 0.9398128290195018, 1.195746583165601, 1.4118327889591455, 1.4917939640581608]",1811.3717714780942,None,1811.3718675898388,1811.471775407903,,,,,,,,,,,,s207_03092023,001,2023_Mar_09_1706,test_typingtask_norepeats,2020.2.10,60.01617436337484,
edthe,edthe,,,,,0,35,35,35,,,,,,,,1816.8717633830383,None,"['e', 'd', 't', 'h', 'e']",1,"[0.9596590278670192, 1.1517656669020653, 1.351748188957572, 1.4637378810439259, 1.5596624028403312]",1816.8717633830383,None,1816.8719153268728,1816.972132413881,,,,,,,,,,,,s207_03092023,001,2023_Mar_09_1706,test_typingtask_norepeats,2020.2.10,60.01617436337484,
therm,therm,,,,,0,36,36,36,,,,,,,,1822.3721174770035,None,"['t', 'h', 'e', 'r', 'm']",1,"[0.6913281681481749, 0.7873383590485901, 0.8994352410081774, 0.9874021930154413, 1.107395834987983]",1822.3721174770035,None,1822.3720355866942,1822.4720354909077,,,,,,,,,,,,s207_03092023,001,2023_Mar_09_1706,test_typingtask_norepeats,2020.2.10,60.01617436337484,
belly,belly,,,,,0,37,37,37,,,,,,,,1827.8717874290887,None,"['b', 'e', 'l', 'l', 'y']",1,"[0.7997086960822344, 0.9118076059967279, 1.0956838261336088, 1.223694086074829, 1.3836566931568086]",1827.8717874290887,None,1827.8715491627343,1827.9717359149363,,,,,,,,,,,,s207_03092023,001,2023_Mar_09_1706,test_typingtask_norepeats,2020.2.10,60.01617436337484,
buddy,buddy,,,,,0,38,38,38,,,,,,,,1833.3720483139623,None,"['b', 'u', 'd', 'y']",0,"[0.9555264690425247, 1.1395116541534662, 1.4915316591504961, 1.6434351331554353]",1833.3720483139623,None,1833.3726309728343,1833.4723158779088,,,,,,,,,,,,s207_03092023,001,2023_Mar_09_1706,test_typingtask_norepeats,2020.2.10,60.01617436337484,
there,there,,,,,0,39,39,39,,,,,,,,1838.8717718829866,None,"['t', 'h', 'e', 'r', 'e']",1,"[0.6956517980434, 0.7757017919793725, 0.9037623459007591, 0.9436846659518778, 1.055676372954622]",1838.8717718829866,None,1838.8716646097134,1838.9720265220385,,,,,,,,,,,,s207_03092023,001,2023_Mar_09_1706,test_typingtask_norepeats,2020.2.10,60.01617436337484,
heond,heond,,,,,0,40,40,40,,,,,,,,1844.372219691053,None,"['h', 'e', 'o', 'n', 'd']",1,"[0.8432257741224021, 0.9472489771433175, 1.1312757330015302, 1.3072330760769546, 1.4512748999986798]",1844.372219691053,None,1844.3720443178433,1844.4722197859082,,,,,,,,,,,,s207_03092023,001,2023_Mar_09_1706,test_typingtask_norepeats,2020.2.10,60.01617436337484,
zibja,zibja,,,,,0,41,41,41,,,,,,,,1849.8718472549226,None,"['z', 'i', 'b', 'j', 'a']",1,"[1.3676036079414189, 1.7037185139488429, 2.0476125159766525, 2.407719923881814, 2.5116529760416597]",1849.8718472549226,None,1849.8717036987189,1849.971860361984,,,,,,,,,,,,s207_03092023,001,2023_Mar_09_1706,test_typingtask_norepeats,2020.2.10,60.01617436337484,
cooed,cooed,,,,,0,42,42,42,,,,,,,,1855.3718729228713,None,"['c', 'o', 'o', 'e', 'd']",1,"[0.8755614911206067, 1.115683238953352, 1.2755975041072816, 1.4196852480527014, 1.587663697078824]",1855.3718729228713,None,1855.371890952764,1855.4717318399344,,,,,,,,,,,,s207_03092023,001,2023_Mar_09_1706,test_typingtask_norepeats,2020.2.10,60.01617436337484,
vanru,vanru,,,,,0,43,43,43,,,,,,,,1860.872228845954,None,"['v', 'a', 'n', 'r', 'u']",1,"[0.9113547329325229, 0.9912970629520714, 1.1432770239189267, 1.7032996600028127, 1.791352401021868]",1860.872228845954,None,1860.8721851557027,1860.9721836668905,,,,,,,,,,,,s207_03092023,001,2023_Mar_09_1706,test_typingtask_norepeats,2020.2.10,60.01617436337484,
puppy,puppy,,,,,0,44,44,44,,,,,,,,1866.3723147860728,None,"['p', 'u', 'p', 'p', 'y']",1,"[1.171251024119556, 2.075144639937207, 2.3311389179434627, 2.4671292090788484, 2.7392740859650075]",1866.3723147860728,None,1866.3722456267103,1866.4722839100286,,,,,,,,,,,,s207_03092023,001,2023_Mar_09_1706,test_typingtask_norepeats,2020.2.10,60.01617436337484,
druze,druze,,,,,0,45,45,45,,,,,,,,1871.8720967180561,None,"['d', 'r', 'u', 'z', 'e']",1,"[1.0154289309866726, 1.2393646540585905, 1.5753982570022345, 2.3034426090307534, 2.4953503429424018]",1871.8720967180561,None,1871.8717861738521,1871.971847278066,,,,,,,,,,,,s207_03092023,001,2023_Mar_09_1706,test_typingtask_norepeats,2020.2.10,60.01617436337484,
edthe,edthe,,,,,0,46,46,46,,,,,,,,1877.3718622350134,None,"['e', 'd', 't', 'h', 'e']",1,"[1.107704709051177, 1.2836595999542624, 1.4756504320539534, 1.5956375729292631, 1.7636733339168131]",1877.3718622350134,None,1877.3718384417705,1877.472009598976,,,,,,,,,,,,s207_03092023,001,2023_Mar_09_1706,test_typingtask_norepeats,2020.2.10,60.01617436337484,
cheer,cheer,,,,,0,47,47,47,,,,,,,,1882.8718373759184,None,"['c', 'h', 'e', 'e', 'r']",1,"[0.6637228371109813, 0.7917274590581656, 0.9356957641430199, 1.103732441086322, 1.223719417117536]",1882.8718373759184,None,1882.8718903138767,1882.9718156498857,,,,,,,,,,,,s207_03092023,001,2023_Mar_09_1706,test_typingtask_norepeats,2020.2.10,60.01617436337484,
there,there,,,,,0,48,48,48,,,,,,,,1888.3718080490362,None,"['t', 'h', 'e', 'r', 'e']",1,"[0.6197628588415682, 0.715741409920156, 0.8197628590278327, 0.8837122898548841, 1.0036982679739594]",1888.3718080490362,None,1888.3718956468626,1888.4718817078974,,,,,,,,,,,,s207_03092023,001,2023_Mar_09_1706,test_typingtask_norepeats,2020.2.10,60.01617436337484,
theme,theme,,,,,0,49,49,49,,,,,,,,1893.8721465768758,None,"['t', 'h', 'e', 'm', 'e']",1,"[0.6873641179408878, 0.7592957799788564, 0.927400620887056, 1.0952853809576482, 1.2314095909241587]",1893.8721465768758,None,1893.8722373628523,1893.9720891050529,,,,,,,,,,,,s207_03092023,001,2023_Mar_09_1706,test_typingtask_norepeats,2020.2.10,60.01617436337484,
zibja,zibja,,,,,0,50,50,50,,,,,,,,1899.371746606892,None,"['z', 'i', 'b', 'j', 'a']",1,"[1.2197866889182478, 1.50770941702649, 1.8198143299669027, 2.075699212960899, 2.1877858699299395]",1899.371746606892,None,1899.371855859831,1899.4718904020265,,,,,,,,,,,,s207_03092023,001,2023_Mar_09_1706,test_typingtask_norepeats,2020.2.10,60.01617436337484,
about,about,,,,,0,51,51,51,,,,,,,,1904.8722428679466,None,"['a', 'b', 'o', 'u', 't']",1,"[0.7113018590025604, 0.8072775749024004, 1.1352962020318955, 1.2792459719348699, 1.3272967119701207]",1904.8722428679466,None,1904.872238347726,1904.9722736419644,,,,,,,,,,,,s207_03092023,001,2023_Mar_09_1706,test_typingtask_norepeats,2020.2.10,60.01617436337484,
belly,belly,,,,,0,52,52,52,,,,,,,,1910.3719014250673,None,"['b', 'e', 'l', 'l', 'y']",1,"[0.7396092310082167, 0.8675476720090955, 1.291581115918234, 1.4276003609411418, 1.6515890199225396]",1910.3719014250673,None,1910.3718496118206,1910.4720549320336,,,,,,,,,,,,s207_03092023,001,2023_Mar_09_1706,test_typingtask_norepeats,2020.2.10,60.01617436337484,
pykka,pykka,,,,,0,53,53,53,,,,,,,,1915.8718797909096,None,"['p', 'y', 'k', 'k', 'a']",1,"[1.2716921519022435, 1.5916709338780493, 2.0075710988603532, 2.1516253179870546, 2.3116242450196296]",1915.8718797909096,None,1915.8718973968178,1915.9718914278783,,,,,,,,,,,,s207_03092023,001,2023_Mar_09_1706,test_typingtask_norepeats,2020.2.10,60.01617436337484,
cheer,cheer,,,,,0,54,54,54,,,,,,,,1921.3721675109118,None,"['c', 'h', 'e', 'e', 'r']",1,"[0.8913485661614686, 1.011360113043338, 1.1873066921252757, 1.3393075331114233, 1.4994097601156682]",1921.3721675109118,None,1921.3718647597823,1921.4718840389978,,,,,,,,,,,,s207_03092023,001,2023_Mar_09_1706,test_typingtask_norepeats,2020.2.10,60.01617436337484,
heond,heond,,,,,0,55,55,55,,,,,,,,1926.8719355869107,None,"['h', 'e', 'o', 'n', 'd']",1,"[0.8716311538591981, 0.9995878729969263, 1.1196296010166407, 1.271619925973937, 1.4396265679970384]",1926.8719355869107,None,1926.8718901767395,1926.9716888598632,,,,,,,,,,,,s207_03092023,001,2023_Mar_09_1706,test_typingtask_norepeats,2020.2.10,60.01617436337484,
buddy,buddy,,,,,0,56,56,56,,,,,,,,1932.3720320940483,None,"['b', 'u', 'd', 'd', 'y']",1,"[0.8195248700212687, 1.04345335601829, 1.3154983029235154, 1.4674194739200175, 1.5634973039850593]",1932.3720320940483,None,1932.3719108607154,1932.4718339319807,,,,,,,,,,,,s207_03092023,001,2023_Mar_09_1706,test_typingtask_norepeats,2020.2.10,60.01617436337484,
lucky,lucky,,,,,0,57,57,57,,,,,,,,1937.8719148330856,None,"['l', 'u', 'k', 'c', 'y']",0,"[1.2556671700440347, 1.4556533300783485, 1.6875429940409958, 1.8315459110308439, 2.0396136231720448]",1937.8719148330856,None,1937.8718390909023,1937.9719139949884,,,,,,,,,,,,s207_03092023,001,2023_Mar_09_1706,test_typingtask_norepeats,2020.2.10,60.01617436337484,
zibja,zibja,,,,,0,58,58,58,,,,,,,,1943.3721909460146,None,"['z', 'i', 'b', 'j', 'a']",1,"[1.2113460558466613, 1.4993605150375515, 1.7473486959934235, 1.9313628440722823, 2.0512903230264783]",1943.3721909460146,None,1943.3720070977695,1943.4722235770896,,,,,,,,,,,,s207_03092023,001,2023_Mar_09_1706,test_typingtask_norepeats,2020.2.10,60.01617436337484,
heond,heond,,,,,0,59,59,59,,,,,,,,1948.8719985249918,None,"['h', 'e', 'o', 'n', 'd']",1,"[0.7915230430662632, 0.9275734671391547, 1.031496318988502, 1.167438758071512, 1.3594544790685177]",1948.8719985249918,None,1948.8718555608764,1948.9718810620252,,,,,,,,,,,,s207_03092023,001,2023_Mar_09_1706,test_typingtask_norepeats,2020.2.10,60.01617436337484,
belly,belly,,,,,0,60,60,60,,,,,,,,1954.3719836638775,None,"['b', 'e', 'l', 'l', 'y']",1,"[0.7395847879815847, 0.8754871089477092, 1.1395377730950713, 1.267461566021666, 1.5315125489141792]",1954.3719836638775,None,1954.3720134538132,1954.472043419024,,,,,,,,,,,,s207_03092023,001,2023_Mar_09_1706,test_typingtask_norepeats,2020.2.10,60.01617436337484,
edthe,edthe,,,,,0,61,61,61,,,,,,,,1959.8719616809394,None,"['e', 'd', 't', 'h', 'e']",1,"[1.0396095800679177, 1.2315932880155742, 1.4235461589414626, 1.535562777891755, 1.6395627779420465]",1959.8719616809394,None,1959.871992273908,1959.972082146909,,,,,,,,,,,,s207_03092023,001,2023_Mar_09_1706,test_typingtask_norepeats,2020.2.10,60.01617436337484,
champ,champ,,,,,0,62,62,62,,,,,,,,1965.371903986903,None,"['c', 'h', 'a', 'm', 'p']",1,"[0.7795668318867683, 0.8916550220455974, 0.9875946429092437, 1.163628659909591, 1.363651481922716]",1965.371903986903,None,1965.3719837837386,1965.472153272014,,,,,,,,,,,,s207_03092023,001,2023_Mar_09_1706,test_typingtask_norepeats,2020.2.10,60.01617436337484,
therm,therm,,,,,0,63,63,63,,,,,,,,1970.872031387873,None,"['t', 'h', 'e', 'r', 'm']",1,"[0.6955447609070688, 0.783482036087662, 0.9274287899024785, 1.0954098340589553, 1.263579233083874]",1970.872031387873,None,1970.8719057547394,1970.9723323208746,,,,,,,,,,,,s207_03092023,001,2023_Mar_09_1706,test_typingtask_norepeats,2020.2.10,60.01617436337484,
buddy,buddy,,,,,0,64,64,64,,,,,,,,1976.3719030590728,None,"['b', 'u', 'd', 'd', 'y']",1,"[0.8916688188910484, 1.0595532138831913, 1.3075496698729694, 1.4275967478752136, 1.5795731528196484]",1976.3719030590728,None,1976.3720024148467,1976.4721541879699,,,,,,,,,,,,s207_03092023,001,2023_Mar_09_1706,test_typingtask_norepeats,2020.2.10,60.01617436337484,
faqir,faqir,,,,,0,65,65,65,,,,,,,,1981.8724094280042,None,"['f', 'a', 'q', 'i', 'r']",1,"[1.039159890031442, 1.1430750389117748, 1.6951520489528775, 2.007084838114679, 2.167037287959829]",1981.8724094280042,None,1981.8717993287835,1981.9719031010754,,,,,,,,,,,,s207_03092023,001,2023_Mar_09_1706,test_typingtask_norepeats,2020.2.10,60.01617436337484,
puppy,puppy,,,,,0,66,66,66,,,,,,,,1987.372050601989,None,"['p', 'u', 'p', 'p', 'y']",1,"[1.2034801552072167, 1.4035298340022564, 1.6195001101586968, 1.7634567490313202, 1.979419264011085]",1987.372050601989,None,1987.3719068767502,1987.4720652608667,,,,,,,,,,,,s207_03092023,001,2023_Mar_09_1706,test_typingtask_norepeats,2020.2.10,60.01617436337484,
about,about,,,,,0,67,67,67,,,,,,,,1992.8720268059988,None,"['a', 'b', 'o', 'u', 't']",1,"[0.6875288069713861, 0.799525487003848, 1.0635275498498231, 1.1755104549229145, 1.335438567912206]",1992.8720268059988,None,1992.8718998708762,1992.972021084046,,,,,,,,,,,,s207_03092023,001,2023_Mar_09_1706,test_typingtask_norepeats,2020.2.10,60.01617436337484,
pykka,pykka,,,,,0,68,68,68,,,,,,,,1998.3720275689848,None,"['p', 'y', 'k', 'k', 'a']",1,"[1.0994492520112544, 1.4594204078894109, 1.8514340210240334, 1.9874082989990711, 2.123500479850918]",1998.3720275689848,None,1998.3720730067696,1998.4718902918976,,,,,,,,,,,,s207_03092023,001,2023_Mar_09_1706,test_typingtask_norepeats,2020.2.10,60.01617436337484,
think,think,,,,,0,69,69,69,,,,,,,,2003.8721032640897,None,"['t', 'h', 'i', 'n', 'k']",1,"[0.7754339298699051, 0.8234260480385274, 0.9673480240162462, 1.0954462150111794, 1.2474522958509624]",2003.8721032640897,None,2003.872142390767,2003.9719077639747,,,,,,,,,,,,s207_03092023,001,2023_Mar_09_1706,test_typingtask_norepeats,2020.2.10,60.01617436337484,
haole,haole,,,,,0,70,70,70,,,,,,,,2009.3721043509431,None,"['h', 'a', 'o', 'l', 'e']",1,"[0.8834473299793899, 1.019431667868048, 1.1793712507933378, 1.3714642669074237, 1.4994282969273627]",2009.3721043509431,None,2009.372186580859,2009.4718683310784,,,,,,,,,,,,s207_03092023,001,2023_Mar_09_1706,test_typingtask_norepeats,2020.2.10,60.01617436337484,
about,about,,,,,0,71,71,71,,,,,,,,2014.87226056098,None,"['a', 'b', 'o', 'u', 't']",1,"[0.6792035370599478, 0.7992956461384892, 1.0233063539490104, 1.1272005271166563, 1.2712067069951445]",2014.87226056098,None,2014.8722201538737,2014.9720608659554,,,,,,,,,,,,s207_03092023,001,2023_Mar_09_1706,test_typingtask_norepeats,2020.2.10,60.01617436337484,
buddy,buddy,,,,,0,72,72,72,,,,,,,,2020.3719928369392,None,"['b', 'u', 'd', 'd', 'y']",1,"[0.8195096480194479, 0.9956271729897708, 1.3235962740145624, 1.4515230651013553, 1.563541976036504]",2020.3719928369392,None,2020.3721754827536,2020.4724645789247,,,,,,,,,,,,s207_03092023,001,2023_Mar_09_1706,test_typingtask_norepeats,2020.2.10,60.01617436337484,
vanru,vanru,,,,,0,73,73,73,,,,,,,,2025.8722368150484,None,"['v', 'a', 'n', 'r', 'u']",1,"[0.9832678390666842, 1.0391719539184123, 1.19927036203444, 1.375260449014604, 1.4952656670939177]",2025.8722368150484,None,2025.8719573977403,2025.9719809060916,,,,,,,,,,,,s207_03092023,001,2023_Mar_09_1706,test_typingtask_norepeats,2020.2.10,60.01617436337484,
tithe,tithe,,,,,0,74,74,74,,,,,,,,2031.372040251037,None,"['t', 'i', 't', 'h', 'e']",1,"[0.8835112899541855, 0.9955297338310629, 1.1314122558105737, 1.2115395069122314, 1.403479723026976]",2031.372040251037,None,2031.3721407888922,2031.4722677769605,,,,,,,,,,,,s207_03092023,001,2023_Mar_09_1706,test_typingtask_norepeats,2020.2.10,60.01617436337484,
druze,druze,,,,,0,75,75,75,,,,,,,,2036.8719746130519,None,"['d', 'r', 'u', 'z', 'e']",1,"[0.9995105070993304, 1.1915825221221894, 1.3594723870046437, 1.783578734146431, 1.9915992789901793]",2036.8719746130519,None,2036.8721418268512,2036.9720846950077,,,,,,,,,,,,s207_03092023,001,2023_Mar_09_1706,test_typingtask_norepeats,2020.2.10,60.01617436337484,
lucky,lucky,,,,,0,76,76,76,,,,,,,,2042.371877178084,None,"['l', 'u', 'c', 'k', 'y']",1,"[0.6996804839000106, 0.9156186138279736, 1.0996806409675628, 1.243587503908202, 1.507563172839582]",2042.371877178084,None,2042.3720581146888,2042.4721857989207,,,,,,,,,,,,s207_03092023,001,2023_Mar_09_1706,test_typingtask_norepeats,2020.2.10,60.01617436337484,
would,would,,,,,0,77,77,77,,,,,,,,2047.8720616709907,None,"['w', 'o', 'u', 'l', 'd']",1,"[0.7194857781287283, 0.9513982289936393, 1.07939578499645, 1.2715088210534304, 1.4394735211972147]",2047.8720616709907,None,2047.8720896208658,2047.9720211040694,,,,,,,,,,,,s207_03092023,001,2023_Mar_09_1706,test_typingtask_norepeats,2020.2.10,60.01617436337484,
champ,champ,,,,,0,78,78,78,,,,,,,,2053.372065945994,None,"['c', 'a', 'h', 'm', 'p']",0,"[0.7714893999509513, 0.9554573320783675, 1.011542737018317, 1.3314311890862882, 1.5234869699925184]",2053.372065945994,None,2053.3721464997625,2053.4721279218793,,,,,,,,,,,,s207_03092023,001,2023_Mar_09_1706,test_typingtask_norepeats,2020.2.10,60.01617436337484,
druze,druze,,,,,0,79,79,79,,,,,,,,2058.8722905600443,None,"['d', 'r', 'u', 'z', 'e']",1,"[1.0231545839924365, 1.2152596700470895, 1.8312038818839937, 2.2071610279381275, 2.359181876061484]",2058.8722905600443,None,2058.8719805057162,2058.9721866380423,,,,,,,,,,,,s207_03092023,001,2023_Mar_09_1706,test_typingtask_norepeats,2020.2.10,60.01617436337484,
puppy,puppy,,,,,0,80,80,80,,,,,,,,2064.372189546004,None,"['p', 'u', 'p', 'p', 'y']",1,"[1.11536236689426, 1.3473740068729967, 1.5713804489932954, 1.7073400868102908, 1.9153392428997904]",2064.372189546004,None,2064.371956702741,2064.472125339089,,,,,,,,,,,,s207_03092023,001,2023_Mar_09_1706,test_typingtask_norepeats,2020.2.10,60.01617436337484,
buddy,buddy,,,,,0,81,81,81,,,,,,,,2069.872189472895,None,"['b', 'u', 'd', 'd', 'y']",1,"[1.1512674849946052, 1.2953579581808299, 1.6312669420149177, 1.7592582129873335, 1.8712576010730118]",2069.872189472895,None,2069.872069115704,2069.972029912984,,,,,,,,,,,,s207_03092023,001,2023_Mar_09_1706,test_typingtask_norepeats,2020.2.10,60.01617436337484,
there,there,,,,,0,82,82,82,,,,,,,,2075.3721334259026,None,"['t', 'h', 'e', 'r', 'e']",1,"[0.7073136731050909, 0.8193632441107184, 1.027307721087709, 1.123377009993419, 1.2593090471345931]",2075.3721334259026,None,2075.371999094915,2075.471874786075,,,,,,,,,,,,s207_03092023,001,2023_Mar_09_1706,test_typingtask_norepeats,2020.2.10,60.01617436337484,
therm,therm,,,,,0,83,83,83,,,,,,,,2080.872223865008,None,"['t', 'h', 'e', 'r', 'm']",1,"[0.7592825188767165, 0.8472602090332657, 0.9993346240371466, 1.1033122618682683, 1.2633042519446462]",2080.872223865008,None,2080.872154372698,2080.972060542088,,,,,,,,,,,,s207_03092023,001,2023_Mar_09_1706,test_typingtask_norepeats,2020.2.10,60.01617436337484,
faqir,faqir,,,,,0,84,84,84,,,,,,,,2086.3723513549194,None,"['f', 'a', 'q', 'i', 'r']",1,"[1.1791096520610154, 1.52322290209122, 1.915215556975454, 2.219186987960711, 2.4430951410904527]",2086.3723513549194,None,2086.372249061894,2086.4722227910534,,,,,,,,,,,,s207_03092023,001,2023_Mar_09_1706,test_typingtask_norepeats,2020.2.10,60.01617436337484,
champ,champ,,,,,0,85,85,85,,,,,,,,2091.872582525015,None,"['c', 'h', 'a', 'm', 'p']",1,"[0.7268979889340699, 0.8950022449716926, 1.0629844758659601, 1.254975900053978, 1.4629394479561597]",2091.872582525015,None,2091.8724626688754,2091.972492049914,,,,,,,,,,,,s207_03092023,001,2023_Mar_09_1706,test_typingtask_norepeats,2020.2.10,60.01617436337484,
belly,belly,,,,,0,86,86,86,,,,,,,,2097.3726156100165,None,"['b', 'e', 'l', 'l', 'y']",1,"[0.8029515140224248, 0.9389064179267734, 1.2349947069305927, 1.4189452319405973, 1.6508346530608833]",2097.3726156100165,None,2097.372457717732,2097.472438415978,,,,,,,,,,,,s207_03092023,001,2023_Mar_09_1706,test_typingtask_norepeats,2020.2.10,60.01617436337484,
edthe,edthe,,,,,0,87,87,87,,,,,,,,2102.872219016077,None,"['e', 'd', 't', 'h', 'e']",1,"[0.9753671700600535, 1.167212697910145, 1.3672074389178306, 1.5033485279418528, 1.591242415830493]",2102.872219016077,None,2102.8720899119044,2102.972154994961,,,,,,,,,,,,s207_03092023,001,2023_Mar_09_1706,test_typingtask_norepeats,2020.2.10,60.01617436337484,
cooed,cooed,,,,,0,88,88,88,,,,,,,,2108.3720519500785,None,"['c', 'o', 'o', 'e', 'd']",1,"[0.8834642979782075, 1.1394549829419702, 1.3075027130544186, 1.4834873541258276, 1.6673935900907964]",2108.3720519500785,None,2108.3721829948017,2108.472265525954,,,,,,,,,,,,s207_03092023,001,2023_Mar_09_1706,test_typingtask_norepeats,2020.2.10,60.01617436337484,
vodka,vodka,,,,,0,89,89,89,,,,,,,,2113.87255651108,None,"['v', 'o', 'd', 'k', 'a']",1,"[1.062983158044517, 1.2469784589484334, 1.462998460046947, 1.6628810761030763, 1.80695697106421]",2113.87255651108,None,2113.872544850875,2113.9725440740585,,,,,,,,,,,,s207_03092023,001,2023_Mar_09_1706,test_typingtask_norepeats,2020.2.10,60.01617436337484,
cooed,cooed,,,,,0,90,90,90,,,,,,,,2119.3720159658697,None,"['c', 'o', 'o', 'e', 'd']",1,"[0.803544248919934, 1.0915593709796667, 1.2755545708350837, 1.4274267158471048, 1.6356423997785896]",2119.3720159658697,None,2119.3722988848576,2119.4725560760126,,,,,,,,,,,,s207_03092023,001,2023_Mar_09_1706,test_typingtask_norepeats,2020.2.10,60.01617436337484,
faqir,faqir,,,,,0,91,91,91,,,,,,,,2124.8720758850686,None,"['f', 'a', 'q', 'i', 'e']",0,"[1.0233762729912996, 1.1433762300293893, 1.679373768158257, 1.8793705999851227, 2.047480487031862]",2124.8720758850686,None,2124.872131494759,2124.972431648057,,,,,,,,,,,,s207_03092023,001,2023_Mar_09_1706,test_typingtask_norepeats,2020.2.10,60.01617436337484,
think,think,,,,,0,92,92,92,,,,,,,,2130.3722494109534,None,"['t', 'h', 'i', 'n', 'k']",1,"[0.8113041380420327, 0.9232824719510972, 1.0751971760764718, 1.291312389075756, 1.4353264160454273]",2130.3722494109534,None,2130.3720672467725,2130.4721025319304,,,,,,,,,,,,s207_03092023,001,2023_Mar_09_1706,test_typingtask_norepeats,2020.2.10,60.01617436337484,
would,would,,,,,0,93,93,93,,,,,,,,2135.872377299005,None,"['w', 'o', 'u', 'l', 'd']",1,"[0.7270823931321502, 0.9352349520195276, 1.0710538551211357, 1.4152813949622214, 1.5912004520650953]",2135.872377299005,None,2135.8721194338987,2135.972209668951,,,,,,,,,,,,s207_03092023,001,2023_Mar_09_1706,test_typingtask_norepeats,2020.2.10,60.01617436337484,
tithe,tithe,,,,,0,94,94,94,,,,,,,,2141.3724500720855,None,"['t', 'i', 't', 'h', 'e']",1,"[0.770985352806747, 0.8910604410339147, 1.035233117872849, 1.123062422964722, 1.235082546947524]",2141.3724500720855,None,2141.372330017807,2141.472449437948,,,,,,,,,,,,s207_03092023,001,2023_Mar_09_1706,test_typingtask_norepeats,2020.2.10,60.01617436337484,
cheer,cheer,,,,,0,95,95,95,,,,,,,,2146.8734626669902,None,"['c', 'h', 'e', 'e', 'r']",1,"[0.6701092589646578, 0.8060956590343267, 1.0140617659781128, 1.1659818380139768, 1.3259758041240275]",2146.8734626669902,None,2146.872596702725,2146.9720596079715,,,,,,,,,,,,s207_03092023,001,2023_Mar_09_1706,test_typingtask_norepeats,2020.2.10,60.01617436337484,
champ,champ,,,,,0,96,96,96,,,,,,,,2152.3723432258703,None,"['c', 'h', 'a', 'm', 'p']",1,"[0.7872259360738099, 0.9071784229017794, 1.0111278230324388, 1.1952437229920179, 1.4111552780959755]",2152.3723432258703,None,2152.3722144849135,2152.472038426902,,,,,,,,,,,,s207_03092023,001,2023_Mar_09_1706,test_typingtask_norepeats,2020.2.10,60.01617436337484,
belly,belly,,,,,0,97,97,97,,,,,,,,2157.872338776011,None,"['b', 'e', 'l', 'l', 'y']",1,"[0.8231893028132617, 0.9912324158940464, 1.1911921829450876, 1.3270973039325327, 1.4791351649910212]",2157.872338776011,None,2157.872348444723,2157.9722114449833,,,,,,,,,,,,s207_03092023,001,2023_Mar_09_1706,test_typingtask_norepeats,2020.2.10,60.01617436337484,
tithe,tithe,,,,,0,98,98,98,,,,,,,,2163.3726500750054,None,"['t', 'i', 't', 'h', 'e']",1,"[0.8029498269315809, 0.9468980368692428, 1.0909329899586737, 1.186882329871878, 1.3308649468235672]",2163.3726500750054,None,2163.3727219448892,2163.47251968598,,,,,,,,,,,,s207_03092023,001,2023_Mar_09_1706,test_typingtask_norepeats,2020.2.10,60.01617436337484,
pykka,pykka,,,,,0,99,99,99,,,,,,,,2168.873996648006,None,"['p', 'y', 'k', 'k', 'a']",1,"[1.1175240830052644, 1.3336232239380479, 1.8774894659873098, 2.029458780074492, 2.1254449819680303]",2168.873996648006,None,2168.873009284912,2168.9732436249033,,,,,,,,,,,,s207_03092023,001,2023_Mar_09_1706,test_typingtask_norepeats,2020.2.10,60.01617436337484,
think,think,,,,,0,100,100,100,,,,,,,,2174.388812947087,None,"['t', 'h', 'i', 'n', 'k']",1,"[0.6747134458273649, 0.7547535349149257, 0.8986985019873828, 1.0106352439615875, 1.17872425285168]",2174.388812947087,None,2174.388910266757,2174.4890197159257,,,,,,,,,,,,s207_03092023,001,2023_Mar_09_1706,test_typingtask_norepeats,2020.2.10,60.01617436337484,
about,about,,,,,0,101,101,101,,,,,,,,2179.8890291398857,None,"['a', 'b', 'o', 'u', 't']",1,"[0.6465636109933257, 0.798492019996047, 1.0465857388917357, 1.174482551869005, 1.3504190798848867]",2179.8890291398857,None,2179.889078587713,2179.989056508988,,,,,,,,,,,,s207_03092023,001,2023_Mar_09_1706,test_typingtask_norepeats,2020.2.10,60.01617436337484,
therm,therm,,,,,0,102,102,102,,,,,,,,2185.389248450054,None,"['t', 'h', 'e', 'r', 'm']",1,"[0.698318696115166, 0.7943754130974412, 0.9463210050016642, 1.1463204680476338, 1.2742832419462502]",2185.389248450054,None,2185.389195068693,2185.4892514550593,,,,,,,,,,,,s207_03092023,001,2023_Mar_09_1706,test_typingtask_norepeats,2020.2.10,60.01617436337484,
haole,haole,,,,,0,103,103,103,,,,,,,,2190.8890795870684,None,"['h', 'a', 'o', 'l', 'e']",1,"[0.7904867471661419, 0.9263779141474515, 1.1904903261456639, 1.4304520580917597, 1.574488117126748]",2190.8890795870684,None,2190.88883493091,2190.9889973360114,,,,,,,,,,,,s207_03092023,001,2023_Mar_09_1706,test_typingtask_norepeats,2020.2.10,60.01617436337484,
theme,theme,,,,,0,104,104,104,,,,,,,,2196.389163566055,None,"['t', 'h', 'e', 'm', 'e']",1,"[0.7304032191168517, 0.8262919399421662, 0.9703795718960464, 1.0984329550992697, 1.194384610047564]",2196.389163566055,None,2196.388866519742,2196.488872115966,,,,,,,,,,,,s207_03092023,001,2023_Mar_09_1706,test_typingtask_norepeats,2020.2.10,60.01617436337484,
kremp,kremp,,,,,0,105,105,105,,,,,,,,2201.8893211209215,None,"['k', 'r', 'e', 'm', 'p']",1,"[1.246193006169051, 1.414231101050973, 1.5261308131739497, 1.7261192530859262, 1.9341273931786418]",2201.8893211209215,None,2201.8893527788578,2201.9891937240027,,,,,,,,,,,,s207_03092023,001,2023_Mar_09_1706,test_typingtask_norepeats,2020.2.10,60.01617436337484,
would,would,,,,,0,106,106,106,,,,,,,,2207.3890164950863,None,"['w', 'o', 'u', 'l', 'd']",1,"[0.7705030499491841, 0.9785337089560926, 1.2825106650125235, 1.5465377380605787, 1.6905556879937649]",2207.3890164950863,None,2207.3889240528924,2207.488773294026,,,,,,,,,,,,s207_03092023,001,2023_Mar_09_1706,test_typingtask_norepeats,2020.2.10,60.01617436337484,
theme,theme,,,,,0,107,107,107,,,,,,,,2212.8891846348997,None,"['t', 'h', 'e', 'm', 'e']",1,"[0.6943616531789303, 0.782333028037101, 0.9423217959702015, 1.0943270921707153, 1.2063744431361556]",2212.8891846348997,None,2212.8891572118273,2212.9890138430055,,,,,,,,,,,,s207_03092023,001,2023_Mar_09_1706,test_typingtask_norepeats,2020.2.10,60.01617436337484,
zibja,zibja,,,,,0,108,108,108,,,,,,,,2218.3893905810546,None,"['z', 'i', 'b', 'j', 'a']",1,"[1.2981656109914184, 1.4821275579743087, 1.706194245023653, 1.9861470139585435, 2.418130776146427]",2218.3893905810546,None,2218.389321944863,2218.4894325500354,,,,,,,,,,,,s207_03092023,001,2023_Mar_09_1706,test_typingtask_norepeats,2020.2.10,60.01617436337484,
there,there,,,,,0,109,109,109,,,,,,,,2223.8890032649506,None,"['t', 'h', 'e', 'r', 'e']",1,"[0.7344539980404079, 0.8624672901351005, 1.0306070540100336, 1.0545527231879532, 1.182515828171745]",2223.8890032649506,None,2223.8889289688786,2223.9888294609264,,,,,,,,,,,,s207_03092023,001,2023_Mar_09_1706,test_typingtask_norepeats,2020.2.10,60.01617436337484,
pykka,pykka,,,,,0,110,110,110,,,,,,,,2229.388995226007,None,"['p', 'y', 'k', 'k', 'a']",1,"[1.2344433409161866, 1.394612698815763, 1.7705622888170183, 1.9144909668248147, 1.9945218809880316]",2229.388995226007,None,2229.3890801197385,2229.4894621700514,,,,,,,,,,,,s207_03092023,001,2023_Mar_09_1706,test_typingtask_norepeats,2020.2.10,60.01617436337484,
puppy,puppy,,,,,0,111,111,111,,,,,,,,2234.8889719059225,None,"['p', 'u', 'p', 'p', 'y']",1,"[0.9025685731321573, 1.0785811131354421, 1.422595561016351, 1.5585844579618424, 1.7825826341286302]",2234.8889719059225,None,2234.88912252076,2234.989328872878,,,,,,,,,,,,s207_03092023,001,2023_Mar_09_1706,test_typingtask_norepeats,2020.2.10,60.01617436337484,
tithe,tithe,,,,,0,112,112,112,,,,,,,,2240.388873437885,None,"['t', 'i', 't', 'h', 'e']",1,"[0.850572096882388, 0.9866874490398914, 1.13869695388712, 1.2345690638758242, 1.39456195384264]",2240.388873437885,None,2240.388995178696,2240.4890824879985,,,,,,,,,,,,s207_03092023,001,2023_Mar_09_1706,test_typingtask_norepeats,2020.2.10,60.01617436337484,
kremp,kremp,,,,,0,113,113,113,,,,,,,,2245.8892715158872,None,"['k', 'r', 'e', 'm', 'p']",1,"[0.9662779681384563, 1.1502125849947333, 1.3022644841112196, 1.4702839450910687, 1.6621694499626756]",2245.8892715158872,None,2245.889511762839,2245.989382386906,,,,,,,,,,,,s207_03092023,001,2023_Mar_09_1706,test_typingtask_norepeats,2020.2.10,60.01617436337484,
puppy,puppy,,,,,0,114,114,114,,,,,,,,2251.389091067016,None,"['p', 'u', 'p', 'p', 'y']",1,"[1.4503558410797268, 1.5784413670189679, 1.818547876086086, 1.9623685909900814, 2.170471439138055]",2251.389091067016,None,2251.3889676548542,2251.489148302935,,,,,,,,,,,,s207_03092023,001,2023_Mar_09_1706,test_typingtask_norepeats,2020.2.10,60.01617436337484,
tithe,tithe,,,,,0,115,115,115,,,,,,,,2256.8889855078887,None,"['t', 'i', 't', 'h', 'e']",1,"[0.8465411530341953, 0.9424634089227766, 1.0946317019406706, 1.2225314229726791, 1.374459212878719]",2256.8889855078887,None,2256.889052048745,2256.9889550248627,,,,,,,,,,,,s207_03092023,001,2023_Mar_09_1706,test_typingtask_norepeats,2020.2.10,60.01617436337484,
vanru,vanru,,,,,0,116,116,116,,,,,,,,2262.389435572084,None,"['v', 'a', 'n', 'r', 'u']",1,"[1.0580181488767266, 1.0980675828177482, 1.5539985618088394, 1.794187504798174, 1.8980580519419163]",2262.389435572084,None,2262.3892043206843,2262.4895868808962,,,,,,,,,,,,s207_03092023,001,2023_Mar_09_1706,test_typingtask_norepeats,2020.2.10,60.01617436337484,
lucky,lucky,,,,,0,117,117,117,,,,,,,,2267.8891596319154,None,"['l', 'u', 'k', 'y']",0,"[0.8223672399763018, 1.070361422142014, 1.430354052921757, 2.230398142011836]",2267.8891596319154,None,2267.888982087793,2267.9895110288635,,,,,,,,,,,,s207_03092023,001,2023_Mar_09_1706,test_typingtask_norepeats,2020.2.10,60.01617436337484,
druze,druze,,,,,0,118,118,118,,,,,,,,2273.388987265993,None,"['d', 'r', 'u', 'z', 'e']",1,"[1.106578937964514, 1.3225831750314683, 1.4905832088552415, 2.002547145821154, 2.2344544758088887]",2273.388987265993,None,2273.3891856297387,2273.4888947140425,,,,,,,,,,,,s207_03092023,001,2023_Mar_09_1706,test_typingtask_norepeats,2020.2.10,60.01617436337484,
vanru,vanru,,,,,0,119,119,119,,,,,,,,2278.8891467859503,None,"['v', 'a', 'n', 'r', 'u']",1,"[0.894487377954647, 1.0143450640607625, 1.1584080790635198, 1.33433104516007, 1.478379286127165]",2278.8891467859503,None,2278.889343355736,2278.9893838569988,,,,,,,,,,,,s207_03092023,001,2023_Mar_09_1706,test_typingtask_norepeats,2020.2.10,60.01617436337484,
puppy,puppy,,,,,,,,,0,0,0,0,,,,,,,,,,,,,2284.389373474056,None,2327.48029761808,None,"['p', 'u', 'p', 'p', 'y']",1,"[1.9832738370168954, 2.2712476688902825, 2.511241542873904, 2.631275246851146, 2.839256837964058]",2327.48029761808,None,2327.4728453147227,2327.572943974985,s207_03092023,001,2023_Mar_09_1706,test_typingtask_norepeats,2020.2.10,60.01617436337484,
therm,therm,,,,,,,,,0,1,1,1,,,,,,,,,,,,,,,2332.989344103029,None,"['t', 'h', 'e', 'r', 'm']",1,"[0.6901287520304322, 0.7781907899770886, 0.9062362539116293, 1.0182629090268165, 1.1782386370468885]",2332.989344103029,None,2332.989353901893,2333.0894843430724,s207_03092023,001,2023_Mar_09_1706,test_typingtask_norepeats,2020.2.10,60.01617436337484,
vodka,vodka,,,,,,,,,0,2,2,2,,,,,,,,,,,,,,,2338.4892025638837,None,"['v', 'o', 'd', 'k', 'a']",1,"[0.9182753078639507, 1.086328350007534, 1.406365165952593, 1.518277637893334, 1.5982547288294882]",2338.4892025638837,None,2338.489296582714,2338.5895139230415,s207_03092023,001,2023_Mar_09_1706,test_typingtask_norepeats,2020.2.10,60.01617436337484,
faqir,faqir,,,,,,,,,0,3,3,3,,,,,,,,,,,,,,,2343.98946749093,None,"['f', 'a', 'q', 'i', 'r']",1,"[0.8339791740290821, 0.9619633441325277, 1.5300862439908087, 1.8099919771775603, 1.9300236380659044]",2343.98946749093,None,2343.9895415778274,2344.0892770660575,s207_03092023,001,2023_Mar_09_1706,test_typingtask_norepeats,2020.2.10,60.01617436337484,
there,there,,,,,,,,,0,4,4,4,,,,,,,,,,,,,,,2349.4895848070737,None,"['t', 'h', 'e', 'r', 'e']",1,"[0.6538774080108851, 0.773981005884707, 0.9098887490108609, 0.9579737270250916, 1.0699768220074475]",2349.4895848070737,None,2349.489662410878,2349.589401039062,s207_03092023,001,2023_Mar_09_1706,test_typingtask_norepeats,2020.2.10,60.01617436337484,
lucky,lucky,,,,,,,,,0,5,5,5,,,,,,,,,,,,,,,2354.9892040558625,None,"['l', 'u', 'c', 'k', 'y']",1,"[0.8262469130568206, 1.0502694500610232, 1.266347036929801, 1.426232849014923, 1.5943118869327009]",2354.9892040558625,None,2354.989358119853,2355.089283753885,s207_03092023,001,2023_Mar_09_1706,test_typingtask_norepeats,2020.2.10,60.01617436337484,
pykka,pykka,,,,,,,,,0,6,6,6,,,,,,,,,,,,,,,2360.5058040579315,None,"['p', 'y', 'k', 'k', 'a']",1,"[1.053762247087434, 1.3256884620059282, 1.7497492430265993, 1.893637364031747, 2.0619269551243633]",2360.5058040579315,None,2360.5060627008324,2360.6058031430002,s207_03092023,001,2023_Mar_09_1706,test_typingtask_norepeats,2020.2.10,60.01617436337484,
theme,theme,,,,,,,,,0,7,7,7,,,,,,,,,,,,,,,2366.005813445896,None,"['t', 'h', 'e', 'm', 'e']",1,"[0.6337202470749617, 0.7537239741068333, 0.9537189630791545, 1.081681075040251, 1.2176194300409406]",2366.005813445896,None,2366.005840763869,2366.105903604999,s207_03092023,001,2023_Mar_09_1706,test_typingtask_norepeats,2020.2.10,60.01617436337484,
puppy,puppy,,,,,,,,,0,8,8,8,,,,,,,,,,,,,,,2371.505761164939,None,"['p', 'u', 'p', 'p', 'y']",1,"[1.2617823649197817, 1.4297740240581334, 1.6698025448713452, 1.8296931909862906, 2.037756800884381]",2371.505761164939,None,2371.505866575707,2371.6060123438947,s207_03092023,001,2023_Mar_09_1706,test_typingtask_norepeats,2020.2.10,60.01617436337484,
tithe,tithe,,,,,,,,,0,9,9,9,,,,,,,,,,,,,,,2377.0058023410384,None,"['t', 'i', 't', 'h', 'e']",1,"[0.8577788050752133, 1.0016992739401758, 1.1937087669502944, 1.321719687897712, 1.4657188630662858]",2377.0058023410384,None,2377.005693429802,2377.106156779919,s207_03092023,001,2023_Mar_09_1706,test_typingtask_norepeats,2020.2.10,60.01617436337484,
belly,belly,,,,,,,,,0,10,10,10,,,,,,,,,,,,,,,2382.5059413958807,None,"['b', 'e', 'l', 'l', 'y']",1,"[0.8295145388692617, 0.9815893489867449, 1.3255139149259776, 1.4856149640399963, 1.725495494902134]",2382.5059413958807,None,2382.505705193803,2382.605903682066,s207_03092023,001,2023_Mar_09_1706,test_typingtask_norepeats,2020.2.10,60.01617436337484,
edthe,edthe,,,,,,,,,0,11,11,11,,,,,,,,,,,,,,,2388.0059686999302,None,"['e', 'd', 't', 'h', 'e']",1,"[0.9615881470963359, 1.12950962013565, 1.3216031999327242, 1.4415189200080931, 1.5295678980182856]",2388.0059686999302,None,2388.0057612228675,2388.105831651017,s207_03092023,001,2023_Mar_09_1706,test_typingtask_norepeats,2020.2.10,60.01617436337484,
haole,haole,,,,,,,,,0,12,12,12,,,,,,,,,,,,,,,2393.5058699259534,None,"['h', 'a', 'o', 'e']",0,"[0.9975936659611762, 1.12559969490394, 1.3896677559241652, 1.7095821329858154]",2393.5058699259534,None,2393.5060203128496,2393.6061396889854,s207_03092023,001,2023_Mar_09_1706,test_typingtask_norepeats,2020.2.10,60.01617436337484,
zibja,zibja,,,,,,,,,0,13,13,13,,,,,,,,,,,,,,,2399.0058949019294,None,"['z', 'i', 'b', 'j', 'a']",1,"[1.105550274020061, 1.3695678589865565, 1.6576505119446665, 1.9216459419112653, 2.009539257036522]",2399.0058949019294,None,2399.0060022177177,2399.105713129975,s207_03092023,001,2023_Mar_09_1706,test_typingtask_norepeats,2020.2.10,60.01617436337484,
champ,champ,,,,,,,,,0,14,14,14,,,,,,,,,,,,,,,2404.506039937958,None,"['c', 'h', 'a', 'm', 'p']",1,"[0.7254182391334325, 0.8134956841822714, 0.9334100710693747, 1.1094124861992896, 1.3815561060328037]",2404.506039937958,None,2404.5060885387475,2404.605968808057,s207_03092023,001,2023_Mar_09_1706,test_typingtask_norepeats,2020.2.10,60.01617436337484,
tithe,tithe,,,,,,,,,0,15,15,15,,,,,,,,,,,,,,,2410.006114338059,None,"['t', 'i', 't', 'h', 'e']",1,"[0.8974600450601429, 1.0334024978801608, 1.1933466841001064, 1.3534251709934324, 1.5054533740039915]",2410.006114338059,None,2410.0062570047567,2410.1059540950228,s207_03092023,001,2023_Mar_09_1706,test_typingtask_norepeats,2020.2.10,60.01617436337484,
think,think,,,,,,,,,0,16,16,16,,,,,,,,,,,,,,,2415.5068772670347,None,"['t', 'h', 'i', 'n', 'k']",1,"[0.7886613258160651, 0.9406932690180838, 1.0526519888080657, 1.284647862892598, 1.868635930819437]",2415.5068772670347,None,2415.505930129858,2415.6060261609964,s207_03092023,001,2023_Mar_09_1706,test_typingtask_norepeats,2020.2.10,60.01617436337484,
there,there,,,,,,,,,0,17,17,17,,,,,,,,,,,,,,,2421.006019073073,None,"['t', 'h', 'e', 'r', 'e']",1,"[0.7455224760342389, 0.8735516960732639, 1.385540126124397, 1.489444653969258, 1.6014972510747612]",2421.006019073073,None,2421.006160053844,2421.10594188096,s207_03092023,001,2023_Mar_09_1706,test_typingtask_norepeats,2020.2.10,60.01617436337484,
heond,heond,,,,,,,,,0,18,18,18,,,,,,,,,,,,,,,2426.5058659089264,None,"['h', 'e', 'o', 'n', 'd']",1,"[0.8616664009168744, 1.0136882478836924, 1.1496896038297564, 1.3336295748595148, 1.6136661090422422]",2426.5058659089264,None,2426.5059952768033,2426.6059498130344,s207_03092023,001,2023_Mar_09_1706,test_typingtask_norepeats,2020.2.10,60.01617436337484,
think,think,,,,,,,,,0,19,19,19,,,,,,,,,,,,,,,2432.0058134410065,None,"['t', 'h', 'i', 'n', 'k']",1,"[0.8176312691066414, 0.9697258900851011, 1.0977291380986571, 1.2497345469892025, 1.3936438739765435]",2432.0058134410065,None,2432.006042803824,2432.106021859916,s207_03092023,001,2023_Mar_09_1706,test_typingtask_norepeats,2020.2.10,60.01617436337484,
cooed,cooed,,,,,,,,,0,20,20,20,,,,,,,,,,,,,,,2437.5058759239037,None,"['c', 'o', 'o', 'e', 'd']",1,"[0.9656897601671517, 1.1656754740979522, 1.3175724020693451, 1.4616355001926422, 1.66162731917575]",2437.5058759239037,None,2437.5059607387057,2437.606300811982,s207_03092023,001,2023_Mar_09_1706,test_typingtask_norepeats,2020.2.10,60.01617436337484,
kremp,kremp,,,,,,,,,0,21,21,21,,,,,,,,,,,,,,,2443.0064478220884,None,"['k', 'r', 'e', 'm', 'p']",1,"[1.1051086450461298, 1.297087537124753, 1.433150818105787, 1.5770545550622046, 1.8651066930033267]",2443.0064478220884,None,2443.0063028628474,2443.1063411270734,s207_03092023,001,2023_Mar_09_1706,test_typingtask_norepeats,2020.2.10,60.01617436337484,
lucky,lucky,,,,,,,,,0,22,22,22,,,,,,,,,,,,,,,2448.5064678720664,None,"['l', 'u', 'k', 'c', 'y']",0,"[0.9330505100078881, 1.1650274591520429, 1.4210913311690092, 2.1169828311540186, 2.277011454105377]",2448.5064678720664,None,2448.506307739718,2448.6061462890357,s207_03092023,001,2023_Mar_09_1706,test_typingtask_norepeats,2020.2.10,60.01617436337484,
zibja,zibja,,,,,,,,,0,23,23,23,,,,,,,,,,,,,,,2454.006075873971,None,"['z', 'i', 'b', 'j', 'a']",1,"[1.4173919130116701, 1.5614741621538997, 1.7854568341281265, 1.953472392167896, 2.1454420499503613]",2454.006075873971,None,2454.0058464777658,2454.1060428000055,s207_03092023,001,2023_Mar_09_1706,test_typingtask_norepeats,2020.2.10,60.01617436337484,
about,about,,,,,,,,,0,24,24,24,,,,,,,,,,,,,,,2459.5061478340067,None,"['a', 'b', 'o', 'u', 't']",1,"[0.733356426935643, 0.8454090938903391, 1.0933029709849507, 1.2213641300331801, 1.3414219899568707]",2459.5061478340067,None,2459.5062444956975,2459.605896777939,s207_03092023,001,2023_Mar_09_1706,test_typingtask_norepeats,2020.2.10,60.01617436337484,
would,would,,,,,,,,,0,25,25,25,,,,,,,,,,,,,,,2465.0061043989845,None,"['w', 'o', 'u', 'd']",0,"[0.7854368810076267, 0.9135150609072298, 1.1053551000077277, 1.537501687882468]",2465.0061043989845,None,2465.0060074447656,2465.1061982139945,s207_03092023,001,2023_Mar_09_1706,test_typingtask_norepeats,2020.2.10,60.01617436337484,
vanru,vanru,,,,,,,,,0,26,26,26,,,,,,,,,,,,,,,2470.506106450921,None,"['v', 'a', 'n', 'r', 'u']",1,"[1.1734673951286823, 1.2933486569672823, 1.4694089540280402, 1.669498170958832, 1.8293543921317905]",2470.506106450921,None,2470.506145531731,2470.6058736930136,s207_03092023,001,2023_Mar_09_1706,test_typingtask_norepeats,2020.2.10,60.01617436337484,
edthe,edthe,,,,,,,,,0,27,27,27,,,,,,,,,,,,,,,2476.006062459899,None,"['e', 'd', 't', 'h', 'e']",1,"[1.6093854771461338, 1.7774636840913445, 2.0254245810210705, 2.1934379511512816, 2.313473579939455]",2476.006062459899,None,2476.0060772967527,2476.105911381077,s207_03092023,001,2023_Mar_09_1706,test_typingtask_norepeats,2020.2.10,60.01617436337484,
lucky,lucky,,,,,,,,,0,28,28,28,,,,,,,,,,,,,,,2481.506451393012,None,"['l', 'u', 'c', 'k', 'y']",1,"[1.5891150149982423, 1.7890650448389351, 1.9731267029419541, 2.0851025618612766, 2.316981947980821]",2481.506451393012,None,2481.50648411382,2481.6062876540236,s207_03092023,001,2023_Mar_09_1706,test_typingtask_norepeats,2020.2.10,60.01617436337484,
heond,heond,,,,,,,,,0,29,29,29,,,,,,,,,,,,,,,2487.006170613924,None,"['h', 'e', 'o', 'n', 'd']",1,"[0.76933579496108, 0.8573944070376456, 0.977340237936005, 1.0973089109174907, 1.2893831559922546]",2487.006170613924,None,2487.0061070678757,2487.1061423989013,s207_03092023,001,2023_Mar_09_1706,test_typingtask_norepeats,2020.2.10,60.01617436337484,
buddy,buddy,,,,,,,,,0,30,30,30,,,,,,,,,,,,,,,2492.506127002882,None,"['b', 'u', 'd', 'd', 'y']",1,"[0.917302890913561, 1.149375278968364, 1.4053709148429334, 1.5574323770124465, 1.7333957739174366]",2492.506127002882,None,2492.506150993705,2492.6061745949555,s207_03092023,001,2023_Mar_09_1706,test_typingtask_norepeats,2020.2.10,60.01617436337484,
kremp,kremp,,,,,,,,,0,31,31,31,,,,,,,,,,,,,,,2498.0060325330123,None,"['k', 'r', 'e', 'm', 'p']",1,"[1.0574459210038185, 1.2254668038804084, 1.3374216540250927, 1.4655200319830328, 1.681422852911055]",2498.0060325330123,None,2498.0059968507385,2498.1063899530564,s207_03092023,001,2023_Mar_09_1706,test_typingtask_norepeats,2020.2.10,60.01617436337484,
heond,heond,,,,,,,,,0,32,32,32,,,,,,,,,,,,,,,2503.505947893951,None,"['h', 'e', 'o', 'n', 'd']",1,"[0.8295322621706873, 0.9576322061475366, 1.0536120340693742, 1.2216224160511047, 1.3736184840090573]",2503.505947893951,None,2503.505969738774,2503.60609207605,s207_03092023,001,2023_Mar_09_1706,test_typingtask_norepeats,2020.2.10,60.01617436337484,
champ,champ,,,,,,,,,0,33,33,33,,,,,,,,,,,,,,,2509.006305174902,None,"['c', 'h', 'a', 'm', 'p']",1,"[0.7692350628785789, 0.8732660429086536, 0.9852429039310664, 1.1851963109802455, 1.8731507069896907]",2509.006305174902,None,2509.0064361888917,2509.106414615875,s207_03092023,001,2023_Mar_09_1706,test_typingtask_norepeats,2020.2.10,60.01617436337484,
vanru,vanru,,,,,,,,,0,34,34,34,,,,,,,,,,,,,,,2514.5061391100753,None,"['v', 'a', 'n', 'r', 'u']",1,"[1.0853962579276413, 1.1573722490575165, 1.3172983629629016, 1.453398128040135, 1.6213780220132321]",2514.5061391100753,None,2514.5067151179073,2514.6064727238845,s207_03092023,001,2023_Mar_09_1706,test_typingtask_norepeats,2020.2.10,60.01617436337484,
druze,druze,,,,,,,,,0,35,35,35,,,,,,,,,,,,,,,2520.006237769965,None,"['d', 'r', 'u', 'z', 'e']",1,"[0.9612934810575098, 1.19320923788473, 1.3533284889999777, 1.9053323480766267, 2.0972374570555985]",2520.006237769965,None,2520.006589597743,2520.1065304530784,s207_03092023,001,2023_Mar_09_1706,test_typingtask_norepeats,2020.2.10,60.01617436337484,
would,would,,,,,,,,,0,36,36,36,,,,,,,,,,,,,,,2525.506586048985,None,"['w', 'o', 'u', 'l', 'd']",1,"[1.0289504879619926, 1.5729928330983967, 1.7168865359853953, 1.964936105068773, 2.4529705399181694]",2525.506586048985,None,2525.5063134538477,2525.6065741148777,s207_03092023,001,2023_Mar_09_1706,test_typingtask_norepeats,2020.2.10,60.01617436337484,
therm,therm,,,,,,,,,0,37,37,37,,,,,,,,,,,,,,,2531.00639591692,None,"['t', 'h', 'e', 'r', 'm']",1,"[0.7611343609169126, 0.8651570898946375, 0.9850459098815918, 1.0891468089539558, 1.2410538669209927]",2531.00639591692,None,2531.0062235437335,2531.106436199043,s207_03092023,001,2023_Mar_09_1706,test_typingtask_norepeats,2020.2.10,60.01617436337484,
champ,champ,,,,,,,,,0,38,38,38,,,,,,,,,,,,,,,2536.5060617390554,None,"['c', 'h', 'a', 'm', 'p']",1,"[0.701424797065556, 0.805509669939056, 0.909381922101602, 1.0854514720849693, 1.2773893780540675]",2536.5060617390554,None,2536.506266619731,2536.6059662720654,s207_03092023,001,2023_Mar_09_1706,test_typingtask_norepeats,2020.2.10,60.01617436337484,
pykka,pykka,,,,,,,,,0,39,39,39,,,,,,,,,,,,,,,2542.0063221929595,None,"['p', 'y', 'k', 'k', 'a']",1,"[1.0811313418671489, 1.4332047309726477, 1.881190963787958, 2.025138352997601, 2.1452626457903534]",2542.0063221929595,None,2542.006207002746,2542.106063663028,s207_03092023,001,2023_Mar_09_1706,test_typingtask_norepeats,2020.2.10,60.01617436337484,
lucky,lucky,,,,,,,,,0,40,40,40,,,,,,,,,,,,,,,2547.5061327829026,None,"['l', 'u', 'c', 'k', 'y']",1,"[1.4053705299738795, 1.5574252831283957, 1.917309886077419, 2.0373922570142895, 2.2614399259909987]",2547.5061327829026,None,2547.50629410469,2547.6060553600546,s207_03092023,001,2023_Mar_09_1706,test_typingtask_norepeats,2020.2.10,60.01617436337484,
cheer,cheer,,,,,,,,,0,41,41,41,,,,,,,,,,,,,,,2553.0062135439366,None,"['c', 'h', 'e', 'e', 'r']",1,"[0.6412635198794305, 0.7932166720274836, 1.0172279600519687, 1.1853176460135728, 1.4172266540117562]",2553.0062135439366,None,2553.0063469868155,2553.1061277710833,s207_03092023,001,2023_Mar_09_1706,test_typingtask_norepeats,2020.2.10,60.01617436337484,
faqir,faqir,,,,,,,,,0,42,42,42,,,,,,,,,,,,,,,2558.506313906051,None,"['f', 'a', 'q', 'i', 'r']",1,"[0.9091625798027962, 1.3571972048375756, 1.7252653408795595, 1.9331837948411703, 2.245199869852513]",2558.506313906051,None,2558.5062556918247,2558.6065174778923,s207_03092023,001,2023_Mar_09_1706,test_typingtask_norepeats,2020.2.10,60.01617436337484,
cheer,cheer,,,,,,,,,0,43,43,43,,,,,,,,,,,,,,,2564.0061577220913,None,"['c', 'h', 'e', 'e', 'r']",1,"[0.7772924830205739, 0.9773592778947204, 1.329321337863803, 1.4973936469759792, 1.6734091979451478]",2564.0061577220913,None,2564.0061736397447,2564.1065510490444,s207_03092023,001,2023_Mar_09_1706,test_typingtask_norepeats,2020.2.10,60.01617436337484,
druze,druze,,,,,,,,,0,44,44,44,,,,,,,,,,,,,,,2569.5065211369656,None,"['d', 'r', 'u', 'z', 'e']",1,"[0.9008914257865399, 1.1889604998286813, 1.34899649489671, 1.9250457028392702, 2.0929356787819415]",2569.5065211369656,None,2569.506574311713,2569.6064530299045,s207_03092023,001,2023_Mar_09_1706,test_typingtask_norepeats,2020.2.10,60.01617436337484,
lucky,lucky,,,,,,,,,0,45,45,45,,,,,,,,,,,,,,,2575.006043547066,None,"['l', 'u', 'c', 'k', 'y']",1,"[0.833513026824221, 1.0574044529348612, 1.3215174919459969, 1.4254445338156074, 1.6575289987958968]",2575.006043547066,None,2575.0062591977885,2575.1061814399436,s207_03092023,001,2023_Mar_09_1706,test_typingtask_norepeats,2020.2.10,60.01617436337484,
haole,haole,,,,,,,,,0,46,46,46,,,,,,,,,,,,,,,2580.506003777031,None,"['h', 'a', 'o', 'l', 'e']",1,"[0.805508618010208, 0.9495556838810444, 1.2774660428985953, 1.493455681949854, 1.613549917936325]",2580.506003777031,None,2580.506163861789,2580.60631405795,s207_03092023,001,2023_Mar_09_1706,test_typingtask_norepeats,2020.2.10,60.01617436337484,
faqir,faqir,,,,,,,,,0,47,47,47,,,,,,,,,,,,,,,2586.0061344769783,None,"['f', 'a', 'q', 'i', 'r']",1,"[0.9213391959201545, 1.0493490181397647, 1.6654149950481951, 1.8013089790474623, 2.1213834900408983]",2586.0061344769783,None,2586.006292095827,2586.1062417870853,s207_03092023,001,2023_Mar_09_1706,test_typingtask_norepeats,2020.2.10,60.01617436337484,
haole,haole,,,,,,,,,0,48,48,48,,,,,,,,,,,,,,,2591.506614483893,None,"['h', 'a', 'o', 'l', 'e']",1,"[0.9489388749934733, 1.0848291690926999, 1.3089498670306057, 1.5729560691397637, 1.7329402200412005]",2591.506614483893,None,2591.5062390448993,2591.6062315870076,s207_03092023,001,2023_Mar_09_1706,test_typingtask_norepeats,2020.2.10,60.01617436337484,
druze,druze,,,,,,,,,0,49,49,49,,,,,,,,,,,,,,,2597.0061972390395,None,"['d', 'r', 'u', 'z', 'e']",1,"[0.9932639158796519, 1.2973210769705474, 1.5213685298804194, 2.001250776927918, 2.1932380797807127]",2597.0061972390395,None,2597.006082436722,2597.106042489875,s207_03092023,001,2023_Mar_09_1706,test_typingtask_norepeats,2020.2.10,60.01617436337484,
cooed,cooed,,,,,,,,,0,50,50,50,,,,,,,,,,,,,,,2602.506533517968,None,"['c', 'o', 'o', 'e', 'd']",1,"[0.9889450850896537, 1.2130166459828615, 1.3889167769812047, 1.5249136199709028, 1.7089770659804344]",2602.506533517968,None,2602.5065314708745,2602.606628254056,s207_03092023,001,2023_Mar_09_1706,test_typingtask_norepeats,2020.2.10,60.01617436337484,
theme,theme,,,,,,,,,0,51,51,51,,,,,,,,,,,,,,,2608.006255622022,None,"['t', 'h', 'e', 'm', 'e']",1,"[0.7931965829338878, 0.8812007969245315, 1.025271835969761, 1.2652956659439951, 1.393197154859081]",2608.006255622022,None,2608.006160258735,2608.1064551400486,s207_03092023,001,2023_Mar_09_1706,test_typingtask_norepeats,2020.2.10,60.01617436337484,
cheer,cheer,,,,,,,,,0,52,52,52,,,,,,,,,,,,,,,2613.5062738100532,None,"['c', 'h', 'e', 'e', 'r']",1,"[0.8052935490850359, 0.9332522721961141, 1.2452674380037934, 1.4132917372044176, 1.5811714611481875]",2613.5062738100532,None,2613.506248771865,2613.606186891906,s207_03092023,001,2023_Mar_09_1706,test_typingtask_norepeats,2020.2.10,60.01617436337484,
puppy,puppy,,,,,,,,,0,53,53,53,,,,,,,,,,,,,,,2619.0065182158723,None,"['p', 'u', 'p', 'p', 'y']",1,"[1.2090953891165555, 1.4090669581200927, 1.6249178401194513, 1.785041238181293, 1.9850357500836253]",2619.0065182158723,None,2619.006706763711,2619.1064975159243,s207_03092023,001,2023_Mar_09_1706,test_typingtask_norepeats,2020.2.10,60.01617436337484,
buddy,buddy,,,,,,,,,0,54,54,54,,,,,,,,,,,,,,,2624.5063275368884,None,"['b', 'u', 'd', 'd', 'y']",1,"[0.7892222499940544, 0.9811695308890194, 1.4051837078295648, 1.5411253988277167, 1.6771205819677562]",2624.5063275368884,None,2624.506323908875,2624.606333164964,s207_03092023,001,2023_Mar_09_1706,test_typingtask_norepeats,2020.2.10,60.01617436337484,
cheer,cheer,,,,,,,,,0,55,55,55,,,,,,,,,,,,,,,2630.006446036976,None,"['c', 'h', 'e', 'e', 'r']",1,"[0.7211229070089757, 0.8571141790598631, 1.0971311789471656, 1.256985287880525, 1.4570192189421505]",2630.006446036976,None,2630.0062192216983,2630.1063624359667,s207_03092023,001,2023_Mar_09_1706,test_typingtask_norepeats,2020.2.10,60.01617436337484,
champ,champ,,,,,,,,,0,56,56,56,,,,,,,,,,,,,,,2635.506235595094,None,"['c', 'h', 'a', 'm', 'p']",1,"[0.725343121914193, 0.8453581449575722, 0.9573315479792655, 1.1653094009961933, 1.3492928589694202]",2635.506235595094,None,2635.506189894816,2635.6066752139013,s207_03092023,001,2023_Mar_09_1706,test_typingtask_norepeats,2020.2.10,60.01617436337484,
cooed,cooed,,,,,,,,,0,57,57,57,,,,,,,,,,,,,,,2641.00624386291,None,"['c', 'o', 'o', 'e', 'd']",1,"[0.8653367008082569, 1.0492730988189578, 1.2012564118485898, 1.37719303695485, 1.5693184409756213]",2641.00624386291,None,2641.006253905781,2641.1063104679342,s207_03092023,001,2023_Mar_09_1706,test_typingtask_norepeats,2020.2.10,60.01617436337484,
tithe,tithe,,,,,,,,,0,58,58,58,,,,,,,,,,,,,,,2646.506533914944,None,"['t', 'i', 't', 'h', 'e']",1,"[0.7569958129897714, 0.884904220001772, 1.0129998880438507, 1.1330243460834026, 1.2450059030670673]",2646.506533914944,None,2646.506406661775,2646.6064486568794,s207_03092023,001,2023_Mar_09_1706,test_typingtask_norepeats,2020.2.10,60.01617436337484,
puppy,puppy,,,,,,,,,0,59,59,59,,,,,,,,,,,,,,,2652.006210760912,None,"['p', 'u', 'p', 'p', 'y']",1,"[0.9373431990388781, 1.1453402589540929, 1.385349172865972, 1.52928691287525, 1.737345014931634]",2652.006210760912,None,2652.0062593987213,2652.1063267078716,s207_03092023,001,2023_Mar_09_1706,test_typingtask_norepeats,2020.2.10,60.01617436337484,
belly,belly,,,,,,,,,0,60,60,60,,,,,,,,,,,,,,,2657.5062509980053,None,"['b', 'e', 'l', 'y']",0,"[0.8052085321396589, 0.9573065619915724, 1.3493090311530977, 1.5732725530397147]",2657.5062509980053,None,2657.506311374903,2657.606297367951,s207_03092023,001,2023_Mar_09_1706,test_typingtask_norepeats,2020.2.10,60.01617436337484,
zibja,zibja,,,,,,,,,0,61,61,61,,,,,,,,,,,,,,,2663.0061980639584,None,"['z', 'i', 'b', 'j', 'a']",1,"[1.217252013972029, 1.5213271221145988, 1.929318370996043, 2.297344326041639, 2.5213110130280256]",2663.0061980639584,None,2663.0062632357703,2663.106397038093,s207_03092023,001,2023_Mar_09_1706,test_typingtask_norepeats,2020.2.10,60.01617436337484,
vodka,vodka,,,,,,,,,0,62,62,62,,,,,,,,,,,,,,,2668.5067867659964,None,"['v', 'o', 'd', 'k', 'a']",1,"[1.0287287898827344, 1.1727315469179302, 1.4447663920000196, 1.7327676978893578, 1.8846710280049592]",2668.5067867659964,None,2668.506480580848,2668.606607406866,s207_03092023,001,2023_Mar_09_1706,test_typingtask_norepeats,2020.2.10,60.01617436337484,
cheer,cheer,,,,,,,,,0,63,63,63,,,,,,,,,,,,,,,2674.0064570070244,None,"['c', 'h', 'e', 'e', 'r']",1,"[0.7290589439217001, 0.8570638478267938, 1.0571080190129578, 1.225170356919989, 1.4251660970039666]",2674.0064570070244,None,2674.0061644017233,2674.106559667038,s207_03092023,001,2023_Mar_09_1706,test_typingtask_norepeats,2020.2.10,60.01617436337484,
there,there,,,,,,,,,0,64,64,64,,,,,,,,,,,,,,,2679.5063479950186,None,"['t', 'h', 'e', 'r', 'e']",1,"[0.7811597750987858, 0.8931067700032145, 1.04521354008466, 1.1412247240077704, 1.2531417710706592]",2679.5063479950186,None,2679.506322647864,2679.606429666048,s207_03092023,001,2023_Mar_09_1706,test_typingtask_norepeats,2020.2.10,60.01617436337484,
about,about,,,,,,,,,0,65,65,65,,,,,,,,,,,,,,,2685.006420617923,None,"['a', 'b', 'o', 'u', 't']",1,"[0.7531398399733007, 0.8251542008947581, 1.0810339988674968, 1.2010360260028392, 1.337154557928443]",2685.006420617923,None,2685.006491013756,2685.1061826639343,s207_03092023,001,2023_Mar_09_1706,test_typingtask_norepeats,2020.2.10,60.01617436337484,
there,there,,,,,,,,,0,66,66,66,,,,,,,,,,,,,,,2690.5068435270805,None,"['t', 'h', 'e', 'r', 'e']",1,"[0.7006116609554738, 0.7886176118627191, 1.3486921458970755, 1.4285898660309613, 1.8686814790125936]",2690.5068435270805,None,2690.506727360841,2690.606419143034,s207_03092023,001,2023_Mar_09_1706,test_typingtask_norepeats,2020.2.10,60.01617436337484,
theme,theme,,,,,,,,,0,67,67,67,,,,,,,,,,,,,,,2696.006659942912,None,"['t', 'h', 'e', 'm', 'e']",1,"[0.7208261098712683, 0.8328949848655611, 0.9927644128911197, 1.6648415990639478, 1.8008248968981206]",2696.006659942912,None,2696.00676980773,2696.1066160160117,s207_03092023,001,2023_Mar_09_1706,test_typingtask_norepeats,2020.2.10,60.01617436337484,
therm,therm,,,,,,,,,0,68,68,68,,,,,,,,,,,,,,,2701.5065118740313,None,"['t', 'h', 'e', 'r', 'm']",1,"[0.7970460110809654, 0.8929423089139163, 1.0530430821236223, 1.1490023890510201, 1.3089456369634718]",2701.5065118740313,None,2701.5063807707747,2701.6067594999913,s207_03092023,001,2023_Mar_09_1706,test_typingtask_norepeats,2020.2.10,60.01617436337484,
think,think,,,,,,,,,0,69,69,69,,,,,,,,,,,,,,,2707.0064637348987,None,"['t', 'h', 'i', 'n', 'k']",1,"[0.8090543998405337, 0.9451186878141016, 1.0730512200389057, 1.2410958888940513, 1.3929766898509115]",2707.0064637348987,None,2707.0064326808324,2707.106692713918,s207_03092023,001,2023_Mar_09_1706,test_typingtask_norepeats,2020.2.10,60.01617436337484,
would,would,,,,,,,,,0,70,70,70,,,,,,,,,,,,,,,2712.5063883340918,None,"['w', 'o', 'u', 'l', 'd']",1,"[1.1491366520058364, 1.3651657509617507, 1.493063879897818, 1.7251916979439557, 1.9170613889582455]",2712.5063883340918,None,2712.5064225508368,2712.6063844289165,s207_03092023,001,2023_Mar_09_1706,test_typingtask_norepeats,2020.2.10,60.01617436337484,
pykka,pykka,,,,,,,,,0,71,71,71,,,,,,,,,,,,,,,2718.006283711875,None,"['p', 'y', 'k', 'k', 'a']",1,"[1.3292096368968487, 1.593173803994432, 1.9772014820482582, 2.1372136620339006, 2.2892818450927734]",2718.006283711875,None,2718.006376909744,2718.1064007629175,s207_03092023,001,2023_Mar_09_1706,test_typingtask_norepeats,2020.2.10,60.01617436337484,
vanru,vanru,,,,,,,,,0,72,72,72,,,,,,,,,,,,,,,2723.5065034369472,None,"['v', 'a', 'n', 'r', 'u']",1,"[1.069011971121654, 1.149017488118261, 1.3009791420772672, 1.5410676780156791, 1.6929497621022165]",2723.5065034369472,None,2723.5067353187596,2723.606654450996,s207_03092023,001,2023_Mar_09_1706,test_typingtask_norepeats,2020.2.10,60.01617436337484,
belly,belly,,,,,,,,,0,73,73,73,,,,,,,,,,,,,,,2729.0062672079075,None,"['b', 'e', 'l', 'l', 'y']",1,"[0.8172057918272913, 0.9692477528005838, 1.24129702989012, 1.3931866867933422, 1.6332814069464803]",2729.0062672079075,None,2729.006350352848,2729.106395867886,s207_03092023,001,2023_Mar_09_1706,test_typingtask_norepeats,2020.2.10,60.01617436337484,
faqir,faqir,,,,,,,,,0,74,74,74,,,,,,,,,,,,,,,2734.5062997620553,None,"['f', 'a', 'q', 'i', 'e']",0,"[1.0211300600785762, 1.141265733167529, 1.6771967359818518, 1.8211565790697932, 2.0692352920304984]",2734.5062997620553,None,2734.506361542689,2734.6064811269753,s207_03092023,001,2023_Mar_09_1706,test_typingtask_norepeats,2020.2.10,60.01617436337484,
edthe,edthe,,,,,,,,,0,75,75,75,,,,,,,,,,,,,,,2740.0063948000316,None,"['e', 'd', 't', 'h', 'e']",1,"[0.8891753680072725, 1.0970854780171067, 1.337099765893072, 1.4730962780304253, 1.5851397740188986]",2740.0063948000316,None,2740.006402438693,2740.106477696914,s207_03092023,001,2023_Mar_09_1706,test_typingtask_norepeats,2020.2.10,60.01617436337484,
vanru,vanru,,,,,,,,,0,76,76,76,,,,,,,,,,,,,,,2745.50672617089,None,"['v', 'a', 'n', 'r', 'u']",1,"[0.8288029551040381, 0.9087358301039785, 1.076719094067812, 1.2448221750091761, 1.4368328449781984]",2745.50672617089,None,2745.5065545606894,2745.6067392379045,s207_03092023,001,2023_Mar_09_1706,test_typingtask_norepeats,2020.2.10,60.01617436337484,
puppy,puppy,,,,,,,,,0,77,77,77,,,,,,,,,,,,,,,2751.006721626967,None,"['p', 'u', 'p', 'p', 'y']",1,"[1.0727445490192622, 1.3448136341758072, 1.5609209821559489, 1.7048466231208295, 1.9368417169898748]",2751.006721626967,None,2751.0066140878016,2751.106775430031,s207_03092023,001,2023_Mar_09_1706,test_typingtask_norepeats,2020.2.10,60.01617436337484,
vanru,vanru,,,,,,,,,0,78,78,78,,,,,,,,,,,,,,,2756.506413792027,None,"['v', 'a', 'n', 'r', 'u']",1,"[0.9251527888700366, 0.9971102729905397, 1.149134546983987, 1.293040360789746, 1.5011075059883296]",2756.506413792027,None,2756.506396158785,2756.6067947300617,s207_03092023,001,2023_Mar_09_1706,test_typingtask_norepeats,2020.2.10,60.01617436337484,
would,would,,,,,,,,,0,79,79,79,,,,,,,,,,,,,,,2762.006438005017,None,"['w', 'o', 'u', 'l', 'd']",1,"[0.8970804938580841, 1.0971481159795076, 1.1691286119166762, 1.39300991082564, 1.6090117788407952]",2762.006438005017,None,2762.006556411693,2762.1066797149833,s207_03092023,001,2023_Mar_09_1706,test_typingtask_norepeats,2020.2.10,60.01617436337484,
zibja,zibja,,,,,,,,,0,80,80,80,,,,,,,,,,,,,,,2767.5063527589664,None,"['z', 'i', 'b', 'j', 'a']",1,"[1.3572043771855533, 1.501075693173334, 1.7091557190287858, 1.8930841931141913, 2.085081623168662]",2767.5063527589664,None,2767.5066567947624,2767.606453574961,s207_03092023,001,2023_Mar_09_1706,test_typingtask_norepeats,2020.2.10,60.01617436337484,
think,think,,,,,,,,,0,81,81,81,,,,,,,,,,,,,,,2773.0066359338816,None,"['t', 'h', 'i', 'n', 'k']",1,"[0.7369322059676051, 0.8489127838984132, 1.000886939931661, 1.2568023919593543, 1.5049310869071633]",2773.0066359338816,None,2773.0064840828536,2773.1065149030183,s207_03092023,001,2023_Mar_09_1706,test_typingtask_norepeats,2020.2.10,60.01617436337484,
vodka,vodka,,,,,,,,,0,82,82,82,,,,,,,,,,,,,,,2778.5063951599877,None,"['v', 'o', 'd', 'k', 'a']",1,"[0.9571752499323338, 1.0453021738212556, 1.2691171078477055, 1.3971615948248655, 1.4770724098198116]",2778.5063951599877,None,2778.5063400137706,2778.606538983062,s207_03092023,001,2023_Mar_09_1706,test_typingtask_norepeats,2020.2.10,60.01617436337484,
theme,theme,,,,,,,,,0,83,83,83,,,,,,,,,,,,,,,2784.0064900938887,None,"['t', 'h', 'm', 'e']",0,"[0.7691012970171869, 0.8970368530135602, 1.3450823039747775, 1.4649656219407916]",2784.0064900938887,None,2784.0065240398517,2784.106974726077,s207_03092023,001,2023_Mar_09_1706,test_typingtask_norepeats,2020.2.10,60.01617436337484,
tithe,tithe,,,,,,,,,0,84,84,84,,,,,,,,,,,,,,,2789.5063008009456,None,"['t', 'i', 't', 'h', 'e']",1,"[0.6612142790108919, 0.7972459220327437, 0.9411748249549419, 1.0452366760000587, 1.1492219809442759]",2789.5063008009456,None,2789.5065056208523,2789.606440200936,s207_03092023,001,2023_Mar_09_1706,test_typingtask_norepeats,2020.2.10,60.01617436337484,
kremp,kremp,,,,,,,,,0,85,85,85,,,,,,,,,,,,,,,2795.0064530458767,None,"['k', 'r', 'e', 'm', 'p']",1,"[1.0490947258658707, 1.2010683759581298, 1.3130866519641131, 1.5691001839004457, 1.8970679768826813]",2795.0064530458767,None,2795.006547472859,2795.106546545867,s207_03092023,001,2023_Mar_09_1706,test_typingtask_norepeats,2020.2.10,60.01617436337484,
haole,haole,,,,,,,,,0,86,86,86,,,,,,,,,,,,,,,2800.5064217569306,None,"['h', 'a', 'o', 'l', 'e']",1,"[0.7731409771367908, 0.9170034599956125, 1.1411507960874587, 1.3651071679778397, 1.4611504401545972]",2800.5064217569306,None,2800.5065531637056,2800.6068024649285,s207_03092023,001,2023_Mar_09_1706,test_typingtask_norepeats,2020.2.10,60.01617436337484,
heond,heond,,,,,,,,,0,87,87,87,,,,,,,,,,,,,,,2806.006421101978,None,"['h', 'e', 'o', 'n', 'd']",1,"[0.8651150669902563, 0.9851832981221378, 1.0891497370321304, 1.2730905960779637, 1.4730238071642816]",2806.006421101978,None,2806.0065084679054,2806.1065916160587,s207_03092023,001,2023_Mar_09_1706,test_typingtask_norepeats,2020.2.10,60.01617436337484,
druze,druze,,,,,,,,,0,88,88,88,,,,,,,,,,,,,,,2811.506589361932,None,"['d', 'r', 'u', 'z', 'e']",1,"[0.8848493590485305, 1.1088729691691697, 1.4768641330301762, 1.9569653009530157, 2.1169194320682436]",2811.506589361932,None,2811.506460384885,2811.6064848760143,s207_03092023,001,2023_Mar_09_1706,test_typingtask_norepeats,2020.2.10,60.01617436337484,
faqir,faqir,,,,,,,,,0,89,89,89,,,,,,,,,,,,,,,2817.0066736829467,None,"['f', 'a', 'q', 'i', 'r']",1,"[0.9608217088971287, 1.0807761989999563, 1.664809892885387, 1.792773937806487, 1.952864184975624]",2817.0066736829467,None,2817.0064509377817,2817.1067935510073,s207_03092023,001,2023_Mar_09_1706,test_typingtask_norepeats,2020.2.10,60.01617436337484,
about,about,,,,,,,,,0,90,90,90,,,,,,,,,,,,,,,2822.506618408952,None,"['a', 'b', 'o', 'u', 't']",1,"[0.7409504558891058, 0.8529423458967358, 1.1409454389940947, 1.268934810999781, 1.4449349478818476]",2822.506618408952,None,2822.506419066759,2822.606493185973,s207_03092023,001,2023_Mar_09_1706,test_typingtask_norepeats,2020.2.10,60.01617436337484,
edthe,edthe,,,,,,,,,0,91,91,91,,,,,,,,,,,,,,,2828.0065428109374,None,"['e', 'd', 't', 'h', 'e']",1,"[0.8169040819630027, 1.0089168641716242, 1.2409882200881839, 1.3850351960863918, 1.4729735010769218]",2828.0065428109374,None,2828.006595135853,2828.1068068549503,s207_03092023,001,2023_Mar_09_1706,test_typingtask_norepeats,2020.2.10,60.01617436337484,
therm,therm,,,,,,,,,0,92,92,92,,,,,,,,,,,,,,,2833.506678818958,None,"['t', 'h', 'e', 'r', 'm']",1,"[0.7008268109057099, 0.8048882819712162, 0.9328442679252476, 1.0448818218428642, 1.3888539229519665]",2833.506678818958,None,2833.5066240727438,2833.6067522449885,s207_03092023,001,2023_Mar_09_1706,test_typingtask_norepeats,2020.2.10,60.01617436337484,
haole,haole,,,,,,,,,0,93,93,93,,,,,,,,,,,,,,,2839.006568966899,None,"['h', 'a', 'o', 'l', 'e']",1,"[0.8649237689096481, 0.9849462788552046, 1.1769059288781136, 1.4088763038162142, 1.4969347948208451]",2839.006568966899,None,2839.006587098772,2839.1063710730523,s207_03092023,001,2023_Mar_09_1706,test_typingtask_norepeats,2020.2.10,60.01617436337484,
think,think,,,,,,,,,0,94,94,94,,,,,,,,,,,,,,,2844.5066950928885,None,"['t', 'h', 'i', 'n', 'k']",1,"[0.7648528839927167, 0.8848088060040027, 1.0288515600841492, 1.1968511720187962, 1.348858310142532]",2844.5066950928885,None,2844.50662311581,2844.606531881029,s207_03092023,001,2023_Mar_09_1706,test_typingtask_norepeats,2020.2.10,60.01617436337484,
vodka,vodka,,,,,,,,,0,95,95,95,,,,,,,,,,,,,,,2850.006897361949,None,"['v', 'o', 'd', 'k', 'a']",1,"[1.256561426911503, 1.3765371579211205, 1.5366457859054208, 1.6726583200506866, 1.7606959268450737]",2850.006897361949,None,2850.0066379848404,2850.106594546931,s207_03092023,001,2023_Mar_09_1706,test_typingtask_norepeats,2020.2.10,60.01617436337484,
buddy,buddy,,,,,,,,,0,96,96,96,,,,,,,,,,,,,,,2855.506601918023,None,"['b', 'u', 'd', 'd', 'y']",1,"[0.9489568681456149, 1.0928535391576588, 1.3569640500936657, 1.476843283046037, 1.6049676130060107]",2855.506601918023,None,2855.506560230814,2855.607111089863,s207_03092023,001,2023_Mar_09_1706,test_typingtask_norepeats,2020.2.10,60.01617436337484,
vodka,vodka,,,,,,,,,0,97,97,97,,,,,,,,,,,,,,,2861.006478726864,None,"['v', 'o', 'd', 'k', 'a']",1,"[1.1769741969183087, 1.273024764843285, 1.3929662988521159, 1.5530497229192406, 1.6570429268758744]",2861.006478726864,None,2861.0066334919075,2861.106580913998,s207_03092023,001,2023_Mar_09_1706,test_typingtask_norepeats,2020.2.10,60.01617436337484,
kremp,kremp,,,,,,,,,0,98,98,98,,,,,,,,,,,,,,,2866.506494791014,None,"['k', 'r', 'e', 'm', 'p']",1,"[1.180961042875424, 1.3170689928811044, 1.4050712559837848, 1.6690473859198391, 2.2129815379157662]",2866.506494791014,None,2866.5065894338304,2866.606712685898,s207_03092023,001,2023_Mar_09_1706,test_typingtask_norepeats,2020.2.10,60.01617436337484,
belly,belly,,,,,,,,,0,99,99,99,,,,,,,,,,,,,,,2872.0065538638737,None,"['b', 'e', 'l', 'l', 'y']",1,"[0.7848964359145612, 0.8888905360363424, 1.0569791500456631, 1.2008891189470887, 1.2889689160510898]",2872.0065538638737,None,2872.0065838477576,2872.1067290338688,s207_03092023,001,2023_Mar_09_1706,test_typingtask_norepeats,2020.2.10,60.01617436337484,
kremp,kremp,,,,,,,,,0,100,100,100,,,,,,,,,,,,,,,2877.506399753038,None,"['k', 'r', 'e', 'm', 'p']",1,"[1.0211425421293825, 1.2211455320939422, 1.3331103560049087, 1.4531689721625298, 1.6770273731090128]",2877.506399753038,None,2877.5066072567834,2877.6067011640407,s207_03092023,001,2023_Mar_09_1706,test_typingtask_norepeats,2020.2.10,60.01617436337484,
druze,druze,,,,,,,,,0,101,101,101,,,,,,,,,,,,,,,2883.006639533909,None,"['d', 'r', 'u', 'z', 'e']",1,"[0.9049153469968587, 1.080848430050537, 1.2728083240799606, 1.7208130049984902, 1.904864148935303]",2883.006639533909,None,2883.006614507828,2883.1065868660808,s207_03092023,001,2023_Mar_09_1706,test_typingtask_norepeats,2020.2.10,60.01617436337484,
belly,belly,,,,,,,,,0,102,102,102,,,,,,,,,,,,,,,2888.506609163014,None,"['b', 'e', 'l', 'l', 'y']",1,"[0.7168406629934907, 0.8449312050361186, 1.1009146401192993, 1.236907877959311, 1.3648461310658604]",2888.506609163014,None,2888.506400021911,2888.606528590899,s207_03092023,001,2023_Mar_09_1706,test_typingtask_norepeats,2020.2.10,60.01617436337484,
buddy,buddy,,,,,,,,,0,103,103,103,,,,,,,,,,,,,,,2894.006676696008,None,"['b', 'u', 'd', 'd', 'y']",1,"[1.0007695339154452, 1.1371785728260875, 1.3847754360176623, 1.5287794668693095, 1.648873960832134]",2894.006676696008,None,2894.006503958907,2894.1066080948804,s207_03092023,001,2023_Mar_09_1706,test_typingtask_norepeats,2020.2.10,60.01617436337484,
champ,champ,,,,,,,,,0,104,104,104,,,,,,,,,,,,,,,2899.506646744907,None,"['c', 'h', 'a', 'm', 'p']",1,"[0.7488842750899494, 0.86881008814089, 0.9969116700813174, 1.2448535300791264, 1.428894936107099]",2899.506646744907,None,2899.506622727914,2899.6065379830543,s207_03092023,001,2023_Mar_09_1706,test_typingtask_norepeats,2020.2.10,60.01617436337484,
there,there,,,,,,,,,0,105,105,105,,,,,,,,,,,,,,,2905.006666752044,None,"['t', 'h', 'e', 'r', 'e']",1,"[0.7208537738770247, 0.8329025900457054, 0.9608519000466913, 1.056899992050603, 1.1608472380321473]",2905.006666752044,None,2905.006687234808,2905.1064673350193,s207_03092023,001,2023_Mar_09_1706,test_typingtask_norepeats,2020.2.10,60.01617436337484,
about,about,,,,,,,,,0,106,106,106,,,,,,,,,,,,,,,2910.5066975699738,None,"['a', 'b', 'o', 'u', 't']",1,"[0.644850374897942, 0.7728679929859936, 1.6047482958529145, 1.724872293882072, 1.8528205000329763]",2910.5066975699738,None,2910.5066917018967,2910.6065107439645,s207_03092023,001,2023_Mar_09_1706,test_typingtask_norepeats,2020.2.10,60.01617436337484,
buddy,buddy,,,,,,,,,0,107,107,107,,,,,,,,,,,,,,,2916.006916479906,None,"['b', 'u', 'd', 'd', 'y']",1,"[0.7925310120917857, 1.0085515349637717, 1.3606174769811332, 1.4885473160538822, 1.6326429159380496]",2916.006916479906,None,2916.006899732817,2916.106701806886,s207_03092023,001,2023_Mar_09_1706,test_typingtask_norepeats,2020.2.10,60.01617436337484,
pykka,pykka,,,,,,,,,0,108,108,108,,,,,,,,,,,,,,,2921.5071218230296,None,"['p', 'y', 'k', 'k', 'a']",1,"[1.1403313651680946, 1.4123511521611363, 1.788385155145079, 1.9404452741146088, 2.0843252041377127]",2921.5071218230296,None,2921.5069512298332,2921.606964332983,s207_03092023,001,2023_Mar_09_1706,test_typingtask_norepeats,2020.2.10,60.01617436337484,
about,about,,,,,,,,,0,109,109,109,,,,,,,,,,,,,,,2927.006689283997,None,"['a', 'b', 'o', 'u', 't']",1,"[0.6488670590333641, 0.8007555310614407, 1.2168558440171182, 1.344883160898462, 1.5208292729221284]",2927.006689283997,None,2927.006692968728,2927.1066836230457,s207_03092023,001,2023_Mar_09_1706,test_typingtask_norepeats,2020.2.10,60.01617436337484,
therm,therm,,,,,,,,,0,110,110,110,,,,,,,,,,,,,,,2932.506571559934,None,"['t', 'h', 'e', 'r', 'm']",1,"[0.7808857120107859, 0.8928804581519216, 1.052969312062487, 1.1489819129928946, 1.2690717480145395]",2932.506571559934,None,2932.5067575687544,2932.6067012608983,s207_03092023,001,2023_Mar_09_1706,test_typingtask_norepeats,2020.2.10,60.01617436337484,
cooed,cooed,,,,,,,,,0,111,111,111,,,,,,,,,,,,,,,2938.006615191931,None,"['c', 'o', 'o', 'e', 'd']",1,"[1.0489075081422925, 1.2329399581067264, 1.3768500660080463, 1.5048915669322014, 1.6889514320064336]",2938.006615191931,None,2938.0067553498784,2938.106743702898,s207_03092023,001,2023_Mar_09_1706,test_typingtask_norepeats,2020.2.10,60.01617436337484,
zibja,zibja,,,,,,,,,0,112,112,112,,,,,,,,,,,,,,,2943.5065551919397,None,"['z', 'i', 'b', 'j', 'a']",1,"[1.4050115621648729, 1.5410126401111484, 1.7009099051356316, 1.8928978871554136, 2.085000571096316]",2943.5065551919397,None,2943.5066960288214,2943.607014817884,s207_03092023,001,2023_Mar_09_1706,test_typingtask_norepeats,2020.2.10,60.01617436337484,
tithe,tithe,,,,,,,,,0,113,113,113,,,,,,,,,,,,,,,2949.0066269289237,None,"['t', 'i', 'h', 't', 'e']",0,"[0.8569078098516911, 0.9609486928675324, 1.176814375910908, 2.112851647892967, 2.2489281378220767]",2949.0066269289237,None,2949.0066701978913,2949.106622124091,s207_03092023,001,2023_Mar_09_1706,test_typingtask_norepeats,2020.2.10,60.01617436337484,
edthe,edthe,,,,,,,,,0,114,114,114,,,,,,,,,,,,,,,2954.506753017893,None,"['e', 'd', 't', 'h', 'e']",1,"[0.8527658430393785, 1.0366931180469692, 1.2606884699780494, 1.3886906129773706, 1.47671809210442]",2954.506753017893,None,2954.5067111236976,2954.606646461878,s207_03092023,001,2023_Mar_09_1706,test_typingtask_norepeats,2020.2.10,60.01617436337484,
theme,theme,,,,,,,,,0,115,115,115,,,,,,,,,,,,,,,2960.006755924085,None,"['t', 'h', 'e', 'm', 'e']",1,"[0.6727988659404218, 0.7766899089328945, 0.888811606913805, 1.0406925489660352, 1.1527743190526962]",2960.006755924085,None,2960.006698231865,2960.1066918598954,s207_03092023,001,2023_Mar_09_1706,test_typingtask_norepeats,2020.2.10,60.01617436337484,
heond,heond,,,,,,,,,0,116,116,116,,,,,,,,,,,,,,,2965.5068073850125,None,"['h', 'e', 'o', 'n', 'd']",1,"[0.8848048360086977, 0.9967447030358016, 1.108683292986825, 1.2687280389945954, 1.4126687389798462]",2965.5068073850125,None,2965.5064984508326,2965.60724818008,s207_03092023,001,2023_Mar_09_1706,test_typingtask_norepeats,2020.2.10,60.01617436337484,
cooed,cooed,,,,,,,,,0,117,117,117,,,,,,,,,,,,,,,2971.00680669304,None,"['c', 'o', 'o', 'e', 'd']",1,"[0.8967053957749158, 1.0567502058111131, 1.2006654718425125, 1.360661030979827, 1.5286921910010278]",2971.00680669304,None,2971.0066782617478,2971.107041175943,s207_03092023,001,2023_Mar_09_1706,test_typingtask_norepeats,2020.2.10,60.01617436337484,
pykka,pykka,,,,,,,,,0,118,118,118,,,,,,,,,,,,,,,2976.5069623619784,None,"['p', 'y', 'k', 'k', 'a']",1,"[1.3085059709846973, 1.5644920079503208, 1.908579224953428, 2.060475943842903, 2.2365176249295473]",2976.5069623619784,None,2976.506759411842,2976.6065483130515,s207_03092023,001,2023_Mar_09_1706,test_typingtask_norepeats,2020.2.10,60.01617436337484,
would,would,,,,,,,,,0,119,119,119,,,,,,,,,,,,,,,2982.006812284002,None,"['w', 'o', 'u', 'l', 'd']",1,"[0.8087108910549432, 1.0006235260516405, 1.1286874951329082, 1.6006414440926164, 1.7687110360711813]",2982.006812284002,None,2982.0073449906895,2982.1065377299674,s207_03092023,001,2023_Mar_09_1706,test_typingtask_norepeats,2020.2.10,60.01617436337484,
