string,corrAns,practice_trials.thisRepN,practice_trials.thisTrialN,practice_trials.thisN,practice_trials.thisIndex,trials_1.thisRepN,trials_1.thisTrialN,trials_1.thisN,trials_1.thisIndex,trials_2.thisRepN,trials_2.thisTrialN,trials_2.thisN,trials_2.thisIndex,key_resp_0.keys,key_resp_0.corr,key_resp_0.rt,text_1.started,text_1.stopped,key_resp_1.keys,key_resp_1.corr,key_resp_1.rt,key_resp_1.started,key_resp_1.stopped,sound_1A_1.started,sound_1A_1.stopped,break_time.started,break_time.stopped,text_2.started,text_2.stopped,key_resp_2.keys,key_resp_2.corr,key_resp_2.rt,key_resp_2.started,key_resp_2.stopped,sound_1A_2.started,sound_1A_2.stopped,participant,session,date,expName,psychopyVersion,frameRate,
fresh,fresh,0,0,0,0,,,,,,,,,None,0,,,,,,,,,,,,,,,,,,,,,,s209_03102023,001,2023_Mar_10_1257,test_typingtask_norepeats,2020.2.10,59.93563907171573,
dream,dream,0,1,1,1,,,,,,,,,None,0,,,,,,,,,,,,,,,,,,,,,,s209_03102023,001,2023_Mar_10_1257,test_typingtask_norepeats,2020.2.10,59.93563907171573,
slime,slime,0,2,2,2,,,,,,,,,"['s', 'l', 'i', 'm', 'e']",1,"[0.9055575379170477, 0.9695558717940003, 1.1455946159549057, 1.2655358489137143, 1.3695391288492829]",,,,,,,,,,,,,,,,,,,,,s209_03102023,001,2023_Mar_10_1257,test_typingtask_norepeats,2020.2.10,59.93563907171573,
think,think,,,,,0,0,0,0,,,,,,,,1257.9964238600805,None,"['t', 'h', 'i', 'n', 'k']",1,"[1.0334290200844407, 1.0974041828885674, 1.2093894199933857, 1.377308368915692, 1.6094125190284103]",1257.9964238600805,None,1257.9902544523588,1258.0900968380738,,,,,,,,,,,,s209_03102023,001,2023_Mar_10_1257,test_typingtask_norepeats,2020.2.10,59.93563907171573,
heond,heond,,,,,0,1,1,1,,,,,,,,1263.5063825240359,None,"['h', 'e', 'o', 'n', 'd']",1,"[1.0354358991608024, 1.1554719430860132, 1.2194015600252897, 1.4194242260418832, 1.755490018054843]",1263.5063825240359,None,1263.5066143461968,1263.6063680329826,,,,,,,,,,,,s209_03102023,001,2023_Mar_10_1257,test_typingtask_norepeats,2020.2.10,59.93563907171573,
zibja,zibja,,,,,0,2,2,2,,,,,,,,1269.0075347321108,None,"['z', 'i', 'b', 'j', 'a']",1,"[1.2462422361131757, 1.3183129029348493, 1.4863078501075506, 1.7183166020549834, 1.8301901021040976]",1269.0075347321108,None,1269.0061599723062,1269.1062139649875,,,,,,,,,,,,s209_03102023,001,2023_Mar_10_1257,test_typingtask_norepeats,2020.2.10,59.93563907171573,
edthe,edthe,,,,,0,3,3,3,,,,,,,,1274.5064692210872,None,"['e', 'd', 't', 'h', 'e']",1,"[1.0432512280531228, 1.1633386141620576, 1.2432634371798486, 1.4353440629784018, 1.5313047291710973]",1274.5064692210872,None,1274.5064351073465,1274.6064689490013,,,,,,,,,,,,s209_03102023,001,2023_Mar_10_1257,test_typingtask_norepeats,2020.2.10,59.93563907171573,
there,there,,,,,0,4,4,4,,,,,,,,1280.0064662261866,None,"['t', 'h', 'e', 'r', 'e']",1,"[0.95129558397457, 1.031301697017625, 1.1512985210865736, 1.2153582270257175, 1.3753062000032514]",1280.0064662261866,None,1280.006544623198,1280.1066428851336,,,,,,,,,,,,s209_03102023,001,2023_Mar_10_1257,test_typingtask_norepeats,2020.2.10,59.93563907171573,
vanru,vanru,,,,,0,5,5,5,,,,,,,,1285.5063335529994,None,"['v', 'a', 'n', 'r', 'y']",0,"[0.9314458800945431, 1.0034894230775535, 1.1715097969863564, 1.2995032100006938, 1.4195528330747038]",1285.5063335529994,None,1285.5063268122262,1285.6064158130903,,,,,,,,,,,,s209_03102023,001,2023_Mar_10_1257,test_typingtask_norepeats,2020.2.10,59.93563907171573,
think,think,,,,,0,6,6,6,,,,,,,,1291.006294463994,None,"['t', 'h', 'i', 'n', 'k']",1,"[0.8154994428623468, 0.9034874949138612, 1.0155609028879553, 1.215532039059326, 1.391452681971714]",1291.006294463994,None,1291.0063894161954,1291.1066666750703,,,,,,,,,,,,s209_03102023,001,2023_Mar_10_1257,test_typingtask_norepeats,2020.2.10,59.93563907171573,
buddy,buddy,,,,,0,7,7,7,,,,,,,,1296.5065466440283,None,"['b', 'u', 'd', 'd', 'y']",1,"[0.9553032428957522, 1.051178823923692, 1.203295456012711, 1.363270684843883, 1.42717355187051]",1296.5065466440283,None,1296.5064035902265,1296.6066562540364,,,,,,,,,,,,s209_03102023,001,2023_Mar_10_1257,test_typingtask_norepeats,2020.2.10,59.93563907171573,
faqir,faqir,,,,,0,8,8,8,,,,,,,,1302.0063730671536,None,"['f', 'a', 'w', 'r', 'i', 't']",0,"[1.1834693988785148, 1.3114456930197775, 1.6954450318589807, 2.3034716099500656, 2.5593690839596093, 3.055417163996026]",1302.0063730671536,None,1302.006419941224,1302.1064162750263,,,,,,,,,,,,s209_03102023,001,2023_Mar_10_1257,test_typingtask_norepeats,2020.2.10,59.93563907171573,
theme,theme,,,,,0,9,9,9,,,,,,,,1307.5064455079846,None,"['t', 'h', 'e', 'm', 'e']",1,"[0.8512868089601398, 0.9473976718727499, 1.0512854349799454, 1.1873729238286614, 1.2753900079987943]",1307.5064455079846,None,1307.5063622192479,1307.6065142431762,,,,,,,,,,,,s209_03102023,001,2023_Mar_10_1257,test_typingtask_norepeats,2020.2.10,59.93563907171573,
zibja,zibja,,,,,0,10,10,10,,,,,,,,1313.0065022911876,None,"['z', 'i', 'b', 'j', 'a']",1,"[1.2152970409952104, 1.303324321983382, 1.4792553309816867, 1.7272547609172761, 1.8072363978717476]",1313.0065022911876,None,1313.0062633872963,1313.1067743250169,,,,,,,,,,,,s209_03102023,001,2023_Mar_10_1257,test_typingtask_norepeats,2020.2.10,59.93563907171573,
belly,belly,,,,,0,11,11,11,,,,,,,,1318.5064005979802,None,"['b', 'e', 'l', 'l', 'y']",1,"[0.9074519739951938, 1.0673180827870965, 1.1953902170062065, 1.3394522469025105, 1.5316538219340146]",1318.5064005979802,None,1318.5061483412514,1318.6062930780463,,,,,,,,,,,,s209_03102023,001,2023_Mar_10_1257,test_typingtask_norepeats,2020.2.10,59.93563907171573,
druze,druze,,,,,0,12,12,12,,,,,,,,1324.0064170041587,None,"['d', 'r', 'u', 'z', 'e']",1,"[1.023449138039723, 1.1914320851210505, 1.2793137200642377, 1.5513267409987748, 1.7834029870573431]",1324.0064170041587,None,1324.0064179253764,1324.1062669290695,,,,,,,,,,,,s209_03102023,001,2023_Mar_10_1257,test_typingtask_norepeats,2020.2.10,59.93563907171573,
puppy,puppy,,,,,0,13,13,13,,,,,,,,1329.5065429520328,None,"['p', 'u', 'p', 'p', 'y']",1,"[1.267196890199557, 1.4192637680098414, 1.5952810721937567, 1.7473440580070019, 1.931197103112936]",1329.5065429520328,None,1329.5064896441995,1329.6064537540078,,,,,,,,,,,,s209_03102023,001,2023_Mar_10_1257,test_typingtask_norepeats,2020.2.10,59.93563907171573,
vodka,vodka,,,,,0,14,14,14,,,,,,,,1335.0065063470975,None,"['v', 'o', 'd', 'k', 'a']",1,"[1.063316377112642, 1.1672189009841532, 1.2873288199771196, 1.447234810097143, 1.5432322600390762]",1335.0065063470975,None,1335.006581719173,1335.10662494204,,,,,,,,,,,,s209_03102023,001,2023_Mar_10_1257,test_typingtask_norepeats,2020.2.10,59.93563907171573,
druze,druze,,,,,0,15,15,15,,,,,,,,1340.506515090121,None,"['d', 'r', 'u', 'z', 'e']",1,"[0.9073228749912232, 1.075297259958461, 1.1312115360051394, 1.355224804021418, 1.579300477867946]",1340.506515090121,None,1340.5067167553584,1340.6064231949858,,,,,,,,,,,,s209_03102023,001,2023_Mar_10_1257,test_typingtask_norepeats,2020.2.10,59.93563907171573,
think,think,,,,,0,16,16,16,,,,,,,,1346.0066897301003,None,"['t', 'h', 'i', 'n', 'l', 'k']",0,"[0.799147822894156, 0.8711182097904384, 0.9831221678759903, 1.1430604758206755, 1.3270354548003525, 1.3270354548003525]",1346.0066897301003,None,1346.0065288042183,1346.1064588329755,,,,,,,,,,,,s209_03102023,001,2023_Mar_10_1257,test_typingtask_norepeats,2020.2.10,59.93563907171573,
faqir,faqir,,,,,0,17,17,17,,,,,,,,1351.5064997081645,None,"['f', 'a', 'q', 'i', 'r']",1,"[1.0672309428919107, 1.1713461438193917, 1.4512317548505962, 2.051234264858067, 2.1712122238241136]",1351.5064997081645,None,1351.5064685662742,1351.6065503170248,,,,,,,,,,,,s209_03102023,001,2023_Mar_10_1257,test_typingtask_norepeats,2020.2.10,59.93563907171573,
buddy,buddy,,,,,0,18,18,18,,,,,,,,1357.006500091171,None,"['b', 'u', 'd', 'd', 'y']",1,"[0.9672154339496046, 1.1033451377879828, 1.2393588749691844, 1.375359475845471, 1.4473330029286444]",1357.006500091171,None,1357.0064742561894,1357.106936797034,,,,,,,,,,,,s209_03102023,001,2023_Mar_10_1257,test_typingtask_norepeats,2020.2.10,59.93563907171573,
vodka,vodka,,,,,0,19,19,19,,,,,,,,1362.5063405639958,None,"['v', 'o', 'd', 'k', 'a']",1,"[0.9634949171449989, 1.0514059660490602, 1.179378234082833, 1.3235279831569642, 1.419505988014862]",1362.5063405639958,None,1362.5066024892963,1362.606745637022,,,,,,,,,,,,s209_03102023,001,2023_Mar_10_1257,test_typingtask_norepeats,2020.2.10,59.93563907171573,
cheer,cheer,,,,,0,20,20,20,,,,,,,,1368.0065284871962,None,"['c', 'h', 'e', 'e', 'r']",1,"[0.8792123768944293, 1.007273772964254, 1.1271996540017426, 1.2872928578872234, 1.3912296888884157]",1368.0065284871962,None,1368.0064511263276,1368.106701294193,,,,,,,,,,,,s209_03102023,001,2023_Mar_10_1257,test_typingtask_norepeats,2020.2.10,59.93563907171573,
about,about,,,,,0,21,21,21,,,,,,,,1373.5064144560602,None,"['a', 'b', 'o', 'u', 't']",1,"[0.891387872165069, 0.979303474072367, 1.1554767691995949, 1.3073527431115508, 1.411449255188927]",1373.5064144560602,None,1373.506671900302,1373.6065059769899,,,,,,,,,,,,s209_03102023,001,2023_Mar_10_1257,test_typingtask_norepeats,2020.2.10,59.93563907171573,
haole,haole,,,,,0,22,22,22,,,,,,,,1379.0066281650215,None,"['h', 'a', 'o', 'l', 'e', 'space']",0,"[0.9510957701131701, 1.0471576389390975, 1.1431326100137085, 1.3512817779555917, 1.4471910221036524, 1.6473480800632387]",1379.0066281650215,None,1379.006525736209,1379.106523970142,,,,,,,,,,,,s209_03102023,001,2023_Mar_10_1257,test_typingtask_norepeats,2020.2.10,59.93563907171573,
theme,theme,,,,,0,23,23,23,,,,,,,,1384.5065673880745,None,"['t', 'h', 'e', 'm', 'e']",1,"[0.8832735510077327, 0.9711699639447033, 1.0912865889258683, 1.203295246930793, 1.3152480889111757]",1384.5065673880745,None,1384.5065302053931,1384.6065021881368,,,,,,,,,,,,s209_03102023,001,2023_Mar_10_1257,test_typingtask_norepeats,2020.2.10,59.93563907171573,
pykka,pykka,,,,,0,24,24,24,,,,,,,,1390.0068001321051,None,"['p', 'y', 'k', 'k', 'a']",1,"[1.1590004649478942, 1.3669298849999905, 1.7429368400480598, 1.8630596790462732, 2.0149826870765537]",1390.0068001321051,None,1390.0064200061838,1390.1065308700781,,,,,,,,,,,,s209_03102023,001,2023_Mar_10_1257,test_typingtask_norepeats,2020.2.10,59.93563907171573,
think,think,,,,,0,25,25,25,,,,,,,,1395.506619384978,None,"['t', 'h', 'i', 'n', 'space', 'k']",0,"[0.8511162491049618, 0.9231733721680939, 1.0271407479885966, 1.1952452440746129, 1.2031233101151884, 1.3712337580509484]",1395.506619384978,None,1395.5064060281961,1395.6065041760448,,,,,,,,,,,,s209_03102023,001,2023_Mar_10_1257,test_typingtask_norepeats,2020.2.10,59.93563907171573,
lucky,lucky,,,,,0,26,26,26,,,,,,,,1401.0065182379913,None,"['l', 'u', 'c', 'k', 'y']",1,"[0.8792211639229208, 1.0474036398809403, 1.423330461839214, 1.519295803969726, 1.6472599788103253]",1401.0065182379913,None,1401.0067246161866,1401.106480539078,,,,,,,,,,,,s209_03102023,001,2023_Mar_10_1257,test_typingtask_norepeats,2020.2.10,59.93563907171573,
belly,belly,,,,,0,27,27,27,,,,,,,,1406.5065462440252,None,"['b', 'e', 'l', 'l', 'y']",1,"[0.8753219388891011, 1.0912198848091066, 1.1552063028793782, 1.3632435828913003, 1.5792552349157631]",1406.5065462440252,None,1406.5066647992003,1406.6064265379682,,,,,,,,,,,,s209_03102023,001,2023_Mar_10_1257,test_typingtask_norepeats,2020.2.10,59.93563907171573,
edthe,edthe,,,,,0,28,28,28,,,,,,,,1412.0066402889788,None,"['e', 'd', 't', 'h', 'e']",1,"[1.1510962299071252, 1.2631057759281248, 1.3670858428813517, 1.5510906160343438, 1.6392181939445436]",1412.0066402889788,None,1412.0066660513635,1412.1069128119852,,,,,,,,,,,,s209_03102023,001,2023_Mar_10_1257,test_typingtask_norepeats,2020.2.10,59.93563907171573,
kremp,kremp,,,,,0,29,29,29,,,,,,,,1417.506798026152,None,"['k', 'r', 'e', 'm', 'p']",1,"[1.083004540996626, 1.2110273400321603, 1.3150352130178362, 1.4669858030974865, 1.6350524430163205]",1417.506798026152,None,1417.50656244033,1417.6067012401763,,,,,,,,,,,,s209_03102023,001,2023_Mar_10_1257,test_typingtask_norepeats,2020.2.10,59.93563907171573,
faqir,faqir,,,,,0,30,30,30,,,,,,,,1423.0065982660744,None,"['f', 'a', 'q', 'i', 'r']",1,"[1.0791135479230434, 1.207133473828435, 1.4551965459249914, 1.6953105838038027, 1.8311128278728575]",1423.0065982660744,None,1423.0067019263747,1423.1067663310096,,,,,,,,,,,,s209_03102023,001,2023_Mar_10_1257,test_typingtask_norepeats,2020.2.10,59.93563907171573,
there,there,,,,,0,31,31,31,,,,,,,,1428.5065708891489,None,"['t', 'h', 'e', 'r', 'e']",1,"[0.9072246998548508, 0.9632513558026403, 1.0992674878798425, 1.1792015118990093, 1.3154416538309306]",1428.5065708891489,None,1428.506521837227,1428.6066742020193,,,,,,,,,,,,s209_03102023,001,2023_Mar_10_1257,test_typingtask_norepeats,2020.2.10,59.93563907171573,
belly,belly,,,,,0,32,32,32,,,,,,,,1434.0064881581347,None,"['b', 'e', 'l', 'l', 'y']",1,"[0.8312320718541741, 0.9272322929464281, 1.031300812959671, 1.1833467329852283, 1.3512350569944829]",1434.0064881581347,None,1434.006621980248,1434.10699273902,,,,,,,,,,,,s209_03102023,001,2023_Mar_10_1257,test_typingtask_norepeats,2020.2.10,59.93563907171573,
tithe,tithe,,,,,0,33,33,33,,,,,,,,1439.5064909311477,None,"['t', 'i', 't', 'h', 'e']",1,"[0.8833344699814916, 0.9792304309085011, 1.1873510659206659, 1.2672584410756826, 1.3792886270675808]",1439.5064909311477,None,1439.5066081102937,1439.6066582181957,,,,,,,,,,,,s209_03102023,001,2023_Mar_10_1257,test_typingtask_norepeats,2020.2.10,59.93563907171573,
vanru,vanru,,,,,0,34,34,34,,,,,,,,1445.0065319731366,None,"['v', 'a', 'n', 'r', 'u']",1,"[1.0473205540329218, 1.1113731500227004, 1.2712794200051576, 1.3913330940995365, 1.4792208790313452]",1445.0065319731366,None,1445.0066152293234,1445.1069770751055,,,,,,,,,,,,s209_03102023,001,2023_Mar_10_1257,test_typingtask_norepeats,2020.2.10,59.93563907171573,
buddy,buddy,,,,,0,35,35,35,,,,,,,,1450.5069835530594,None,"['b', 'u', 'd', 'd', 'y']",1,"[0.874750402988866, 0.9948418769054115, 1.1387602968607098, 1.2828331138007343, 1.3548506838269532]",1450.5069835530594,None,1450.5065844782162,1450.6067262140568,,,,,,,,,,,,s209_03102023,001,2023_Mar_10_1257,test_typingtask_norepeats,2020.2.10,59.93563907171573,
lucky,lucky,,,,,0,36,36,36,,,,,,,,1456.006726175081,None,"['l', 'u', 'c', 'k', 'y']",1,"[0.9191254859324545, 1.0950953930150717, 1.2310279291123152, 1.327002225909382, 1.4871238379273564]",1456.006726175081,None,1456.0065959742292,1456.1066159361508,,,,,,,,,,,,s209_03102023,001,2023_Mar_10_1257,test_typingtask_norepeats,2020.2.10,59.93563907171573,
heond,heond,,,,,0,37,37,37,,,,,,,,1461.5067086240742,None,"['h', 'e', 'o', 'n', 'd']",1,"[0.787136540049687, 0.9071028858888894, 0.9710758000146598, 1.1471931599080563, 1.235130526823923]",1461.5067086240742,None,1461.506546414364,1461.6070848810486,,,,,,,,,,,,s209_03102023,001,2023_Mar_10_1257,test_typingtask_norepeats,2020.2.10,59.93563907171573,
champ,champ,,,,,0,38,38,38,,,,,,,,1467.0067386110313,None,"['c', 'h', 'a', 'm', 'p']",1,"[0.8151223550084978, 0.8710627590771765, 0.9429973349906504, 1.1111728041432798, 1.270976975094527]",1467.0067386110313,None,1467.0066356422844,1467.1069937660359,,,,,,,,,,,,s209_03102023,001,2023_Mar_10_1257,test_typingtask_norepeats,2020.2.10,59.93563907171573,
would,would,,,,,0,39,39,39,,,,,,,,1472.5067061970476,None,"['w', 'o', 'u', 'l', 'd']",1,"[0.843030045973137, 0.9150935129728168, 1.0351362701039761, 1.2111801200080663, 1.2831289139576256]",1472.5067061970476,None,1472.5067917081992,1472.6065847380087,,,,,,,,,,,,s209_03102023,001,2023_Mar_10_1257,test_typingtask_norepeats,2020.2.10,59.93563907171573,
there,there,,,,,0,40,40,40,,,,,,,,1478.0067803030834,None,"['t', 'h', 'e', 'r', 'e']",1,"[0.8070397989358753, 0.8870663149282336, 0.9990376769565046, 1.0630501168780029, 1.1990503419656307]",1478.0067803030834,None,1478.0067395732272,1478.1066788500175,,,,,,,,,,,,s209_03102023,001,2023_Mar_10_1257,test_typingtask_norepeats,2020.2.10,59.93563907171573,
puppy,puppy,,,,,0,41,41,41,,,,,,,,1483.5067869999912,None,"['p', 'u', 'p', 'p', 'y']",1,"[1.0350396630819887, 1.1950378599576652, 1.3469790238887072, 1.4750583530403674, 1.6670441750902683]",1483.5067869999912,None,1483.5069073752034,1483.606728587998,,,,,,,,,,,,s209_03102023,001,2023_Mar_10_1257,test_typingtask_norepeats,2020.2.10,59.93563907171573,
vanru,vanru,,,,,0,42,42,42,,,,,,,,1489.0072465871926,None,"['v', 'a', 'n', 'r', 'u']",1,"[0.8466380948666483, 0.9584760118741542, 1.086527958046645, 1.2145474799908698, 1.294585234951228]",1489.0072465871926,None,1489.0070664423051,1489.1066048820503,,,,,,,,,,,,s209_03102023,001,2023_Mar_10_1257,test_typingtask_norepeats,2020.2.10,59.93563907171573,
vodka,vodka,,,,,0,43,43,43,,,,,,,,1494.5067682471126,None,"['b', 'o', 'd', 'k', 'a']",0,"[0.8910775389522314, 0.9710284699685872, 2.003235114971176, 2.195001328829676, 2.283073504921049]",1494.5067682471126,None,1494.5066645842976,1494.60705444403,,,,,,,,,,,,s209_03102023,001,2023_Mar_10_1257,test_typingtask_norepeats,2020.2.10,59.93563907171573,
heond,heond,,,,,0,44,44,44,,,,,,,,1500.0067507980857,None,"['h', 'e', 'o', 'n', 'd']",1,"[0.9111667650286108, 1.031000945949927, 1.0870928920339793, 1.2550925600808114, 1.3589844359084964]",1500.0067507980857,None,1500.0067022842354,1500.1068330651615,,,,,,,,,,,,s209_03102023,001,2023_Mar_10_1257,test_typingtask_norepeats,2020.2.10,59.93563907171573,
think,think,,,,,0,45,45,45,,,,,,,,1505.5065835199784,None,"['t', 'h', 'i', 'n', 'k']",1,"[0.8192102040629834, 0.9152198270894587, 1.0351562481373549, 1.2032358939759433, 1.3631979511119425]",1505.5065835199784,None,1505.5067389941773,1505.6067792531103,,,,,,,,,,,,s209_03102023,001,2023_Mar_10_1257,test_typingtask_norepeats,2020.2.10,59.93563907171573,
puppy,puppy,,,,,0,46,46,46,,,,,,,,1511.0065476181917,None,"['p', 'u', 'p', 'p', 'y']",1,"[1.1271860441192985, 1.2791901130694896, 1.4553016980644315, 1.5913082999177277, 1.8152314231265336]",1511.0065476181917,None,1511.0066343102603,1511.1067080420908,,,,,,,,,,,,s209_03102023,001,2023_Mar_10_1257,test_typingtask_norepeats,2020.2.10,59.93563907171573,
champ,champ,,,,,0,47,47,47,,,,,,,,1516.5065692730714,None,"['c', 'h', 'a', 'm', 'p']",1,"[0.7872914469335228, 0.85116285411641, 0.9791883591096848, 1.0832681921310723, 1.2511633359827101]",1516.5065692730714,None,1516.5067585472948,1516.6069792690687,,,,,,,,,,,,s209_03102023,001,2023_Mar_10_1257,test_typingtask_norepeats,2020.2.10,59.93563907171573,
belly,belly,,,,,0,48,48,48,,,,,,,,1522.0065752600785,None,"['b', 'e', 'l', 'l', 'y']",1,"[0.7591604748740792, 0.8953584849368781, 0.9911998498719186, 1.1112897349521518, 1.2952412490267307]",1522.0065752600785,None,1522.0067515323403,1522.1067882631905,,,,,,,,,,,,s209_03102023,001,2023_Mar_10_1257,test_typingtask_norepeats,2020.2.10,59.93563907171573,
haole,haole,,,,,0,49,49,49,,,,,,,,1527.5066841670778,None,"['h', 'a', 'o', 'l', 'e']",1,"[0.7070625599008054, 0.827036663889885, 0.9390606570523232, 1.155161987990141, 1.2590756060089916]",1527.5066841670778,None,1527.5066190281882,1527.606688810978,,,,,,,,,,,,s209_03102023,001,2023_Mar_10_1257,test_typingtask_norepeats,2020.2.10,59.93563907171573,
vanru,vanru,,,,,0,50,50,50,,,,,,,,1533.0069189250935,None,"['v', 'a', 'n', 'r', 'u']",1,"[0.7749406609218568, 0.862822423921898, 1.0229320658836514, 1.1267992889042944, 1.2069288599304855]",1533.0069189250935,None,1533.0065621043555,1533.106817617081,,,,,,,,,,,,s209_03102023,001,2023_Mar_10_1257,test_typingtask_norepeats,2020.2.10,59.93563907171573,
edthe,edthe,,,,,0,51,51,51,,,,,,,,1538.5067328920122,None,"['e', 'd', 't', 'h', 'e']",1,"[0.8991038578096777, 1.019091332796961, 1.1551031728740782, 1.347083929926157, 1.4430058698635548]",1538.5067328920122,None,1538.5066890901885,1538.606796547072,,,,,,,,,,,,s209_03102023,001,2023_Mar_10_1257,test_typingtask_norepeats,2020.2.10,59.93563907171573,
kremp,kremp,,,,,0,52,52,52,,,,,,,,1544.0068206461146,None,"['k', 'r', 'e', 'm', 'p']",1,"[0.8950339721050113, 0.9589833600912243, 1.0309851001948118, 1.150910509051755, 1.3190171429887414]",1544.0068206461146,None,1544.0068115253466,1544.1065952181816,,,,,,,,,,,,s209_03102023,001,2023_Mar_10_1257,test_typingtask_norepeats,2020.2.10,59.93563907171573,
buddy,buddy,,,,,0,53,53,53,,,,,,,,1549.5068041251507,None,"['b', 'u', 'd', 'd', 'y']",1,"[0.883032349171117, 1.0029908071737736, 1.1309222280979156, 1.2909335840959102, 1.3790137490723282]",1549.5068041251507,None,1549.50680488036,1549.6070757950656,,,,,,,,,,,,s209_03102023,001,2023_Mar_10_1257,test_typingtask_norepeats,2020.2.10,59.93563907171573,
cooed,cooed,,,,,0,54,54,54,,,,,,,,1555.0068333740346,None,"['c', 'o', 'o', 'e', 'd']",1,"[0.8229707200080156, 0.9428961400408298, 1.0949926800094545, 1.2228865812066942, 1.3428912002127618]",1555.0068333740346,None,1555.0068633331916,1555.1066475531552,,,,,,,,,,,,s209_03102023,001,2023_Mar_10_1257,test_typingtask_norepeats,2020.2.10,59.93563907171573,
haole,haole,,,,,0,55,55,55,,,,,,,,1560.5069240380544,None,"['h', 'a', 'o', 'l', 'e']",1,"[0.8667990891262889, 1.2667802381329238, 1.3869356650393456, 1.5869204951450229, 1.714899810962379]",1560.5069240380544,None,1560.5068886693566,1560.6068675999995,,,,,,,,,,,,s209_03102023,001,2023_Mar_10_1257,test_typingtask_norepeats,2020.2.10,59.93563907171573,
druze,druze,,,,,0,56,56,56,,,,,,,,1566.0069628260098,None,"['d', 'r', 'u', 'z', 'e']",1,"[0.8707276780623943, 1.0307778681162745, 1.0868290280923247, 1.310885562095791, 1.5108134921174496]",1566.0069628260098,None,1566.0070391682907,1566.1070004981011,,,,,,,,,,,,s209_03102023,001,2023_Mar_10_1257,test_typingtask_norepeats,2020.2.10,59.93563907171573,
belly,belly,,,,,0,57,57,57,,,,,,,,1571.5067666000687,None,"['b', 'e', 'l', 'l', 'y']",1,"[0.7390885930508375, 0.8509636479429901, 0.9630406540818512, 1.0990671110339463, 1.2830715749878436]",1571.5067666000687,None,1571.5067716263234,1571.6069585941732,,,,,,,,,,,,s209_03102023,001,2023_Mar_10_1257,test_typingtask_norepeats,2020.2.10,59.93563907171573,
therm,therm,,,,,0,58,58,58,,,,,,,,1577.0067362131085,None,"['t', 'h', 'e', 'r', 'm']",1,"[0.8790182829834521, 0.9510034031700343, 1.0710513631347567, 1.1831012431066483, 1.303066685097292]",1577.0067362131085,None,1577.0068645073566,1577.1068811069708,,,,,,,,,,,,s209_03102023,001,2023_Mar_10_1257,test_typingtask_norepeats,2020.2.10,59.93563907171573,
lucky,lucky,,,,,0,59,59,59,,,,,,,,1582.5067163719796,None,"['l', 'u', 'c', 'k', 'y']",1,"[1.0270110189449042, 1.3231381881050766, 1.5391512401401997, 1.6031419860664755, 1.7551234499551356]",1582.5067163719796,None,1582.50662136022,1582.6067202989943,,,,,,,,,,,,s209_03102023,001,2023_Mar_10_1257,test_typingtask_norepeats,2020.2.10,59.93563907171573,
faqir,faqir,,,,,0,60,60,60,,,,,,,,1588.0067075791303,None,"['f', 'a', 'i', 'r']",0,"[0.9430313420016319, 1.1031369569245726, 1.7831299719400704, 1.8790853300597519]",1588.0067075791303,None,1588.0067981161642,1588.1067650741898,,,,,,,,,,,,s209_03102023,001,2023_Mar_10_1257,test_typingtask_norepeats,2020.2.10,59.93563907171573,
therm,therm,,,,,0,61,61,61,,,,,,,,1593.5066839309875,None,"['t', 'h', 'e', 'r', 'm']",1,"[0.8671365689951926, 0.9551737420260906, 1.0590501390397549, 1.0991531310137361, 1.227097330847755]",1593.5066839309875,None,1593.5068364172707,1593.606840959983,,,,,,,,,,,,s209_03102023,001,2023_Mar_10_1257,test_typingtask_norepeats,2020.2.10,59.93563907171573,
lucky,lucky,,,,,0,62,62,62,,,,,,,,1599.006887704134,None,"['l', 'u', 'c', 'k', 'y']",1,"[0.8389678138773888, 0.9909786689095199, 1.0549387109931558, 1.18289078399539, 1.326841952977702]",1599.006887704134,None,1599.0068748152348,1599.1068242441397,,,,,,,,,,,,s209_03102023,001,2023_Mar_10_1257,test_typingtask_norepeats,2020.2.10,59.93563907171573,
kremp,kremp,,,,,0,63,63,63,,,,,,,,1604.5069440070074,None,"['k', 'r', 'e', 'm', 'p']",1,"[0.8587749470025301, 0.9308514588046819, 1.01090266299434, 1.1069102308247238, 1.2828939408063889]",1604.5069440070074,None,1604.5067358742467,1604.6069230460562,,,,,,,,,,,,s209_03102023,001,2023_Mar_10_1257,test_typingtask_norepeats,2020.2.10,59.93563907171573,
therm,therm,,,,,0,64,64,64,,,,,,,,1610.0068763520103,None,"['t', 'h', 'e', 'r', 'm']",1,"[0.7029054241720587, 0.7989567511249334, 0.9189841020852327, 0.974983582040295, 1.214860225096345]",1610.0068763520103,None,1610.0067485113627,1610.1069264831021,,,,,,,,,,,,s209_03102023,001,2023_Mar_10_1257,test_typingtask_norepeats,2020.2.10,59.93563907171573,
lucky,lucky,,,,,0,65,65,65,,,,,,,,1615.507213696139,None,"['l', 'u', 'c', 'k', 'y']",1,"[0.7705956841818988, 0.9466831150930375, 1.0505162251647562, 1.1386414209846407, 1.290523863164708]",1615.507213696139,None,1615.5068795903585,1615.607187567046,,,,,,,,,,,,s209_03102023,001,2023_Mar_10_1257,test_typingtask_norepeats,2020.2.10,59.93563907171573,
cheer,cheer,,,,,0,66,66,66,,,,,,,,1621.0069552881178,None,"['c', 'h', 'e', 'e', 'r']",1,"[0.774861283833161, 0.8788357030134648, 1.0388032079208642, 1.278878659941256, 1.5029090240132064]",1621.0069552881178,None,1621.0068952882662,1621.1066787980963,,,,,,,,,,,,s209_03102023,001,2023_Mar_10_1257,test_typingtask_norepeats,2020.2.10,59.93563907171573,
zibja,zibja,,,,,0,67,67,67,,,,,,,,1626.5080737080425,None,"['z', 'i', 'b', 'j', 'a']",1,"[1.0256532419007272, 1.1057813649531454, 1.265748109901324, 1.441659085918218, 1.5457147788256407]",1626.5080737080425,None,1626.5071422582491,1626.6068194219843,,,,,,,,,,,,s209_03102023,001,2023_Mar_10_1257,test_typingtask_norepeats,2020.2.10,59.93563907171573,
would,would,,,,,0,68,68,68,,,,,,,,1632.0234843271319,None,"['w', 'o', 'u', 'l', 'd']",1,"[0.8542876988649368, 0.9342473109718412, 1.0703647178597748, 1.2462788508273661, 1.3183141378685832]",1632.0234843271319,None,1632.0235546041745,1632.123468840029,,,,,,,,,,,,s209_03102023,001,2023_Mar_10_1257,test_typingtask_norepeats,2020.2.10,59.93563907171573,
about,about,,,,,0,69,69,69,,,,,,,,1637.5233271871693,None,"['a', 'b', 'o', 'u', 't']",1,"[0.802487462060526, 0.8905382109805942, 1.0664905300363898, 1.2103953659534454, 1.3144552051089704]",1637.5233271871693,None,1637.5234493623952,1637.6236160811968,,,,,,,,,,,,s209_03102023,001,2023_Mar_10_1257,test_typingtask_norepeats,2020.2.10,59.93563907171573,
druze,druze,,,,,0,70,70,70,,,,,,,,1643.02344739018,None,"['d', 'r', 'u', 'z', 'e']",1,"[0.9584077969193459, 1.1503759529441595, 1.2464565269183367, 1.438353155972436, 1.6623952169902623]",1643.02344739018,None,1643.0234888611826,1643.1236512491014,,,,,,,,,,,,s209_03102023,001,2023_Mar_10_1257,test_typingtask_norepeats,2020.2.10,59.93563907171573,
puppy,puppy,,,,,0,71,71,71,,,,,,,,1648.5234091621824,None,"['p', 'u', 'p', 'p', 'y']",1,"[0.8584346231073141, 1.0103090070188046, 1.1784088150598109, 2.050418856088072, 2.522442870074883]",1648.5234091621824,None,1648.5236235101706,1648.6235705500003,,,,,,,,,,,,s209_03102023,001,2023_Mar_10_1257,test_typingtask_norepeats,2020.2.10,59.93563907171573,
vodka,vodka,,,,,0,72,72,72,,,,,,,,1654.023669152055,None,"['v', 'o', 'd', 'k', 'a']",1,"[0.8701871670782566, 0.9981093290261924, 1.1260695660021156, 1.3420727921184152, 1.4301665381062776]",1654.023669152055,None,1654.023494541319,1654.1235132741276,,,,,,,,,,,,s209_03102023,001,2023_Mar_10_1257,test_typingtask_norepeats,2020.2.10,59.93563907171573,
pykka,pykka,,,,,0,73,73,73,,,,,,,,1659.5235626071226,None,"['p', 'y', 'k', 'k', 'a']",1,"[0.9702633749693632, 1.4022778640501201, 1.922233761055395, 2.074173246975988, 2.242175715044141]",1659.5235626071226,None,1659.5234265252016,1659.6235455821734,,,,,,,,,,,,s209_03102023,001,2023_Mar_10_1257,test_typingtask_norepeats,2020.2.10,59.93563907171573,
theme,theme,,,,,0,74,74,74,,,,,,,,1665.0236938621383,None,"['t', 'h', 'e', 'r', 'm', 'e']",0,"[0.7420360271353275, 0.8140471640508622, 0.91802669595927, 0.9821118451654911, 1.1100526319351047, 1.7661208880599588]",1665.0236938621383,None,1665.023407452181,1665.1235915701836,,,,,,,,,,,,s209_03102023,001,2023_Mar_10_1257,test_typingtask_norepeats,2020.2.10,59.93563907171573,
faqir,faqir,,,,,0,75,75,75,,,,,,,,1670.5237365451176,None,"['f', 'a', 'q', 'i', 'r']",1,"[0.9621187120210379, 1.0821187070105225, 1.2900645008776337, 1.514103002846241, 1.6259991808328778]",1670.5237365451176,None,1670.5236274282447,1670.6235252639744,,,,,,,,,,,,s209_03102023,001,2023_Mar_10_1257,test_typingtask_norepeats,2020.2.10,59.93563907171573,
cooed,cooed,,,,,0,76,76,76,,,,,,,,1676.0236005161423,None,"['c', 'o', 'o', 'e', 'd']",1,"[0.8222554579842836, 0.9501824888866395, 1.0941291288472712, 1.2062493648845702, 1.2861712239682674]",1676.0236005161423,None,1676.023906030366,1676.1233815671876,,,,,,,,,,,,s209_03102023,001,2023_Mar_10_1257,test_typingtask_norepeats,2020.2.10,59.93563907171573,
tithe,tithe,,,,,0,77,77,77,,,,,,,,1681.5236252101604,None,"['t', 'i', 't', 'h', 'e']",1,"[0.834108280017972, 0.9142123491037637, 1.0181230469606817, 1.0981527459807694, 1.2021987331099808]",1681.5236252101604,None,1681.5236859553493,1681.6234938590787,,,,,,,,,,,,s209_03102023,001,2023_Mar_10_1257,test_typingtask_norepeats,2020.2.10,59.93563907171573,
would,would,,,,,0,78,78,78,,,,,,,,1687.0237313911784,None,"['w', 'o', 'u', 'l', 'd']",1,"[0.7259995420463383, 0.8140928419306874, 0.950103331822902, 1.1260010348632932, 1.1741290038917214]",1687.0237313911784,None,1687.0237240133806,1687.1235138340853,,,,,,,,,,,,s209_03102023,001,2023_Mar_10_1257,test_typingtask_norepeats,2020.2.10,59.93563907171573,
about,about,,,,,0,79,79,79,,,,,,,,1692.5237327301875,None,"['a', 'b', 'o', 'u', 't']",1,"[0.7620948019903153, 0.8501009549945593, 1.0420319868717343, 1.1860893538687378, 1.2901096949353814]",1692.5237327301875,None,1692.5235958533826,1692.6238867500797,,,,,,,,,,,,s209_03102023,001,2023_Mar_10_1257,test_typingtask_norepeats,2020.2.10,59.93563907171573,
theme,theme,,,,,0,80,80,80,,,,,,,,1698.0236303890124,None,"['t', 'h', 'e', 'm', 'e']",1,"[0.7662058670539409, 0.8541916979011148, 0.9742274358868599, 1.0941146530676633, 1.214165841927752]",1698.0236303890124,None,1698.023692762386,1698.124030431034,,,,,,,,,,,,s209_03102023,001,2023_Mar_10_1257,test_typingtask_norepeats,2020.2.10,59.93563907171573,
zibja,zibja,,,,,0,81,81,81,,,,,,,,1703.523629863048,None,"['z', 'i', 'b', 'j', 'a']",1,"[0.8902210460510105, 0.9701330529060215, 1.1301408379804343, 1.282217910978943, 1.386212038109079]",1703.523629863048,None,1703.5235835252329,1703.6236586030573,,,,,,,,,,,,s209_03102023,001,2023_Mar_10_1257,test_typingtask_norepeats,2020.2.10,59.93563907171573,
haole,haole,,,,,0,82,82,82,,,,,,,,1709.0235565961339,None,"['h', 'a', 'o', 'l', 'e']",1,"[0.7261785429436713, 0.8142451520543545, 0.9261868209578097, 1.1101797600276768, 1.2143647209741175]",1709.0235565961339,None,1709.0236036143265,1709.1236637160182,,,,,,,,,,,,s209_03102023,001,2023_Mar_10_1257,test_typingtask_norepeats,2020.2.10,59.93563907171573,
cheer,cheer,,,,,0,83,83,83,,,,,,,,1714.5235513860825,None,"['c', 'h', 'e', 'e', 'r']",1,"[0.7302600359544158, 0.8582921759225428, 0.994184112874791, 1.1622645859606564, 1.2502885228022933]",1714.5235513860825,None,1714.5237701392266,1714.6236705840565,,,,,,,,,,,,s209_03102023,001,2023_Mar_10_1257,test_typingtask_norepeats,2020.2.10,59.93563907171573,
about,about,,,,,0,84,84,84,,,,,,,,1720.0234818230383,None,"['a', 'b', 'o', 'u', 't']",1,"[0.8143300218507648, 0.9422376418951899, 1.1023712418973446, 1.238275155890733, 1.3583825810346752]",1720.0234818230383,None,1720.0237721902317,1720.1236719409935,,,,,,,,,,,,s209_03102023,001,2023_Mar_10_1257,test_typingtask_norepeats,2020.2.10,59.93563907171573,
edthe,edthe,,,,,0,85,85,85,,,,,,,,1725.5235910601914,None,"['e', 'd', 't', 'h', 'e']",1,"[0.8181499859783798, 0.9942136260215193, 1.1141898699570447, 1.3062646239995956, 1.3861938999034464]",1725.5235910601914,None,1725.5236388113349,1725.6239728899673,,,,,,,,,,,,s209_03102023,001,2023_Mar_10_1257,test_typingtask_norepeats,2020.2.10,59.93563907171573,
cooed,cooed,,,,,0,86,86,86,,,,,,,,1731.0235474270303,None,"['c', 'o', 'o', 'e', 'd']",1,"[0.7422004849649966, 0.9183013220317662, 1.0782982278615236, 1.1501817188691348, 1.25427401997149]",1731.0235474270303,None,1731.0235571122262,1731.1236077931244,,,,,,,,,,,,s209_03102023,001,2023_Mar_10_1257,test_typingtask_norepeats,2020.2.10,59.93563907171573,
kremp,kremp,,,,,0,87,87,87,,,,,,,,1736.5238823520485,None,"['k', 'r', 'e', 'm', 'p']",1,"[0.9139252461027354, 1.0019383889157325, 1.081948497099802, 1.1459183660335839, 1.305911174044013]",1736.5238823520485,None,1736.5235675702802,1736.6236784700304,,,,,,,,,,,,s209_03102023,001,2023_Mar_10_1257,test_typingtask_norepeats,2020.2.10,59.93563907171573,
buddy,buddy,,,,,0,88,88,88,,,,,,,,1742.0238736071624,None,"['b', 'u', 'd', 'd', 'y']",1,"[0.7979046329855919, 0.925858719041571, 1.0859739370644093, 1.229906080989167, 1.2539686900563538]",1742.0238736071624,None,1742.0236977263353,1742.1235471991822,,,,,,,,,,,,s209_03102023,001,2023_Mar_10_1257,test_typingtask_norepeats,2020.2.10,59.93563907171573,
champ,champ,,,,,0,89,89,89,,,,,,,,1747.5406652581878,None,"['c', 'h', 'a', 'm', 'p']",1,"[0.7851939890533686, 0.8971462019253522, 1.0010683299042284, 1.1452013039961457, 1.3290958600118756]",1747.5406652581878,None,1747.5404753893613,1747.640698854113,,,,,,,,,,,,s209_03102023,001,2023_Mar_10_1257,test_typingtask_norepeats,2020.2.10,59.93563907171573,
kremp,kremp,,,,,0,90,90,90,,,,,,,,1753.0404416159727,None,"['k', 'r', 'e', 'm', 'p']",1,"[0.8533863220363855, 0.9173077358864248, 0.9973764189053327, 1.085281094070524, 1.2214114980306476]",1753.0404416159727,None,1753.040513584297,1753.1405120540876,,,,,,,,,,,,s209_03102023,001,2023_Mar_10_1257,test_typingtask_norepeats,2020.2.10,59.93563907171573,
tithe,tithe,,,,,0,91,91,91,,,,,,,,1758.540308241034,None,"['t', 'i', 't', 'h', 'e']",1,"[1.025500610936433, 1.089468281948939, 1.2655316600576043, 1.3934344321023673, 1.5615575129631907]",1758.540308241034,None,1758.540378792351,1758.6404776971322,,,,,,,,,,,,s209_03102023,001,2023_Mar_10_1257,test_typingtask_norepeats,2020.2.10,59.93563907171573,
pykka,pykka,,,,,0,92,92,92,,,,,,,,1764.0402708239853,None,"['p', 'y', 'k', 'k', 'a']",1,"[0.8695816439576447, 1.2934689009562135, 1.6215710698161274, 1.75757513102144, 1.853572407970205]",1764.0402708239853,None,1764.0403668113518,1764.140406392049,,,,,,,,,,,,s209_03102023,001,2023_Mar_10_1257,test_typingtask_norepeats,2020.2.10,59.93563907171573,
heond,heond,,,,,0,93,93,93,,,,,,,,1769.5402794710826,None,"['h', 'e', 'o', 'n', 'd']",1,"[0.7375629250891507, 0.8495565140619874, 0.9135108760092407, 1.065524509176612, 1.1695670210756361]",1769.5402794710826,None,1769.5403522303327,1769.6405070449691,,,,,,,,,,,,s209_03102023,001,2023_Mar_10_1257,test_typingtask_norepeats,2020.2.10,59.93563907171573,
vodka,vodka,,,,,0,94,94,94,,,,,,,,1775.0402406321373,None,"['v', 'o', 'd', 'k', 'a']",1,"[0.8615775839425623, 1.2215684808325022, 1.3495991579256952, 1.4695168589241803, 1.8215190940536559]",1775.0402406321373,None,1775.0403922583441,1775.1404297261033,,,,,,,,,,,,s209_03102023,001,2023_Mar_10_1257,test_typingtask_norepeats,2020.2.10,59.93563907171573,
vanru,vanru,,,,,0,95,95,95,,,,,,,,1780.5403607559856,None,"['v', 'a', 'n', 'r', 'u']",1,"[0.8895606901496649, 0.969491238007322, 1.1293934411369264, 1.2254777930211276, 1.3134433380328119]",1780.5403607559856,None,1780.540388094168,1780.6405160150025,,,,,,,,,,,,s209_03102023,001,2023_Mar_10_1257,test_typingtask_norepeats,2020.2.10,59.93563907171573,
puppy,puppy,,,,,0,96,96,96,,,,,,,,1786.0404877690598,None,"['p', 'u', 'u', 'p', 'p', 'p', 'y']",0,"[0.8772929799742997, 1.0453302639070898, 1.213413453893736, 2.389370927819982, 2.493246508995071, 2.701241309987381, 2.9172411810141057]",1786.0404877690598,None,1786.0402797042857,1786.1404492331203,,,,,,,,,,,,s209_03102023,001,2023_Mar_10_1257,test_typingtask_norepeats,2020.2.10,59.93563907171573,
pykka,pykka,,,,,0,97,97,97,,,,,,,,1791.5405649130698,None,"['p', 'y', 'k', 'k', 'a']",1,"[0.9932098560966551, 1.1453112289309502, 1.3771936150733382, 1.5131987209897488, 1.6412871340289712]",1791.5405649130698,None,1791.5403565153479,1791.6405032360926,,,,,,,,,,,,s209_03102023,001,2023_Mar_10_1257,test_typingtask_norepeats,2020.2.10,59.93563907171573,
edthe,edthe,,,,,0,98,98,98,,,,,,,,1797.0405480090994,None,"['e', 'd', 't', 'h', 'e']",1,"[1.0532965259626508, 1.125283553963527, 1.2613196708261967, 1.46134540787898, 1.5572571069933474]",1797.0405480090994,None,1797.0405270153656,1797.1402867811266,,,,,,,,,,,,s209_03102023,001,2023_Mar_10_1257,test_typingtask_norepeats,2020.2.10,59.93563907171573,
would,would,,,,,0,99,99,99,,,,,,,,1802.5404566251673,None,"['w', 'o', 'u', 'l', 'd']",1,"[0.8093007390853018, 0.8812810590025038, 1.0093220199923962, 1.1853670019190758, 1.2734996220096946]",1802.5404566251673,None,1802.5405022792052,1802.64030167507,,,,,,,,,,,,s209_03102023,001,2023_Mar_10_1257,test_typingtask_norepeats,2020.2.10,59.93563907171573,
there,there,,,,,0,100,100,100,,,,,,,,1808.0405069421977,None,"['t', 'h', 'e', 'r', 'e']",1,"[0.7973101420793682, 0.8932544300332665, 0.981272601056844, 1.069345978088677, 1.2053364540915936]",1808.0405069421977,None,1808.0406018261797,1808.1404468121473,,,,,,,,,,,,s209_03102023,001,2023_Mar_10_1257,test_typingtask_norepeats,2020.2.10,59.93563907171573,
would,would,,,,,0,101,101,101,,,,,,,,1813.54055302497,None,"['w', 'p', 'u', 'l', 'd']",0,"[0.7212987099774182, 0.9053060919977725, 1.049291995819658, 1.6332479249686003, 1.8572615860030055]",1813.54055302497,None,1813.5406609933357,1813.640543847112,,,,,,,,,,,,s209_03102023,001,2023_Mar_10_1257,test_typingtask_norepeats,2020.2.10,59.93563907171573,
druze,druze,,,,,0,102,102,102,,,,,,,,1819.040496155154,None,"['d', 'r', 'u', 'z', 'e']",1,"[0.7492950509767979, 0.9092322990763932, 1.0132484959904104, 1.1653113740030676, 1.3812291289214045]",1819.040496155154,None,1819.0406142032239,1819.1405227181967,,,,,,,,,,,,s209_03102023,001,2023_Mar_10_1257,test_typingtask_norepeats,2020.2.10,59.93563907171573,
therm,therm,,,,,0,103,103,103,,,,,,,,1824.5404353439808,None,"['t', 'h', 'e', 'r', 'm']",1,"[0.8893584799952805, 1.0172940611373633, 1.0813606809824705, 1.1293197330087423, 1.2813419359736145]",1824.5404353439808,None,1824.5405932873487,1824.6405980121344,,,,,,,,,,,,s209_03102023,001,2023_Mar_10_1257,test_typingtask_norepeats,2020.2.10,59.93563907171573,
pykka,pykka,,,,,0,104,104,104,,,,,,,,1830.0404465210158,None,"['p', 'y', 'k', 'k', 'a']",1,"[1.021405944833532, 1.2133370318915695, 1.5092814147938043, 1.6293548608664423, 1.829316415823996]",1830.0404465210158,None,1830.040405011177,1830.1406073810067,,,,,,,,,,,,s209_03102023,001,2023_Mar_10_1257,test_typingtask_norepeats,2020.2.10,59.93563907171573,
about,about,,,,,0,105,105,105,,,,,,,,1835.5404759449884,None,"['a', 'b', 'o', 'u', 't']",1,"[0.8813049530144781, 0.9373378311283886, 1.169330342207104, 1.2893782760947943, 1.3932631460484117]",1835.5404759449884,None,1835.5404981501865,1835.6405778070912,,,,,,,,,,,,s209_03102023,001,2023_Mar_10_1257,test_typingtask_norepeats,2020.2.10,59.93563907171573,
therm,therm,,,,,0,106,106,106,,,,,,,,1841.040484274039,None,"['t', 'h', 'e', 'r', 'm']",1,"[0.7333515831269324, 0.8453231710009277, 0.9093193190637976, 0.9812571611255407, 1.1012442831415683]",1841.040484274039,None,1841.0404625222086,1841.1404437650926,,,,,,,,,,,,s209_03102023,001,2023_Mar_10_1257,test_typingtask_norepeats,2020.2.10,59.93563907171573,
there,there,,,,,0,107,107,107,,,,,,,,1846.5404258910567,None,"['t', 'h', 'e', 'r', 'e']",1,"[0.8494018488563597, 0.9614299698732793, 1.0813408808317035, 1.1453964679967612, 1.6413038498722017]",1846.5404258910567,None,1846.5405781072564,1846.6405849761795,,,,,,,,,,,,s209_03102023,001,2023_Mar_10_1257,test_typingtask_norepeats,2020.2.10,59.93563907171573,
cooed,cooed,,,,,0,108,108,108,,,,,,,,1852.040536059998,None,"['c', 'o', 'o', 'e', 'd']",1,"[0.7332642588298768, 0.869263979839161, 0.9973196929786354, 1.1253095399588346, 1.2613207018002868]",1852.040536059998,None,1852.040523998346,1852.1406627791002,,,,,,,,,,,,s209_03102023,001,2023_Mar_10_1257,test_typingtask_norepeats,2020.2.10,59.93563907171573,
tithe,tithe,,,,,0,109,109,109,,,,,,,,1857.5405304911546,None,"['t', 'i', 't', 'h', 'e']",1,"[0.8653177418746054, 0.9452774859964848, 1.049344461876899, 1.1373167089186609, 1.225352904992178]",1857.5405304911546,None,1857.5405143351759,1857.6408329261467,,,,,,,,,,,,s209_03102023,001,2023_Mar_10_1257,test_typingtask_norepeats,2020.2.10,59.93563907171573,
cooed,cooed,,,,,0,110,110,110,,,,,,,,1863.0406296460424,None,"['c', 'o', 'o', 'e', 'd']",1,"[0.7412209941539913, 0.8852194021455944, 1.0291864280588925, 1.1491659260354936, 1.237177211092785]",1863.0406296460424,None,1863.040339947352,1863.1408474070486,,,,,,,,,,,,s209_03102023,001,2023_Mar_10_1257,test_typingtask_norepeats,2020.2.10,59.93563907171573,
zibja,zibja,,,,,0,111,111,111,,,,,,,,1868.5409998469986,None,"['z', 'i', 'b', 'j', 'a']",1,"[0.9848521519452333, 1.0488373939879239, 1.2328361228574067, 1.3927325799595565, 1.480779079021886]",1868.5409998469986,None,1868.540464299172,1868.6405135639943,,,,,,,,,,,,s209_03102023,001,2023_Mar_10_1257,test_typingtask_norepeats,2020.2.10,59.93563907171573,
champ,champ,,,,,0,112,112,112,,,,,,,,1874.0406257510185,None,"['c', 'h', 'a', 'm', 'p']",1,"[0.7331956820562482, 0.8051792201586068, 0.8771607591770589, 1.0291351871564984, 1.2211610791273415]",1874.0406257510185,None,1874.040608496312,1874.140419417061,,,,,,,,,,,,s209_03102023,001,2023_Mar_10_1257,test_typingtask_norepeats,2020.2.10,59.93563907171573,
haole,haole,,,,,0,113,113,113,,,,,,,,1879.5404542721808,None,"['h', 'a', 'o', 'l', 'e']",1,"[0.7772711459547281, 0.8732998110353947, 0.9853771470952779, 1.1613813189323992, 1.2493628000374883]",1879.5404542721808,None,1879.5406934021971,1879.640354613075,,,,,,,,,,,,s209_03102023,001,2023_Mar_10_1257,test_typingtask_norepeats,2020.2.10,59.93563907171573,
heond,heond,,,,,0,114,114,114,,,,,,,,1885.0406307561789,None,"['h', 'e', 'o', 'n', 'd']",1,"[0.7170826448127627, 0.8052144008688629, 0.909250171855092, 1.085215925006196, 1.1651640669442713]",1885.0406307561789,None,1885.0407295412383,1885.1405825810507,,,,,,,,,,,,s209_03102023,001,2023_Mar_10_1257,test_typingtask_norepeats,2020.2.10,59.93563907171573,
tithe,tithe,,,,,0,115,115,115,,,,,,,,1890.5408038720489,None,"['t', 'i', 't', 'h', 'e']",1,"[0.7769731429871172, 0.841046113986522, 0.9530355050228536, 1.0250507721211761, 1.1129605430178344]",1890.5408038720489,None,1890.540592217259,1890.6406966759823,,,,,,,,,,,,s209_03102023,001,2023_Mar_10_1257,test_typingtask_norepeats,2020.2.10,59.93563907171573,
cheer,cheer,,,,,0,116,116,116,,,,,,,,1896.0405657081865,None,"['c', 'h', 'e', 'e', 'r']",1,"[0.7572964360006154, 0.8772243161220104, 0.9972553651314229, 1.1572876330465078, 1.4931808209512383]",1896.0405657081865,None,1896.040742342267,1896.1406994829886,,,,,,,,,,,,s209_03102023,001,2023_Mar_10_1257,test_typingtask_norepeats,2020.2.10,59.93563907171573,
theme,theme,,,,,0,117,117,117,,,,,,,,1901.5405250540935,None,"['t', 'h', 'e', 'm', 'e']",1,"[0.6652914900332689, 0.8973209820687771, 1.0251971501857042, 1.1372789461165667, 1.2572205720935017]",1901.5405250540935,None,1901.540613162238,1901.640547765186,,,,,,,,,,,,s209_03102023,001,2023_Mar_10_1257,test_typingtask_norepeats,2020.2.10,59.93563907171573,
cheer,cheer,,,,,0,118,118,118,,,,,,,,1907.040496346075,None,"['c', 'h', 'e', 'e', 'r']",1,"[0.5653362621087581, 0.7172326031140983, 0.8213309040293097, 0.989355196012184, 1.101233224151656]",1907.040496346075,None,1907.040581073286,1907.1406484299805,,,,,,,,,,,,s209_03102023,001,2023_Mar_10_1257,test_typingtask_norepeats,2020.2.10,59.93563907171573,
champ,champ,,,,,0,119,119,119,,,,,,,,1912.5405583430547,None,"['c', 'h', 'a', 'm', 'p']",1,"[0.6492796679958701, 0.8332858739886433, 0.9452546071261168, 1.0892892461270094, 1.2812406371813267]",1912.5405583430547,None,1912.540555188339,1912.640871545067,,,,,,,,,,,,s209_03102023,001,2023_Mar_10_1257,test_typingtask_norepeats,2020.2.10,59.93563907171573,
champ,champ,,,,,,,,,0,0,0,0,,,,,,,,,,,,,1918.0403867370915,None,1990.4308659881353,None,"['c', 'h', 'a', 'm', 'o', 'p']",0,"[0.9669558440800756, 1.0309456270188093, 1.1429510300513357, 1.2629350379575044, 1.4309620289132, 1.4549736340995878]",1990.4308659881353,None,1990.424173439294,1990.5242185641546,s209_03102023,001,2023_Mar_10_1257,test_typingtask_norepeats,2020.2.10,59.93563907171573,
pykka,pykka,,,,,,,,,0,1,1,1,,,,,,,,,,,,,,,1995.9572964850813,None,"['p', 'y', 'k', 'k', 'a']",1,"[1.0004347728099674, 1.2325287328567356, 1.4964732800144702, 1.624557764036581, 1.8164768998976797]",1995.9572964850813,None,1995.9573867361992,1996.0572140181903,s209_03102023,001,2023_Mar_10_1257,test_typingtask_norepeats,2020.2.10,59.93563907171573,
there,there,,,,,,,,,0,2,2,2,,,,,,,,,,,,,,,2001.457374162972,None,"['t', 'h', 'e', 'r', 'e']",1,"[0.7884021119680256, 0.892334870994091, 0.9804026470519602, 1.0523977070115507, 1.5404687100090086]",2001.457374162972,None,2001.4574371403082,2001.5576397480909,s209_03102023,001,2023_Mar_10_1257,test_typingtask_norepeats,2020.2.10,59.93563907171573,
pykka,pykka,,,,,,,,,0,3,3,3,,,,,,,,,,,,,,,2006.957545725163,None,"['p', 'y', 'k', 'k', 'a']",1,"[0.8722957170102745, 1.1362947369925678, 1.3601675620302558, 1.4962066859006882, 1.7121959130745381]",2006.957545725163,None,2006.9576622202526,2007.0574343290646,s209_03102023,001,2023_Mar_10_1257,test_typingtask_norepeats,2020.2.10,59.93563907171573,
faqir,faqir,,,,,,,,,0,4,4,4,,,,,,,,,,,,,,,2012.4576167271007,None,"['f', 'a', 'w', 'i', 'r']",0,"[0.9562349759507924, 1.0841186200268567, 1.4761196780018508, 1.6362208919599652, 1.7961894588079304]",2012.4576167271007,None,2012.4575308772269,2012.5573627750855,s209_03102023,001,2023_Mar_10_1257,test_typingtask_norepeats,2020.2.10,59.93563907171573,
therm,therm,,,,,,,,,0,5,5,5,,,,,,,,,,,,,,,2017.957368265139,None,"['t', 'h', 'e', 'r', 'm']",1,"[0.8164642620831728, 0.9204334190580994, 1.0004440220072865, 1.0404725119005889, 1.168356107082218]",2017.957368265139,None,2017.957578512281,2018.0577628451865,s209_03102023,001,2023_Mar_10_1257,test_typingtask_norepeats,2020.2.10,59.93563907171573,
kremp,kremp,,,,,,,,,0,6,6,6,,,,,,,,,,,,,,,2023.4573764270172,None,"['k', 'r', 'e', 'm', 'p']",1,"[0.9404763600323349, 1.004351187031716, 1.08435407304205, 1.204453334910795, 1.3804629780352116]",2023.4573764270172,None,2023.457335151173,2023.5573361301795,s209_03102023,001,2023_Mar_10_1257,test_typingtask_norepeats,2020.2.10,59.93563907171573,
therm,therm,,,,,,,,,0,7,7,7,,,,,,,,,,,,,,,2028.9572884920053,None,"['t', 'h', 'e', 'r', 'm']",1,"[0.736495252000168, 0.8165258259978145, 0.9045235419180244, 0.9844403839670122, 1.120545692043379]",2028.9572884920053,None,2028.9574558752588,2029.0574403300416,s209_03102023,001,2023_Mar_10_1257,test_typingtask_norepeats,2020.2.10,59.93563907171573,
tithe,tithe,,,,,,,,,0,8,8,8,,,,,,,,,,,,,,,2034.4572553730104,None,"['t', 'i', 't', 'h', 'e']",1,"[0.7805671519599855, 0.8445270198863, 0.9484860999509692, 1.0445690390188247, 1.1165603550616652]",2034.4572553730104,None,2034.4573941502254,2034.5572798321955,s209_03102023,001,2023_Mar_10_1257,test_typingtask_norepeats,2020.2.10,59.93563907171573,
there,there,,,,,,,,,0,9,9,9,,,,,,,,,,,,,,,2039.9572091521695,None,"['t', 'h', 'e', 'r', 'e']",1,"[0.7686058490071446, 0.8725430469494313, 0.9366315929219127, 1.000500916969031, 1.144686084939167]",2039.9572091521695,None,2039.9574417403433,2040.05742724007,s209_03102023,001,2023_Mar_10_1257,test_typingtask_norepeats,2020.2.10,59.93563907171573,
vanru,vanru,,,,,,,,,0,10,10,10,,,,,,,,,,,,,,,2045.4575630610343,None,"['v', 'a', 'n', 'r', 'u']",1,"[0.8921538600698113, 0.9884245099965483, 1.1402814171742648, 1.236287489067763, 1.3482004671823233]",2045.4575630610343,None,2045.4573384582995,2045.5576178901829,s209_03102023,001,2023_Mar_10_1257,test_typingtask_norepeats,2020.2.10,59.93563907171573,
cooed,cooed,,,,,,,,,0,11,11,11,,,,,,,,,,,,,,,2050.957539580064,None,"['c', 'o', 'o', 'e', 'd']",1,"[0.6722513409331441, 0.7681914018467069, 0.9041887200437486, 0.9841912370175123, 1.0723131198901683]",2050.957539580064,None,2050.9573381241876,2051.057451289147,s209_03102023,001,2023_Mar_10_1257,test_typingtask_norepeats,2020.2.10,59.93563907171573,
heond,heond,,,,,,,,,0,12,12,12,,,,,,,,,,,,,,,2056.457557443995,None,"['h', 'e', 'o', 'n', 'd']",1,"[0.7882976429536939, 0.8523095778655261, 0.9722386947833002, 1.1083073569461703, 1.2042054738849401]",2056.457557443995,None,2056.4573192672337,2056.557359826984,s209_03102023,001,2023_Mar_10_1257,test_typingtask_norepeats,2020.2.10,59.93563907171573,
puppy,puppy,,,,,,,,,0,13,13,13,,,,,,,,,,,,,,,2061.9575671469793,None,"['p', 'u', 'p', 'p', 'y']",1,"[1.0562785458751023, 1.2561808989848942, 1.464210978941992, 1.6002010859083384, 1.7921695639379323]",2061.9575671469793,None,2061.9574919353704,2062.0574441631325,s209_03102023,001,2023_Mar_10_1257,test_typingtask_norepeats,2020.2.10,59.93563907171573,
theme,theme,,,,,,,,,0,14,14,14,,,,,,,,,,,,,,,2067.457433980191,None,"['t', 'h', 'e', 'r', 'm', 'e']",0,"[0.7163850609213114, 0.772369674872607, 0.8763016778975725, 0.9723599047865719, 1.0682984909508377, 2.4043712478596717]",2067.457433980191,None,2067.457517346274,2067.5576653720345,s209_03102023,001,2023_Mar_10_1257,test_typingtask_norepeats,2020.2.10,59.93563907171573,
edthe,edthe,,,,,,,,,0,15,15,15,,,,,,,,,,,,,,,2072.95748030697,None,"['e', 'd', 't', 'h', 'e']",1,"[0.8482615791726857, 0.920360742136836, 1.0483397401403636, 1.200258030090481, 1.2963451950345188]",2072.95748030697,None,2072.957435341226,2073.0573085010983,s209_03102023,001,2023_Mar_10_1257,test_typingtask_norepeats,2020.2.10,59.93563907171573,
lucky,lucky,,,,,,,,,0,16,16,16,,,,,,,,,,,,,,,2078.457595541142,None,"['l', 'u', 'c', 'k', 'y']",1,"[0.8362444329541177, 1.0282323940191418, 1.1322055999189615, 1.244283827021718, 1.4282805509865284]",2078.457595541142,None,2078.4576512231956,2078.55754191312,s209_03102023,001,2023_Mar_10_1257,test_typingtask_norepeats,2020.2.10,59.93563907171573,
would,would,,,,,,,,,0,17,17,17,,,,,,,,,,,,,,,2083.957764740102,None,"['w', 'o', 'u', 'l', 'd']",1,"[0.7280751150101423, 0.8080440068151802, 0.9441187249030918, 1.120118723018095, 1.19203568296507]",2083.957764740102,None,2083.9574988201725,2084.0575221031904,s209_03102023,001,2023_Mar_10_1257,test_typingtask_norepeats,2020.2.10,59.93563907171573,
faqir,faqir,,,,,,,,,0,18,18,18,,,,,,,,,,,,,,,2089.457584024174,None,"['f', 'a', 'q', 'i', 'r']",1,"[0.9001720449887216, 1.0282166867982596, 1.2761413909029216, 1.380225595785305, 1.6601312118582428]",2089.457584024174,None,2089.457507325243,2089.5575488691684,s209_03102023,001,2023_Mar_10_1257,test_typingtask_norepeats,2020.2.10,59.93563907171573,
think,think,,,,,,,,,0,19,19,19,,,,,,,,,,,,,,,2094.95735969604,None,"['t', 'h', 'i', 'n', 'k']",1,"[0.8243703218176961, 0.8964161518961191, 1.0324731529690325, 1.2324763438664377, 1.4083964098244905]",2094.95735969604,None,2094.957621935196,2095.057588926051,s209_03102023,001,2023_Mar_10_1257,test_typingtask_norepeats,2020.2.10,59.93563907171573,
there,there,,,,,,,,,0,20,20,20,,,,,,,,,,,,,,,2100.4574880739674,None,"['t', 'h', 'e', 'r', 'e']",1,"[0.7243465359788388, 0.8042381049599499, 0.9083314298186451, 0.9883079179562628, 1.1482520159333944]",2100.4574880739674,None,2100.457540154364,2100.5575220549945,s209_03102023,001,2023_Mar_10_1257,test_typingtask_norepeats,2020.2.10,59.93563907171573,
would,would,,,,,,,,,0,21,21,21,,,,,,,,,,,,,,,2105.957447977038,None,"['w', 'o', 'u', 'l', 'd']",1,"[0.8083067599218339, 0.8804365200921893, 1.032393764005974, 1.2163933000992984, 1.2963675470091403]",2105.957447977038,None,2105.9574838333297,2106.05751323211,s209_03102023,001,2023_Mar_10_1257,test_typingtask_norepeats,2020.2.10,59.93563907171573,
vodka,vodka,,,,,,,,,0,22,22,22,,,,,,,,,,,,,,,2111.457483201055,None,"['v', 'o', 'd', 'k', 'a']",1,"[0.8443014989607036, 0.9323160229250789, 1.076256148982793, 1.204323346959427, 1.3083192280028015]",2111.457483201055,None,2111.4575496063567,2111.5578579630237,s209_03102023,001,2023_Mar_10_1257,test_typingtask_norepeats,2020.2.10,59.93563907171573,
cheer,cheer,,,,,,,,,0,23,23,23,,,,,,,,,,,,,,,2116.9574386621825,None,"['c', 'h', 'e', 'e', 'r']",1,"[0.7523865338880569, 0.8722951088566333, 0.976291777798906, 1.1603222559206188, 1.3523442358709872]",2116.9574386621825,None,2116.9575715012847,2117.0576446179766,s209_03102023,001,2023_Mar_10_1257,test_typingtask_norepeats,2020.2.10,59.93563907171573,
edthe,edthe,,,,,,,,,0,24,24,24,,,,,,,,,,,,,,,2122.4575697879773,None,"['e', 'd', 't', 'h', 'e']",1,"[0.828203157056123, 0.9162453880999237, 1.0122532590758055, 1.2041503679938614, 1.292166612111032]",2122.4575697879773,None,2122.4573800653684,2122.5574805701617,s209_03102023,001,2023_Mar_10_1257,test_typingtask_norepeats,2020.2.10,59.93563907171573,
cheer,cheer,,,,,,,,,0,25,25,25,,,,,,,,,,,,,,,2127.957617389038,None,"['c', 'h', 'e', 'e', 'r']",1,"[0.6721976320259273, 0.8082442681770772, 0.9043123919982463, 1.0722362441010773, 1.2082368740811944]",2127.957617389038,None,2127.9575261882505,2128.0580004611984,s209_03102023,001,2023_Mar_10_1257,test_typingtask_norepeats,2020.2.10,59.93563907171573,
about,about,,,,,,,,,0,26,26,26,,,,,,,,,,,,,,,2133.457595529966,None,"['a', 'b', 'o', 'u', 't']",1,"[0.8202548890840262, 0.8921728050336242, 1.0761321880854666, 1.228242393117398, 1.3162397670093924]",2133.457595529966,None,2133.4574698131996,2133.557533700019,s209_03102023,001,2023_Mar_10_1257,test_typingtask_norepeats,2020.2.10,59.93563907171573,
vodka,vodka,,,,,,,,,0,27,27,27,,,,,,,,,,,,,,,2138.9575530590955,None,"['v', 'o', 'd', 'k', 'a']",1,"[0.968293271958828, 1.0322524830698967, 1.1682386680040509, 1.3122846418991685, 1.4002870470285416]",2138.9575530590955,None,2138.957631006278,2139.057472669054,s209_03102023,001,2023_Mar_10_1257,test_typingtask_norepeats,2020.2.10,59.93563907171573,
pykka,pykka,,,,,,,,,0,28,28,28,,,,,,,,,,,,,,,2144.4576725191437,None,"['p', 'y', 'k', 'k', 'a']",1,"[1.2281765108928084, 1.4201723749283701, 1.6601045378483832, 1.804047985933721, 1.9001220299396664]",2144.4576725191437,None,2144.457698752312,2144.5574560370296,s209_03102023,001,2023_Mar_10_1257,test_typingtask_norepeats,2020.2.10,59.93563907171573,
lucky,lucky,,,,,,,,,0,29,29,29,,,,,,,,,,,,,,,2149.957769641187,None,"['l', 'u', 'c', 'k', 'y']",1,"[0.8559719289187342, 1.0000636919867247, 1.1120932498015463, 1.2160617969930172, 1.375962171005085]",2149.957769641187,None,2149.9576110121793,2150.0580376849975,s209_03102023,001,2023_Mar_10_1257,test_typingtask_norepeats,2020.2.10,59.93563907171573,
tithe,tithe,,,,,,,,,0,30,30,30,,,,,,,,,,,,,,,2155.457758698147,None,"['t', 'i', 't', 'h', 'e']",1,"[0.8200366660021245, 0.8919566450640559, 0.9960129009559751, 1.059955578064546, 1.1480109570547938]",2155.457758698147,None,2155.4577441992237,2155.557558478089,s209_03102023,001,2023_Mar_10_1257,test_typingtask_norepeats,2020.2.10,59.93563907171573,
theme,theme,,,,,,,,,0,31,31,31,,,,,,,,,,,,,,,2160.9574853491504,None,"['t', 'h', 'e', 'm', 'e']",1,"[0.8002462789881974, 0.8643198839854449, 0.9682464399375021, 1.11231162189506, 1.2323197301011533]",2160.9574853491504,None,2160.9576277971732,2161.0574431139976,s209_03102023,001,2023_Mar_10_1257,test_typingtask_norepeats,2020.2.10,59.93563907171573,
heond,heond,,,,,,,,,0,32,32,32,,,,,,,,,,,,,,,2166.457794977119,None,"['h', 'e', 'o', 'n', 'd']",1,"[0.7080594040453434, 0.7800213259179145, 0.883938946062699, 1.0439885470550507, 1.1400107298977673]",2166.457794977119,None,2166.4577457172795,2166.558123018127,s209_03102023,001,2023_Mar_10_1257,test_typingtask_norepeats,2020.2.10,59.93563907171573,
zibja,zibja,,,,,,,,,0,33,33,33,,,,,,,,,,,,,,,2171.957538620103,None,"['z', 'i', 'b', 'a', 'j']",0,"[0.9681931610684842, 1.02426801295951, 1.2001728010363877, 1.3682173369452357, 1.392225017072633]",2171.957538620103,None,2171.957742249267,2172.057829368161,s209_03102023,001,2023_Mar_10_1257,test_typingtask_norepeats,2020.2.10,59.93563907171573,
druze,druze,,,,,,,,,0,34,34,34,,,,,,,,,,,,,,,2177.4575329059735,None,"['d', 'r', 'u', 'z', 'e']",1,"[0.8522905560676008, 1.004260176094249, 1.1002777582034469, 1.2522618130315095, 1.452273331116885]",2177.4575329059735,None,2177.457687110314,2177.557825413998,s209_03102023,001,2023_Mar_10_1257,test_typingtask_norepeats,2020.2.10,59.93563907171573,
tithe,tithe,,,,,,,,,0,35,35,35,,,,,,,,,,,,,,,2182.9575499810744,None,"['t', 'i', 't', 'h', 'e']",1,"[0.7122965781018138, 0.7922413051128387, 0.9041824981104583, 0.952289765002206, 1.0721722531598061]",2182.9575499810744,None,2182.9575881393625,2183.0576959340833,s209_03102023,001,2023_Mar_10_1257,test_typingtask_norepeats,2020.2.10,59.93563907171573,
zibja,zibja,,,,,,,,,0,36,36,36,,,,,,,,,,,,,,,2188.4576489431784,None,"['z', 'i', 'b', 'j', 'a']",1,"[0.7321851050946862, 0.7801945970859379, 0.9802005121018738, 1.2121592741459608, 1.3161242671776563]",2188.4576489431784,None,2188.457728644274,2188.5576800010167,s209_03102023,001,2023_Mar_10_1257,test_typingtask_norepeats,2020.2.10,59.93563907171573,
vanru,vanru,,,,,,,,,0,37,37,37,,,,,,,,,,,,,,,2193.9576819590293,None,"['v', 'a', 'n', 'r', 'u']",1,"[0.8881159678567201, 0.9760539720300585, 1.1120556849054992, 1.1921051999088377, 1.2721744070295244]",2193.9576819590293,None,2193.957586013386,2194.0579973610584,s209_03102023,001,2023_Mar_10_1257,test_typingtask_norepeats,2020.2.10,59.93563907171573,
think,think,,,,,,,,,0,38,38,38,,,,,,,,,,,,,,,2199.4576783790253,None,"['t', 'h', 'i', 'n', 'k']",1,"[0.6840477879159153, 0.7641518888995051, 0.8520934809930623, 1.020133428974077, 1.1801174748688936]",2199.4576783790253,None,2199.4577780043705,2199.5578651851974,s209_03102023,001,2023_Mar_10_1257,test_typingtask_norepeats,2020.2.10,59.93563907171573,
druze,druze,,,,,,,,,0,39,39,39,,,,,,,,,,,,,,,2204.9576317390893,None,"['d', 'u', 'r', 'e', 'z', 'e']",0,"[0.8321698280051351, 0.9761173580773175, 0.9920869960915297, 1.000212165992707, 1.2162034811917692, 1.456101288087666]",2204.9576317390893,None,2204.957525548199,2205.0577183309942,s209_03102023,001,2023_Mar_10_1257,test_typingtask_norepeats,2020.2.10,59.93563907171573,
buddy,buddy,,,,,,,,,0,40,40,40,,,,,,,,,,,,,,,2210.4576930990443,None,"['b', 'u', 'd', 'd', 'y']",1,"[0.940065500093624, 1.0360890419688076, 1.1881622709333897, 1.3241750970482826, 1.4121657928917557]",2210.4576930990443,None,2210.4576562472153,2210.5574477801565,s209_03102023,001,2023_Mar_10_1257,test_typingtask_norepeats,2020.2.10,59.93563907171573,
druze,druze,,,,,,,,,0,41,41,41,,,,,,,,,,,,,,,2215.9578968270216,None,"['d', 'f', 'r', 'u', 'z', 'e']",0,"[0.7039294249843806, 0.7199347200803459, 1.263891912996769, 1.3919126139953732, 1.6319314460270107, 1.8478339919820428]",2215.9578968270216,None,2215.9576223773415,2216.0577800080646,s209_03102023,001,2023_Mar_10_1257,test_typingtask_norepeats,2020.2.10,59.93563907171573,
champ,champ,,,,,,,,,0,42,42,42,,,,,,,,,,,,,,,2221.4577774081845,None,"['c', 'h', 'a', 'm', 'p']",1,"[0.6759466889780015, 0.7641214849427342, 0.867957130074501, 1.020049192942679, 1.2200767248868942]",2221.4577774081845,None,2221.457657585293,2221.5575428691227,s209_03102023,001,2023_Mar_10_1257,test_typingtask_norepeats,2020.2.10,59.93563907171573,
about,about,,,,,,,,,0,43,43,43,,,,,,,,,,,,,,,2226.9576261499897,None,"['a', 'b', 'o', 'u', 't']",1,"[0.7281815658789128, 0.8002174468711019, 0.9840767518617213, 1.1202375579159707, 1.224088310962543]",2226.9576261499897,None,2226.9576572851743,2227.057677967008,s209_03102023,001,2023_Mar_10_1257,test_typingtask_norepeats,2020.2.10,59.93563907171573,
belly,belly,,,,,,,,,0,44,44,44,,,,,,,,,,,,,,,2232.457678437,None,"['b', 'e', 'l', 'l', 'y']",1,"[0.8201316818594933, 0.9560808727983385, 1.0760206237901002, 1.220127773936838, 1.42010665894486]",2232.457678437,None,2232.4576542313675,2232.557946494082,s209_03102023,001,2023_Mar_10_1257,test_typingtask_norepeats,2020.2.10,59.93563907171573,
haole,haole,,,,,,,,,0,45,45,45,,,,,,,,,,,,,,,2237.9577359361574,None,"['h', 'a', 'o', 'l', 'e']",1,"[0.6800829709973186, 0.7839878599625081, 0.8960436158813536, 1.0960220419801772, 1.18409616779536]",2237.9577359361574,None,2237.9577807212713,2238.05760973203,s209_03102023,001,2023_Mar_10_1257,test_typingtask_norepeats,2020.2.10,59.93563907171573,
cooed,cooed,,,,,,,,,0,46,46,46,,,,,,,,,,,,,,,2243.457785340026,None,"['c', 'o', 'o', 'e', 'd']",1,"[0.6679639681242406, 0.8040022500790656, 0.9400681310798973, 1.0360536330845207, 1.1400269800797105]",2243.457785340026,None,2243.4577629532664,2243.5577095400076,s209_03102023,001,2023_Mar_10_1257,test_typingtask_norepeats,2020.2.10,59.93563907171573,
would,would,,,,,,,,,0,47,47,47,,,,,,,,,,,,,,,2248.9576585541945,None,"['w', 'o', 'u', 'l', 'd']",1,"[0.7760808849707246, 0.8401008890941739, 0.9680734700523317, 1.136180188972503, 1.2401610310189426]",2248.9576585541945,None,2248.957620559167,2249.057734319009,s209_03102023,001,2023_Mar_10_1257,test_typingtask_norepeats,2020.2.10,59.93563907171573,
puppy,puppy,,,,,,,,,0,48,48,48,,,,,,,,,,,,,,,2254.4577127860393,None,"['p', 'u', 'p', 'p', 'y']",1,"[1.084017255809158, 1.2520943069830537, 1.3241143089253455, 1.460018224781379, 1.6840184819884598]",2254.4577127860393,None,2254.457774059288,2254.55783907813,s209_03102023,001,2023_Mar_10_1257,test_typingtask_norepeats,2020.2.10,59.93563907171573,
think,think,,,,,,,,,0,49,49,49,,,,,,,,,,,,,,,2259.957600750029,None,"['t', 'h', 'i', 'n', 'k']",1,"[0.8242640041280538, 0.920245487941429, 1.0082545599434525, 1.2081398791633546, 1.344177708029747]",2259.957600750029,None,2259.9577939262613,2260.057824569987,s209_03102023,001,2023_Mar_10_1257,test_typingtask_norepeats,2020.2.10,59.93563907171573,
heond,heond,,,,,,,,,0,50,50,50,,,,,,,,,,,,,,,2265.457650794182,None,"['h', 'e', 'o', 'n', 'd']",1,"[0.7161856819875538, 0.8282443990465254, 0.9001907499041408, 1.0680946800857782, 1.17218959890306]",2265.457650794182,None,2265.457683427166,2265.557766797021,s209_03102023,001,2023_Mar_10_1257,test_typingtask_norepeats,2020.2.10,59.93563907171573,
belly,belly,,,,,,,,,0,51,51,51,,,,,,,,,,,,,,,2270.9576858109795,None,"['b', 'e', 'l', 'l', 'y']",1,"[0.6960387090221047, 0.78406046400778, 0.9120914270170033, 1.048070919001475, 1.232130548916757]",2270.9576858109795,None,2270.9575438281986,2271.0577226821333,s209_03102023,001,2023_Mar_10_1257,test_typingtask_norepeats,2020.2.10,59.93563907171573,
faqir,faqir,,,,,,,,,0,52,52,52,,,,,,,,,,,,,,,2276.457766357111,None,"['f', 'a', 'a', 'q', 'i', 'r']",0,"[0.9000741131603718, 1.1079711120110005, 2.1559869050979614, 2.3880289630033076, 2.580041255103424, 2.708077299175784]",2276.457766357111,None,2276.457730918331,2276.557871163124,s209_03102023,001,2023_Mar_10_1257,test_typingtask_norepeats,2020.2.10,59.93563907171573,
puppy,puppy,,,,,,,,,0,53,53,53,,,,,,,,,,,,,,,2281.957682054024,None,"['p', 'u', 'p', 'p', 'p', 'y']",0,"[1.0960763050243258, 1.1840485229622573, 1.2721768880728632, 1.3921781638637185, 1.6401107490528375, 1.8960790380369872]",2281.957682054024,None,2281.957759701321,2282.057649220107,s209_03102023,001,2023_Mar_10_1257,test_typingtask_norepeats,2020.2.10,59.93563907171573,
vodka,vodka,,,,,,,,,0,54,54,54,,,,,,,,,,,,,,,2287.457800860051,None,"['v', 'o', 'd', 'k', 'a']",1,"[0.8599569930229336, 0.9560330051463097, 1.0599551771301776, 1.1880184931214899, 1.2759305711369962]",2287.457800860051,None,2287.4578916091937,2287.5576191430446,s209_03102023,001,2023_Mar_10_1257,test_typingtask_norepeats,2020.2.10,59.93563907171573,
faqir,faqir,,,,,,,,,0,55,55,55,,,,,,,,,,,,,,,2292.957883710973,None,"['f', 'a', 'q', 'i', 'r']",1,"[0.9359623929485679, 1.1838485370390117, 1.8319487429689616, 2.0879195570014417, 2.247893742052838]",2292.957883710973,None,2292.957860883232,2293.057733462192,s209_03102023,001,2023_Mar_10_1257,test_typingtask_norepeats,2020.2.10,59.93563907171573,
kremp,kremp,,,,,,,,,0,56,56,56,,,,,,,,,,,,,,,2298.457915312145,None,"['k', 'r', 'e', 'm', 'p']",1,"[0.9958260690327734, 1.0438479490112513, 1.1079403460025787, 1.2279192840214819, 1.4199245769996196]",2298.457915312145,None,2298.457702912297,2298.5576999511104,s209_03102023,001,2023_Mar_10_1257,test_typingtask_norepeats,2020.2.10,59.93563907171573,
druze,druze,,,,,,,,,0,57,57,57,,,,,,,,,,,,,,,2303.957807866158,None,"['d', 'r', 'u', 'z', 'e']",1,"[0.9360268369782716, 1.079946564976126, 1.1920457899104804, 1.375913853989914, 1.7279980059247464]",2303.957807866158,None,2303.957815949246,2304.058174188016,s209_03102023,001,2023_Mar_10_1257,test_typingtask_norepeats,2020.2.10,59.93563907171573,
heond,heond,,,,,,,,,0,58,58,58,,,,,,,,,,,,,,,2309.457876738161,None,"['h', 'e', 'o', 'n', 'd']",1,"[0.7799409360159189, 0.8598606379237026, 0.9559144170489162, 1.1319489129818976, 1.243869303027168]",2309.457876738161,None,2309.4578509332146,2309.557869735174,s209_03102023,001,2023_Mar_10_1257,test_typingtask_norepeats,2020.2.10,59.93563907171573,
tithe,tithe,,,,,,,,,0,59,59,59,,,,,,,,,,,,,,,2314.95777694718,None,"['t', 'i', 't', 'h', 'e']",1,"[0.8080644831061363, 0.8799900570884347, 0.975943161174655, 1.0640645341482013, 1.1360633422154933]",2314.95777694718,None,2314.957796375174,2315.057783502154,s209_03102023,001,2023_Mar_10_1257,test_typingtask_norepeats,2020.2.10,59.93563907171573,
buddy,buddy,,,,,,,,,0,60,60,60,,,,,,,,,,,,,,,2320.457760371035,None,"['b', 'u', 'd', 'd', 'y']",1,"[0.8919678200036287, 1.0040747250895947, 1.1400786091107875, 1.2839828161522746, 1.388096536975354]",2320.457760371035,None,2320.4577912452164,2320.55787447514,s209_03102023,001,2023_Mar_10_1257,test_typingtask_norepeats,2020.2.10,59.93563907171573,
there,there,,,,,,,,,0,61,61,61,,,,,,,,,,,,,,,2325.9576795061585,None,"['t', 'h', 'e', 'r', 'e']",1,"[0.6960647918749601, 0.7922264558728784, 0.8641427019611001, 0.9600512958131731, 1.0881353749427944]",2325.9576795061585,None,2325.957779824175,2326.057983795181,s209_03102023,001,2023_Mar_10_1257,test_typingtask_norepeats,2020.2.10,59.93563907171573,
kremp,kremp,,,,,,,,,0,62,62,62,,,,,,,,,,,,,,,2331.4577925931662,None,"['k', 'r', 'e', 'm', 'p']",1,"[0.9560672820080072, 1.0280672621447593, 1.1080554781947285, 1.1880588689818978, 1.3720069939736277]",2331.4577925931662,None,2331.4579411613754,2331.558051630156,s209_03102023,001,2023_Mar_10_1257,test_typingtask_norepeats,2020.2.10,59.93563907171573,
therm,therm,,,,,,,,,0,63,63,63,,,,,,,,,,,,,,,2336.9578536981717,None,"['t', 'h', 'e', 'r', 'm']",1,"[0.639948365977034, 0.7518758978694677, 0.8159861639142036, 0.8720088328700513, 1.0239898478612304]",2336.9578536981717,None,2336.9579759572166,2337.0580779311713,s209_03102023,001,2023_Mar_10_1257,test_typingtask_norepeats,2020.2.10,59.93563907171573,
champ,champ,,,,,,,,,0,64,64,64,,,,,,,,,,,,,,,2342.4579511741176,None,"['c', 'h', 'a', 'm', 'p']",1,"[0.6998347740154713, 0.8038359750062227, 0.8998703609686345, 1.0518526809755713, 1.2518529989756644]",2342.4579511741176,None,2342.4575507283676,2342.557770715095,s209_03102023,001,2023_Mar_10_1257,test_typingtask_norepeats,2020.2.10,59.93563907171573,
buddy,buddy,,,,,,,,,0,65,65,65,,,,,,,,,,,,,,,2347.9577996151056,None,"['b', 'u', 'd', 'd', 'y']",1,"[0.8959176610223949, 1.0000498718582094, 1.1280034240335226, 1.264038264984265, 1.351927483920008]",2347.9577996151056,None,2347.957794127194,2348.0578452090267,s209_03102023,001,2023_Mar_10_1257,test_typingtask_norepeats,2020.2.10,59.93563907171573,
heond,heond,,,,,,,,,0,66,66,66,,,,,,,,,,,,,,,2353.457936033141,None,"['h', 'e', 'o', 'n', 'd']",1,"[0.6998974210582674, 0.7958241531159729, 0.8837951319292188, 1.0438284119591117, 1.139802270103246]",2353.457936033141,None,2353.4578643542714,2353.5579049549997,s209_03102023,001,2023_Mar_10_1257,test_typingtask_norepeats,2020.2.10,59.93563907171573,
zibja,zibja,,,,,,,,,0,67,67,67,,,,,,,,,,,,,,,2358.9578184771817,None,"['z', 'i', 'b', 'j', 'a']",1,"[0.9760028270538896, 1.0479740910232067, 1.2639869709964842, 1.4479068438522518, 1.536000655964017]",2358.9578184771817,None,2358.9579098023473,2359.0577977180947,s209_03102023,001,2023_Mar_10_1257,test_typingtask_norepeats,2020.2.10,59.93563907171573,
haole,haole,,,,,,,,,0,68,68,68,,,,,,,,,,,,,,,2364.4579337059986,None,"['h', 'a', 'o', 'l', 'e']",1,"[0.6919561820104718, 0.8118847559671849, 0.8998657299671322, 1.115897768177092, 1.1958186191041023]",2364.4579337059986,None,2364.457987121213,2364.5578352131415,s209_03102023,001,2023_Mar_10_1257,test_typingtask_norepeats,2020.2.10,59.93563907171573,
kremp,kremp,,,,,,,,,0,69,69,69,,,,,,,,,,,,,,,2369.958076708019,None,"['k', 'r', 'e', 'm', 'p']",1,"[0.8637611430604011, 0.9117181629408151, 1.0077649359591305, 1.1037438351195306, 1.263745228992775]",2369.958076708019,None,2369.9580108603927,2370.0581048741005,s209_03102023,001,2023_Mar_10_1257,test_typingtask_norepeats,2020.2.10,59.93563907171573,
zibja,zibja,,,,,,,,,0,70,70,70,,,,,,,,,,,,,,,2375.4581484990194,None,"['z', 'i', 'b', 'j', 'a']",1,"[1.5555883361957967, 1.6356948229949921, 1.8036761600524187, 1.9876179459970444, 2.0996840752195567]",2375.4581484990194,None,2375.457952641323,2375.557900971966,s209_03102023,001,2023_Mar_10_1257,test_typingtask_norepeats,2020.2.10,59.93563907171573,
lucky,lucky,,,,,,,,,0,71,71,71,,,,,,,,,,,,,,,2380.9578958870843,None,"['l', 'u', 'c', 'k', 'y']",1,"[0.8399439861532301, 0.9920038990676403, 1.127999815158546, 1.1999336599837989, 1.3598411150742322]",2380.9578958870843,None,2380.9579713061917,2381.05785217206,s209_03102023,001,2023_Mar_10_1257,test_typingtask_norepeats,2020.2.10,59.93563907171573,
haole,haole,,,,,,,,,0,72,72,72,,,,,,,,,,,,,,,2386.457910049008,None,"['h', 'a', 'o', 'l', 'e']",1,"[0.7318788359407336, 0.8118879911489785, 0.939940826036036, 1.1319229791406542, 1.2438149261288345]",2386.457910049008,None,2386.4579486333764,2386.55785064213,s209_03102023,001,2023_Mar_10_1257,test_typingtask_norepeats,2020.2.10,59.93563907171573,
champ,champ,,,,,,,,,0,73,73,73,,,,,,,,,,,,,,,2391.9578072261065,None,"['c', 'h', 'm', 'p']",0,"[0.7040149569511414, 0.7839160659350455, 1.0240493938326836, 1.2240469940006733]",2391.9578072261065,None,2391.9578929693903,2392.057892458979,s209_03102023,001,2023_Mar_10_1257,test_typingtask_norepeats,2020.2.10,59.93563907171573,
puppy,puppy,,,,,,,,,0,74,74,74,,,,,,,,,,,,,,,2397.4578394610435,None,"['p', 'u', 'p', 'p', 'y']",1,"[1.2120202060323209, 1.2679026131518185, 1.3880137279629707, 1.5240105399861932, 1.8040202630218118]",2397.4578394610435,None,2397.457860028278,2397.557895677164,s209_03102023,001,2023_Mar_10_1257,test_typingtask_norepeats,2020.2.10,59.93563907171573,
tithe,tithe,,,,,,,,,0,75,75,75,,,,,,,,,,,,,,,2402.9579028321896,None,"['t', 'i', 't', 'h', 'e']",1,"[0.8319294389802963, 0.8958935448899865, 0.9919603290036321, 1.079913318855688, 1.1678405238781124]",2402.9579028321896,None,2402.9580123411956,2403.0579801180866,s209_03102023,001,2023_Mar_10_1257,test_typingtask_norepeats,2020.2.10,59.93563907171573,
theme,theme,,,,,,,,,0,76,76,76,,,,,,,,,,,,,,,2408.4578673760407,None,"['t', 'h', 'e', 'm', 'e']",1,"[0.7879493059590459, 0.867864805040881, 0.9719248879700899, 1.0999696149956435, 1.2199767190031707]",2408.4578673760407,None,2408.4580126902088,2408.5584057951346,s209_03102023,001,2023_Mar_10_1257,test_typingtask_norepeats,2020.2.10,59.93563907171573,
think,think,,,,,,,,,0,77,77,77,,,,,,,,,,,,,,,2413.9579915259965,None,"['t', 'h', 'i', 'n', 'k']",1,"[0.8319570128805935, 0.9117634408175945, 1.047707743011415, 1.2237158508505672, 1.3676991229876876]",2413.9579915259965,None,2413.957819022378,2414.0579305321444,s209_03102023,001,2023_Mar_10_1257,test_typingtask_norepeats,2020.2.10,59.93563907171573,
cheer,cheer,,,,,,,,,0,78,78,78,,,,,,,,,,,,,,,2419.457994341152,None,"['c', 'h', 'e', 'e', 'r']",1,"[0.6998413738328964, 0.8358508758246899, 0.9398449428845197, 1.107725683832541, 1.2518281629309058]",2419.457994341152,None,2419.4579329673666,2419.5579082879703,s209_03102023,001,2023_Mar_10_1257,test_typingtask_norepeats,2020.2.10,59.93563907171573,
pykka,pykka,,,,,,,,,0,79,79,79,,,,,,,,,,,,,,,2424.958043560153,None,"['p', 'y', 'k', 'k', 'a']",1,"[1.2637778299394995, 1.3596850170288235, 1.4876892371103168, 1.6158514560665935, 1.7118070959113538]",2424.958043560153,None,2424.957905759243,2425.057895987993,s209_03102023,001,2023_Mar_10_1257,test_typingtask_norepeats,2020.2.10,59.93563907171573,
buddy,buddy,,,,,,,,,0,80,80,80,,,,,,,,,,,,,,,2430.4581112600863,None,"['b', 'u', 'd', 'd', 'y']",1,"[0.9396485020406544, 1.03573438199237, 1.1797171430662274, 1.3237312161363661, 1.387681496096775]",2430.4581112600863,None,2430.458054199256,2430.557814951986,s209_03102023,001,2023_Mar_10_1257,test_typingtask_norepeats,2020.2.10,59.93563907171573,
theme,theme,,,,,,,,,0,81,81,81,,,,,,,,,,,,,,,2435.9581420081668,None,"['t', 'h', 'e', 'm', 'e']",1,"[0.8476554749067873, 0.9515885699074715, 1.0636998498812318, 1.1915964249055833, 1.3036768247839063]",2435.9581420081668,None,2435.9580539973917,2436.0578395191114,s209_03102023,001,2023_Mar_10_1257,test_typingtask_norepeats,2020.2.10,59.93563907171573,
vanru,vanru,,,,,,,,,0,82,82,82,,,,,,,,,,,,,,,2441.4580340429675,None,"['v', 'a', 'n', 'r', 'u']",1,"[0.9318592338822782, 1.0517041250132024, 1.1877778000198305, 1.3157989508472383, 1.403818996855989]",2441.4580340429675,None,2441.457838665368,2441.5581686990336,s209_03102023,001,2023_Mar_10_1257,test_typingtask_norepeats,2020.2.10,59.93563907171573,
cheer,cheer,,,,,,,,,0,83,83,83,,,,,,,,,,,,,,,2446.9581406230573,None,"['c', 'h', 'e', 'e', 'r']",1,"[0.6557215768843889, 0.7915758178569376, 0.8955927940551192, 1.0877136108465493, 1.231691475957632]",2446.9581406230573,None,2446.957933207182,2447.058261911152,s209_03102023,001,2023_Mar_10_1257,test_typingtask_norepeats,2020.2.10,59.93563907171573,
vodka,vodka,,,,,,,,,0,84,84,84,,,,,,,,,,,,,,,2452.45808490715,None,"['v', 'o', 'd', 'k', 'a']",1,"[0.899846084183082, 1.0197545611299574, 1.1397621191572398, 1.2436362840235233, 1.347679556114599]",2452.45808490715,None,2452.45804737336,2452.5584776010364,s209_03102023,001,2023_Mar_10_1257,test_typingtask_norepeats,2020.2.10,59.93563907171573,
vanru,vanru,,,,,,,,,0,85,85,85,,,,,,,,,,,,,,,2457.9580369531177,None,"['v', 'a', 'n', 'r', 'u']",1,"[0.8957698890008032, 0.9917649310082197, 1.1357770019676536, 1.2477405210956931, 1.3516938081011176]",2457.9580369531177,None,2457.9581264093517,2458.057999953162,s209_03102023,001,2023_Mar_10_1257,test_typingtask_norepeats,2020.2.10,59.93563907171573,
there,there,,,,,,,,,0,86,86,86,,,,,,,,,,,,,,,2463.45795029914,None,"['t', 'h', 'e', 'r', 'e']",1,"[0.7158914138562977, 0.8038308420218527, 0.8998854409437627, 0.995759995887056, 1.1158360380213708]",2463.45795029914,None,2463.4581244463566,2463.55810698797,s209_03102023,001,2023_Mar_10_1257,test_typingtask_norepeats,2020.2.10,59.93563907171573,
faqir,faqir,,,,,,,,,0,87,87,87,,,,,,,,,,,,,,,2468.9579047600273,None,"['f', 'a', 'q', 'i', 'r']",1,"[0.8238915919791907, 0.9758493339177221, 1.367818732978776, 1.527873121900484, 1.6879087160341442]",2468.9579047600273,None,2468.9578440232667,2469.05813244218,s209_03102023,001,2023_Mar_10_1257,test_typingtask_norepeats,2020.2.10,59.93563907171573,
pykka,pykka,,,,,,,,,0,88,88,88,,,,,,,,,,,,,,,2474.4579296051525,None,"['p', 'y', 'k', 'k', 'a']",1,"[1.1639149021357298, 1.3478614350315183, 1.5798872739542276, 1.7078519761562347, 1.8358719239477068]",2474.4579296051525,None,2474.4580171572975,2474.5579916390125,s209_03102023,001,2023_Mar_10_1257,test_typingtask_norepeats,2020.2.10,59.93563907171573,
belly,belly,,,,,,,,,0,89,89,89,,,,,,,,,,,,,,,2479.958157496061,None,"['b', 'e', 'l', 'l', 'y']",1,"[0.7835705929901451, 0.9595732600428164, 1.0716979980934411, 1.2076920960098505, 1.4396445751190186]",2479.958157496061,None,2479.9580749582033,2480.0582706290297,s209_03102023,001,2023_Mar_10_1257,test_typingtask_norepeats,2020.2.10,59.93563907171573,
lucky,lucky,,,,,,,,,0,90,90,90,,,,,,,,,,,,,,,2485.4580012441147,None,"['l', 'u', 'c', 'k', 'y']",1,"[0.9238505370449275, 1.0918643809854984, 1.2278846038971096, 1.3238052919041365, 1.4918422859627753]",2485.4580012441147,None,2485.4580385942477,2485.5582342289854,s209_03102023,001,2023_Mar_10_1257,test_typingtask_norepeats,2020.2.10,59.93563907171573,
champ,champ,,,,,,,,,0,91,91,91,,,,,,,,,,,,,,,2490.957926078001,None,"['c', 'h', 'a', 'm', 'p']",1,"[0.7598083738703281, 0.8398814948741347, 0.9358572310302407, 1.0878672818653286, 1.2798163930419832]",2490.957926078001,None,2490.9579340372234,2491.058449597098,s209_03102023,001,2023_Mar_10_1257,test_typingtask_norepeats,2020.2.10,59.93563907171573,
haole,haole,,,,,,,,,0,92,92,92,,,,,,,,,,,,,,,2496.4583570421673,None,"['h', 'a', 'o', 'l', 'e']",1,"[0.8354102240409702, 0.9473787390161306, 1.075471276883036, 1.2673580970149487, 1.371432546991855]",2496.4583570421673,None,2496.4579130151774,2496.5590848680586,s209_03102023,001,2023_Mar_10_1257,test_typingtask_norepeats,2020.2.10,59.93563907171573,
edthe,edthe,,,,,,,,,0,93,93,93,,,,,,,,,,,,,,,2501.958038534969,None,"['e', 'd', 't', 'h', 'e']",1,"[0.9117601679172367, 1.0077588588465005, 1.1517612058669329, 1.3436825887765735, 1.4477416018489748]",2501.958038534969,None,2501.9579356782137,2502.0579409049824,s209_03102023,001,2023_Mar_10_1257,test_typingtask_norepeats,2020.2.10,59.93563907171573,
about,about,,,,,,,,,0,94,94,94,,,,,,,,,,,,,,,2507.458267359063,None,"['a', 'b', 'o', 'u', 't']",1,"[0.8115958911366761, 0.9074649850372225, 1.1075873230583966, 1.2755211619660258, 1.371560110943392]",2507.458267359063,None,2507.4582021552137,2507.5580313690007,s209_03102023,001,2023_Mar_10_1257,test_typingtask_norepeats,2020.2.10,59.93563907171573,
belly,belly,,,,,,,,,0,95,95,95,,,,,,,,,,,,,,,2512.958203941118,None,"['b', 'e', 'l', 'l', 'y']",1,"[0.7435600531753153, 0.8955166870728135, 0.9996367651037872, 1.1435763351619244, 1.3356070930603892]",2512.958203941118,None,2512.958021359192,2513.058060022071,s209_03102023,001,2023_Mar_10_1257,test_typingtask_norepeats,2020.2.10,59.93563907171573,
edthe,edthe,,,,,,,,,0,96,96,96,,,,,,,,,,,,,,,2518.4582368901465,None,"['e', 'd', 't', 'h', 'e']",1,"[0.8434831330087036, 0.8916221652179956, 1.0195683490019292, 1.2594844351988286, 1.3554896130226552]",2518.4582368901465,None,2518.45804508836,2518.5579716670327,s209_03102023,001,2023_Mar_10_1257,test_typingtask_norepeats,2020.2.10,59.93563907171573,
puppy,puppy,,,,,,,,,0,97,97,97,,,,,,,,,,,,,,,2523.958215686027,None,"['p', 'u', 'p', 'p', 'y']",1,"[1.0795649408828467, 1.3435190638992935, 1.5915743808727711, 1.7435071198269725, 1.9995800759643316]",2523.958215686027,None,2523.9581586882937,2524.058097338071,s209_03102023,001,2023_Mar_10_1257,test_typingtask_norepeats,2020.2.10,59.93563907171573,
lucky,lucky,,,,,,,,,0,98,98,98,,,,,,,,,,,,,,,2529.458131444175,None,"['l', 'u', 'c', 'k', 'y']",1,"[0.9316205750219524, 1.115701470989734, 1.1397274618502706, 1.3236707779578865, 1.4755905359052122]",2529.458131444175,None,2529.4582011081743,2529.5582499660086,s209_03102023,001,2023_Mar_10_1257,test_typingtask_norepeats,2020.2.10,59.93563907171573,
theme,theme,,,,,,,,,0,99,99,99,,,,,,,,,,,,,,,2534.9579795610625,None,"['t', 'h', 'e', 'm', 'e']",1,"[0.8077266211621463, 0.9357863990589976, 0.9918621641118079, 1.1677330620586872, 1.287735999096185]",2534.9579795610625,None,2534.9581126632634,2535.058022001991,s209_03102023,001,2023_Mar_10_1257,test_typingtask_norepeats,2020.2.10,59.93563907171573,
edthe,edthe,,,,,,,,,0,100,100,100,,,,,,,,,,,,,,,2540.4581304399762,None,"['e', 'd', 't', 'h', 'e']",1,"[0.6596076688729227, 0.7397230039350688, 0.9077222379855812, 1.0756257388275117, 1.1636469019576907]",2540.4581304399762,None,2540.4580712953116,2540.558460602071,s209_03102023,001,2023_Mar_10_1257,test_typingtask_norepeats,2020.2.10,59.93563907171573,
would,would,,,,,,,,,0,101,101,101,,,,,,,,,,,,,,,2545.9580081570894,None,"['w', 'o', 'u', 'l', 'd']",1,"[0.7437218930572271, 0.815827677026391, 0.9677195551339537, 1.135837916051969, 1.215830635977909]",2545.9580081570894,None,2545.958186651254,2546.058566170046,s209_03102023,001,2023_Mar_10_1257,test_typingtask_norepeats,2020.2.10,59.93563907171573,
zibja,zibja,,,,,,,,,0,102,102,102,,,,,,,,,,,,,,,2551.458003971027,None,"['z', 'i', 'b', 'j', 'a']",1,"[1.691838304977864, 1.763819196028635, 1.9318117639049888, 2.0998270008713007, 2.187821557978168]",2551.458003971027,None,2551.4581451852805,2551.558176842984,s209_03102023,001,2023_Mar_10_1257,test_typingtask_norepeats,2020.2.10,59.93563907171573,
think,think,,,,,,,,,0,103,103,103,,,,,,,,,,,,,,,2556.9580046110786,None,"['t', 'h', 'i', 'n', 'k']",1,"[0.7757345768623054, 0.8477745479904115, 0.9357866169884801, 1.1437820729333907, 1.2957287488970906]",2556.9580046110786,None,2556.957779466314,2557.057899967069,s209_03102023,001,2023_Mar_10_1257,test_typingtask_norepeats,2020.2.10,59.93563907171573,
about,about,,,,,,,,,0,104,104,104,,,,,,,,,,,,,,,2562.4582925790455,None,"['a', 'b', 'o', 'u', 't']",1,"[0.6754701300524175, 0.7155769509263337, 0.9074520959984511, 1.0515509680844843, 1.1074545169249177]",2562.4582925790455,None,2562.4581359202507,2562.5581957660615,s209_03102023,001,2023_Mar_10_1257,test_typingtask_norepeats,2020.2.10,59.93563907171573,
vodka,vodka,,,,,,,,,0,105,105,105,,,,,,,,,,,,,,,2567.9581014451105,None,"['v', 'o', 'd', 'k', 'a']",1,"[0.9117318030912429, 1.0477037660311908, 1.1676321469713002, 1.2876619030721486, 1.4077416630461812]",2567.9581014451105,None,2567.958089949237,2568.0581791130826,s209_03102023,001,2023_Mar_10_1257,test_typingtask_norepeats,2020.2.10,59.93563907171573,
therm,therm,,,,,,,,,0,106,106,106,,,,,,,,,,,,,,,2573.458289008122,None,"['t', 'h', 'e', 'r', 'm']",1,"[0.7315289229154587, 0.8275103368796408, 0.9075725129805505, 1.0115763628855348, 1.0754259198438376]",2573.458289008122,None,2573.458217534376,2573.557976242155,s209_03102023,001,2023_Mar_10_1257,test_typingtask_norepeats,2020.2.10,59.93563907171573,
would,would,,,,,,,,,0,107,107,107,,,,,,,,,,,,,,,2578.9582759100012,None,"['w', 'o', 'u', 'l', 'd']",1,"[0.6554483121726662, 0.7274924931116402, 0.8635476981289685, 1.007518348051235, 1.0874440220650285]",2578.9582759100012,None,2578.9581153573467,2579.058039803058,s209_03102023,001,2023_Mar_10_1257,test_typingtask_norepeats,2020.2.10,59.93563907171573,
therm,therm,,,,,,,,,0,108,108,108,,,,,,,,,,,,,,,2584.4581932500005,None,"['t', 'h', 'e', 'r', 'm']",1,"[0.6996248201467097, 0.7955856979824603, 0.8595465500839055, 0.939553780015558, 1.019650666974485]",2584.4581932500005,None,2584.4584403912536,2584.5579759019893,s209_03102023,001,2023_Mar_10_1257,test_typingtask_norepeats,2020.2.10,59.93563907171573,
kremp,kremp,,,,,,,,,0,109,109,109,,,,,,,,,,,,,,,2589.958347272128,None,"['k', 'r', 'e', 'm', 'p']",1,"[0.9673950721044093, 1.0235067389439791, 1.103471017908305, 1.1753923210781068, 1.3194963510613889]",2589.958347272128,None,2589.958065351378,2590.058239018079,s209_03102023,001,2023_Mar_10_1257,test_typingtask_norepeats,2020.2.10,59.93563907171573,
cooed,cooed,,,,,,,,,0,110,110,110,,,,,,,,,,,,,,,2595.4585401900113,None,"['c', 'o', 'o', 'e', 'd']",1,"[0.8671948728151619, 0.9712954498827457, 1.1232181978411973, 1.1871973099187016, 1.2831888648215681]",2595.4585401900113,None,2595.4582539581693,2595.558104651049,s209_03102023,001,2023_Mar_10_1257,test_typingtask_norepeats,2020.2.10,59.93563907171573,
cheer,cheer,,,,,,,,,0,111,111,111,,,,,,,,,,,,,,,2600.958350368077,None,"['c', 'h', 'e', 'e', 'r']",1,"[0.7194408371578902, 0.8313809430692345, 0.9194683821406215, 1.1034456510096788, 1.2154880270827562]",2600.958350368077,None,2600.9581674702,2601.0582705109846,s209_03102023,001,2023_Mar_10_1257,test_typingtask_norepeats,2020.2.10,59.93563907171573,
cooed,cooed,,,,,,,,,0,112,112,112,,,,,,,,,,,,,,,2606.458222275134,None,"['c', 'o', 'o', 'e', 'd']",1,"[0.5795757821761072, 0.7315268411766738, 0.8356289681978524, 0.9795545381493866, 1.0595168930012733]",2606.458222275134,None,2606.4582499052863,2606.558379518101,s209_03102023,001,2023_Mar_10_1257,test_typingtask_norepeats,2020.2.10,59.93563907171573,
about,about,,,,,,,,,0,113,113,113,,,,,,,,,,,,,,,2611.9581345531624,None,"['a', 'b', 'o', 'u', 't']",1,"[0.7675960501655936, 0.8236682971473783, 0.9996679711621255, 1.1197007631417364, 1.1675882001873106]",2611.9581345531624,None,2611.9583992382045,2612.058564648032,s209_03102023,001,2023_Mar_10_1257,test_typingtask_norepeats,2020.2.10,59.93563907171573,
haole,haole,,,,,,,,,0,114,114,114,,,,,,,,,,,,,,,2617.4580722979736,None,"['h', 'a', 'o', 'k', 'e']",0,"[0.8117308388464153, 0.9476826179306954, 1.027851428836584, 1.2517689380329102, 1.3397242228966206]",2617.4580722979736,None,2617.4581449023913,2617.5583292630035,s209_03102023,001,2023_Mar_10_1257,test_typingtask_norepeats,2020.2.10,59.93563907171573,
cooed,cooed,,,,,,,,,0,115,115,115,,,,,,,,,,,,,,,2622.9581893950235,None,"['c', 'o', 'o', 'e', 'd']",1,"[0.6636545911896974, 0.7916032860521227, 0.9356340421363711, 1.023607098031789, 1.1195969730615616]",2622.9581893950235,None,2622.9582035962026,2623.058245497057,s209_03102023,001,2023_Mar_10_1257,test_typingtask_norepeats,2020.2.10,59.93563907171573,
buddy,buddy,,,,,,,,,0,116,116,116,,,,,,,,,,,,,,,2628.4581812331453,None,"['b', 'u', 'd', 'd', 'y']",1,"[0.9795534980949014, 1.107570833992213, 1.347614053171128, 1.5156517780851573, 1.6037613891530782]",2628.4581812331453,None,2628.458331090305,2628.55865216814,s209_03102023,001,2023_Mar_10_1257,test_typingtask_norepeats,2020.2.10,59.93563907171573,
vanru,vanru,,,,,,,,,0,117,117,117,,,,,,,,,,,,,,,2633.9584922490176,None,"['v', 'a', 'n', 'r', 'u']",1,"[0.8793056830763817, 1.0153069901280105, 1.1193522841203958, 1.3032877990044653, 1.4073023479431868]",2633.9584922490176,None,2633.9581250323913,2634.058233292075,s209_03102023,001,2023_Mar_10_1257,test_typingtask_norepeats,2020.2.10,59.93563907171573,
belly,belly,,,,,,,,,0,118,118,118,,,,,,,,,,,,,,,2639.458376845112,None,"['b', 'e', 'l', 'l', 'u']",0,"[0.7314020749181509, 0.8754510181024671, 0.9954979429021478, 1.139481188962236, 1.6034707280341536]",2639.458376845112,None,2639.458272609301,2639.5588076720014,s209_03102023,001,2023_Mar_10_1257,test_typingtask_norepeats,2020.2.10,59.93563907171573,
druze,druze,,,,,,,,,0,119,119,119,,,,,,,,,,,,,,,2644.958798564039,None,"['d', 'r', 'u', 'z', 'e']",1,"[0.9669343221466988, 1.1270113999489695, 1.2309770861174911, 1.4150746399536729, 1.6469673940446228]",2644.958798564039,None,2644.958239248395,2645.0584356170148,s209_03102023,001,2023_Mar_10_1257,test_typingtask_norepeats,2020.2.10,59.93563907171573,
