string,corrAns,practice_trials.thisRepN,practice_trials.thisTrialN,practice_trials.thisN,practice_trials.thisIndex,trials_1.thisRepN,trials_1.thisTrialN,trials_1.thisN,trials_1.thisIndex,trials_2.thisRepN,trials_2.thisTrialN,trials_2.thisN,trials_2.thisIndex,key_resp_0.keys,key_resp_0.corr,key_resp_0.rt,text_1.started,text_1.stopped,key_resp_1.keys,key_resp_1.corr,key_resp_1.rt,key_resp_1.started,key_resp_1.stopped,sound_1A_1.started,sound_1A_1.stopped,break_time.started,break_time.stopped,text_2.started,text_2.stopped,key_resp_2.keys,key_resp_2.corr,key_resp_2.rt,key_resp_2.started,key_resp_2.stopped,sound_1A_2.started,sound_1A_2.stopped,participant,session,date,expName,psychopyVersion,frameRate,
fresh,fresh,0,0,0,0,,,,,,,,,"['f', 'r', 'e', 's', 'h']",1,"[1.467578400000093, 1.6116056000000754, 1.8916768999997657, 2.1556422000003295, 2.2516163999998753]",,,,,,,,,,,,,,,,,,,,,s20_02082024,001,2024-02-08_11h14.35.066,test_typingtask_norepeats,2020.2.10,59.979403073038085,
dream,dream,0,1,1,1,,,,,,,,,"['d', 'r', 'e', 'a', 'm']",1,"[1.3756180000000313, 1.5998918999994203, 1.671679099999892, 1.903610700000172, 2.039677799999481]",,,,,,,,,,,,,,,,,,,,,s20_02082024,001,2024-02-08_11h14.35.066,test_typingtask_norepeats,2020.2.10,59.979403073038085,
slime,slime,0,2,2,2,,,,,,,,,"['s', 'l', 'i', 'm', 'e']",1,"[1.595558600000004, 1.6755818999999974, 1.8115309000004345, 2.0195212000007814, 2.1155299000001833]",,,,,,,,,,,,,,,,,,,,,s20_02082024,001,2024-02-08_11h14.35.066,test_typingtask_norepeats,2020.2.10,59.979403073038085,
puppy,puppy,,,,,0,0,0,0,,,,,,,,83.25678859999971,None,"['p', 'u', 'p', 'p', 'y']",1,"[1.33466000000044, 1.5666737000001376, 1.9026706000004197, 2.05481250000048, 2.302727000000232]",83.25678859999971,None,83.25579521999961,None,,,,,,,,,,,,s20_02082024,001,2024-02-08_11h14.35.066,test_typingtask_norepeats,2020.2.10,59.979403073038085,
theme,theme,,,,,0,1,1,1,,,,,,,,88.77256669999952,None,"['t', 'h', 'e', 'm', 'e']",1,"[0.9548881999999139, 1.0989432999995188, 1.2188426999991862, 1.5788741999995182, 1.6990821999997934]",88.77256669999952,None,88.77243231999918,88.87259549999999,,,,,,,,,,,,s20_02082024,001,2024-02-08_11h14.35.066,test_typingtask_norepeats,2020.2.10,59.979403073038085,
vodka,vodka,,,,,0,2,2,2,,,,,,,,94.27261519999956,None,"['v', 'o', 'd', 'k', 'a']",1,"[1.1908253000001423, 1.3267906000000949, 1.8068189000005077, 1.9507932000005894, 2.0388738000001467]",94.27261519999956,None,94.27245142000001,94.37258929999916,,,,,,,,,,,,s20_02082024,001,2024-02-08_11h14.35.066,test_typingtask_norepeats,2020.2.10,59.979403073038085,
therm,therm,,,,,0,3,3,3,,,,,,,,99.77257849999933,None,"['t', 'h', 'e', 'r', 'm']",1,"[0.9948621000003186, 1.122816000000057, 1.2428205000005619, 1.3230625000005602, 1.4910327000006873]",99.77257849999933,None,99.77250371999989,99.87259169999925,,,,,,,,,,,,s20_02082024,001,2024-02-08_11h14.35.066,test_typingtask_norepeats,2020.2.10,59.979403073038085,
think,think,,,,,0,4,4,4,,,,,,,,105.27262819999942,None,"['t', 'h', 'i', 'n', 'k']",1,"[0.878798700000516, 1.0229153000000224, 1.1189088999999512, 1.2547713000003569, 1.438756800000192]",105.27262819999942,None,105.27249911999942,105.37260839999999,,,,,,,,,,,,s20_02082024,001,2024-02-08_11h14.35.066,test_typingtask_norepeats,2020.2.10,59.979403073038085,
therm,therm,,,,,0,5,5,5,,,,,,,,110.77263159999984,None,"['t', 'h', 'e', 'r', 'm']",1,"[0.8508074000001216, 1.010761999999886, 1.1307570999997552, 1.2187660999998116, 1.4268959000000905]",110.77263159999984,None,110.7725099199998,110.87266139999974,,,,,,,,,,,,s20_02082024,001,2024-02-08_11h14.35.066,test_typingtask_norepeats,2020.2.10,59.979403073038085,
there,there,,,,,0,6,6,6,,,,,,,,116.27269649999926,None,"['t', 'h', 'e', 'r', 'e']",1,"[0.7747053000002779, 0.9268181000006734, 1.0146967000000586, 1.1027873000002728, 1.2548135000006369]",116.27269649999926,None,116.27258121999975,116.37265449999995,,,,,,,,,,,,s20_02082024,001,2024-02-08_11h14.35.066,test_typingtask_norepeats,2020.2.10,59.979403073038085,
kremp,kremp,,,,,0,7,7,7,,,,,,,,121.7726174999998,None,"['k', 'r', 'e', 'm', 'p']",1,"[1.3388377000001128, 1.4428940999996485, 1.490768399999979, 1.7068713999997271, 1.954815399999461]",121.7726174999998,None,121.7725241199997,121.87267839999913,,,,,,,,,,,,s20_02082024,001,2024-02-08_11h14.35.066,test_typingtask_norepeats,2020.2.10,59.979403073038085,
pykka,pykka,,,,,0,8,8,8,,,,,,,,127.27264599999944,None,"['p', 'y', 'k', 'k', 'a']",1,"[1.5907813000003443, 2.118777499999851, 2.3267737999995006, 2.446728599999915, 2.5587954000002355]",127.27264599999944,None,127.27253871999991,127.37266529999943,,,,,,,,,,,,s20_02082024,001,2024-02-08_11h14.35.066,test_typingtask_norepeats,2020.2.10,59.979403073038085,
zibja,zibja,,,,,0,9,9,9,,,,,,,,132.77267889999985,None,"['z', 'i', 'b', 'j', 'a']",1,"[1.474731299999803, 1.6828443000003972, 1.8106880000004821, 2.1628694999999425, 2.2348711000004187]",132.77267889999985,None,132.77251431999966,132.8726760999998,,,,,,,,,,,,s20_02082024,001,2024-02-08_11h14.35.066,test_typingtask_norepeats,2020.2.10,59.979403073038085,
puppy,puppy,,,,,0,10,10,10,,,,,,,,138.27268429999913,None,"['p', 'u', 'p', 'p', 'y']",1,"[1.3427294000002803, 1.598732100000234, 1.790703300000132, 1.9346701000004032, 2.062672900000507]",138.27268429999913,None,138.2725768199999,138.37268109999968,,,,,,,,,,,,s20_02082024,001,2024-02-08_11h14.35.066,test_typingtask_norepeats,2020.2.10,59.979403073038085,
zibja,zibja,,,,,0,11,11,11,,,,,,,,143.7727064999999,None,"['z', 'i', 'b', 'j', 'a']",1,"[1.2026856000002226, 1.4028494000003775, 1.5146660999998858, 1.9386726000002454, 2.0427745000006325]",143.7727064999999,None,143.7725882199994,143.87269619999915,,,,,,,,,,,,s20_02082024,001,2024-02-08_11h14.35.066,test_typingtask_norepeats,2020.2.10,59.979403073038085,
buddy,buddy,,,,,0,12,12,12,,,,,,,,149.2727187999999,None,"['b', 'u', 'd', 'd', 'y']",1,"[1.1746707999991486, 1.2866635999998834, 2.0786911999994118, 2.2389159999993353, 2.334677899999406]",149.2727187999999,None,149.27262441999946,149.37267079999947,,,,,,,,,,,,s20_02082024,001,2024-02-08_11h14.35.066,test_typingtask_norepeats,2020.2.10,59.979403073038085,
pykka,pykka,,,,,0,13,13,13,,,,,,,,154.77273869999954,None,"['p', 'y', 'k', 'k', 'a']",1,"[1.586642700000084, 1.6667207000000417, 1.9866191000000981, 2.1226214999996955, 2.2108794999994643]",154.77273869999954,None,154.77257171999926,154.87272029999986,,,,,,,,,,,,s20_02082024,001,2024-02-08_11h14.35.066,test_typingtask_norepeats,2020.2.10,59.979403073038085,
vodka,vodka,,,,,0,14,14,14,,,,,,,,160.27269839999917,None,"['v', 'o', 'd', 'k', 'a']",1,"[1.1506838999994216, 1.3026615999997375, 1.7906745999998748, 1.9506977999999435, 2.0546715000000404]",160.27269839999917,None,160.27261341999937,160.37273169999935,,,,,,,,,,,,s20_02082024,001,2024-02-08_11h14.35.066,test_typingtask_norepeats,2020.2.10,59.979403073038085,
edthe,edthe,,,,,0,15,15,15,,,,,,,,165.7727208999995,None,"['e', 'd', 't', 'h', 'e']",1,"[1.4186535999997432, 1.5949208000001818, 1.8507810999999492, 1.9866837999998097, 2.082903599999554]",165.7727208999995,None,165.77265521999934,165.87270799999988,,,,,,,,,,,,s20_02082024,001,2024-02-08_11h14.35.066,test_typingtask_norepeats,2020.2.10,59.979403073038085,
champ,champ,,,,,0,16,16,16,,,,,,,,171.2727802999998,None,"['c', 'h', 'a', 'm', 'p']",1,"[1.2146237000006295, 1.3187659000004714, 1.494556399999965, 1.6546399999997448, 1.8625812999998743]",171.2727802999998,None,171.27259181999952,171.37276119999933,,,,,,,,,,,,s20_02082024,001,2024-02-08_11h14.35.066,test_typingtask_norepeats,2020.2.10,59.979403073038085,
therm,therm,,,,,0,17,17,17,,,,,,,,176.77276429999984,None,"['t', 'h', 'e', 'r', 'n', 'm']",0,"[0.8666003000007549, 1.010687200000575, 1.114558300000681, 1.1788698000000295, 1.3627299000008861, 1.370540400000209]",176.77276429999984,None,176.77267041999957,176.87279599999965,,,,,,,,,,,,s20_02082024,001,2024-02-08_11h14.35.066,test_typingtask_norepeats,2020.2.10,59.979403073038085,
cooed,cooed,,,,,0,18,18,18,,,,,,,,182.2727648,None,"['c', 'o', 'o', 'e', 'd']",1,"[1.0946095000008427, 1.278558700000758, 1.3905739000001631, 1.5425705000006928, 1.7025630000007368]",182.2727648,None,182.2726710199996,182.37277599999925,,,,,,,,,,,,s20_02082024,001,2024-02-08_11h14.35.066,test_typingtask_norepeats,2020.2.10,59.979403073038085,
edthe,edthe,,,,,0,19,19,19,,,,,,,,187.77278859999933,None,"['e', 'd', 't', 'h', 'e', 'r']",0,"[1.1225682000003872, 1.2905397000004086, 1.5225049000000581, 1.6666126000000077, 1.7385771999997814, 1.8025274000001446]",187.77278859999933,None,187.77267491999928,187.87279129999934,,,,,,,,,,,,s20_02082024,001,2024-02-08_11h14.35.066,test_typingtask_norepeats,2020.2.10,59.979403073038085,
druze,druze,,,,,0,20,20,20,,,,,,,,193.27277889999914,None,"['d', 'r', 'u', 'z', 'e']",1,"[1.1665901999995185, 1.3666638999993665, 1.606551099999706, 1.7585416000001715, 1.9905713999996806]",193.27277889999914,None,193.2726938199995,193.37280719999944,,,,,,,,,,,,s20_02082024,001,2024-02-08_11h14.35.066,test_typingtask_norepeats,2020.2.10,59.979403073038085,
vodka,vodka,,,,,0,21,21,21,,,,,,,,198.77279969999927,None,"['v', 'o', 'd', 'k', 'a']",1,"[1.1625443999992058, 1.3466318000000683, 1.5945200999994995, 1.8825266999992891, 2.0105707999991864]",198.77279969999927,None,198.7726813199998,198.87282459999915,,,,,,,,,,,,s20_02082024,001,2024-02-08_11h14.35.066,test_typingtask_norepeats,2020.2.10,59.979403073038085,
belly,belly,,,,,0,22,22,22,,,,,,,,204.27280539999992,None,"['b', 'e', 'l', 'l', 'y']",1,"[0.9508267999999589, 1.1025185000007696, 1.4465374000001248, 1.5825257000005877, 1.6946155000005092]",204.27280539999992,None,204.27273152000006,204.3728728999995,,,,,,,,,,,,s20_02082024,001,2024-02-08_11h14.35.066,test_typingtask_norepeats,2020.2.10,59.979403073038085,
heond,heond,,,,,0,23,23,23,,,,,,,,209.77281519999997,None,"['h', 'e', 'o', 'n', 'd']",1,"[1.3386073000001488, 1.4425585999997566, 1.9865294000001086, 2.058555999999953, 2.170600200000081]",209.77281519999997,None,209.77272921999983,209.87285489999977,,,,,,,,,,,,s20_02082024,001,2024-02-08_11h14.35.066,test_typingtask_norepeats,2020.2.10,59.979403073038085,
haole,haole,,,,,0,24,24,24,,,,,,,,215.27284919999965,None,"['h', 'a', 'o', 'l', 'e']",1,"[1.1665423999993436, 1.3026153999999224, 1.558491399999184, 1.7265510999995968, 1.822451699999874]",215.27284919999965,None,215.27274012000007,215.37286179999955,,,,,,,,,,,,s20_02082024,001,2024-02-08_11h14.35.066,test_typingtask_norepeats,2020.2.10,59.979403073038085,
about,about,,,,,0,25,25,25,,,,,,,,220.77287519999936,None,"['a', 'b', 'o', 'u', 't']",1,"[0.9784427000004143, 1.0424450000000434, 1.314412099999572, 1.394535999999789, 1.4984051000001273]",220.77287519999936,None,220.77273591999992,220.87287749999996,,,,,,,,,,,,s20_02082024,001,2024-02-08_11h14.35.066,test_typingtask_norepeats,2020.2.10,59.979403073038085,
druze,druze,,,,,0,26,26,26,,,,,,,,226.27288299999964,None,"['d', 'r', 'u', 'z', 'x', 'e']",0,"[1.1584308000001329, 1.3665669000001799, 1.598493100000269, 1.910439000000224, 1.9185176000000865, 2.398406299999806]",226.27288299999964,None,226.27277452000007,226.37286239999958,,,,,,,,,,,,s20_02082024,001,2024-02-08_11h14.35.066,test_typingtask_norepeats,2020.2.10,59.979403073038085,
faqir,faqir,,,,,0,27,27,27,,,,,,,,231.77291459999924,None,"['f', 'a', 'q']",0,"[1.770391899999595, 1.9623936999996658, 2.7463897999996334]",231.77291459999924,None,231.77281951999984,231.87289449999935,,,,,,,,,,,,s20_02082024,001,2024-02-08_11h14.35.066,test_typingtask_norepeats,2020.2.10,59.979403073038085,
tithe,tithe,,,,,0,28,28,28,,,,,,,,237.27300919999925,None,"['t', 'h', 'i', 't', 'e']",0,"[1.0702848999999333, 1.2543832999999722, 1.9505029000001741, 2.0862764000003153, 2.4462603000001764]",237.27300919999925,None,237.27289002000006,237.37293549999958,,,,,,,,,,,,s20_02082024,001,2024-02-08_11h14.35.066,test_typingtask_norepeats,2020.2.10,59.979403073038085,
heond,heond,,,,,0,29,29,29,,,,,,,,242.77295199999935,None,"['h', 'e', 'o', 'n', 'd']",1,"[1.1623454999999012, 1.2583419000002323, 1.6983460000001287, 1.9223320999999487, 2.0263150999999198]",242.77295199999935,None,242.77282501999989,242.87293839999984,,,,,,,,,,,,s20_02082024,001,2024-02-08_11h14.35.066,test_typingtask_norepeats,2020.2.10,59.979403073038085,
about,about,,,,,0,30,30,30,,,,,,,,248.27295499999946,None,"['a', 'b', 'o', 'u', 't']",1,"[0.8463377999996737, 0.9583575999995446, 1.2383555999995224, 1.3263515999997253, 1.4144477999998344]",248.27295499999946,None,248.2728570199998,248.3729571999993,,,,,,,,,,,,s20_02082024,001,2024-02-08_11h14.35.066,test_typingtask_norepeats,2020.2.10,59.979403073038085,
heond,heond,,,,,0,31,31,31,,,,,,,,253.77300599999944,None,"['h', 'e', 'o', 'n', 'd']",1,"[1.1382871000005252, 1.226246600000195, 1.5703136000001905, 1.794306200000392, 1.8902153999997608]",253.77300599999944,None,253.77288371999938,253.87298409999948,,,,,,,,,,,,s20_02082024,001,2024-02-08_11h14.35.066,test_typingtask_norepeats,2020.2.10,59.979403073038085,
zibja,zibja,,,,,0,32,32,32,,,,,,,,259.2729883999991,None,"['z', 'i', 'b', 'j', 'a']",1,"[1.822317899999689, 1.9582751999996617, 2.150434299999688, 2.358269499999551, 2.494372499999372]",259.2729883999991,None,259.2729310199994,259.3729969999995,,,,,,,,,,,,s20_02082024,001,2024-02-08_11h14.35.066,test_typingtask_norepeats,2020.2.10,59.979403073038085,
cooed,cooed,,,,,0,33,33,33,,,,,,,,264.7730141999991,None,"['c', 'o', 'o', 'e', 'd']",1,"[1.0902762000005168, 1.258261599999969, 1.3942418000006, 1.4822414000000208, 1.6743647000002966]",264.7730141999991,None,264.77297052000006,None,,,,,,,,,,,,s20_02082024,001,2024-02-08_11h14.35.066,test_typingtask_norepeats,2020.2.10,59.979403073038085,
champ,champ,,,,,0,34,34,34,,,,,,,,270.2729901999992,None,"['c', 'h', 'a', 'm', 'p']",1,"[0.9665155000002414, 1.142250800000511, 1.3103687000002537, 1.4864027000003261, 1.6542755000000398]",270.2729901999992,None,270.2729360199993,None,,,,,,,,,,,,s20_02082024,001,2024-02-08_11h14.35.066,test_typingtask_norepeats,2020.2.10,59.979403073038085,
cooed,cooed,,,,,0,35,35,35,,,,,,,,275.77304579999964,None,"['c', 'o', 'o', 'e', 'd']",1,"[0.9702305000000706, 1.1783808000000136, 1.306282000000465, 1.3941923000002134, 1.5862256999998863]",275.77304579999964,None,275.7729629199995,None,,,,,,,,,,,,s20_02082024,001,2024-02-08_11h14.35.066,test_typingtask_norepeats,2020.2.10,59.979403073038085,
champ,champ,,,,,0,36,36,36,,,,,,,,281.2730570999993,None,"['c', 'h', 'a', 'm', 'p']",1,"[0.9502707999999984, 1.1182764000004681, 1.342173900000489, 1.4942989999999554, 1.6301828000005116]",281.2730570999993,None,281.27290961999927,None,,,,,,,,,,,,s20_02082024,001,2024-02-08_11h14.35.066,test_typingtask_norepeats,2020.2.10,59.979403073038085,
faqir,faqir,,,,,0,37,37,37,,,,,,,,286.77307999999994,None,"['f', 'a', 'q', 'i', 'r']",1,"[1.5462343999997756, 1.7381452999998146, 2.4421713000001546, 2.5941530000000057, 2.7142683000001853]",286.77307999999994,None,286.77296041999955,None,,,,,,,,,,,,s20_02082024,001,2024-02-08_11h14.35.066,test_typingtask_norepeats,2020.2.10,59.979403073038085,
druze,druze,,,,,0,38,38,38,,,,,,,,292.2731199,None,"['d', 'r', 'u', 'z', 'e']",1,"[1.102185300000201, 1.342119100000673, 1.6382911999999124, 1.7741169999999329, 2.0461248999999953]",292.2731199,None,292.2732678199992,None,,,,,,,,,,,,s20_02082024,001,2024-02-08_11h14.35.066,test_typingtask_norepeats,2020.2.10,59.979403073038085,
faqir,faqir,,,,,0,39,39,39,,,,,,,,297.77312189999975,None,"['f', 'a', 'q', 'i', 'r']",1,"[1.21814330000052, 1.3461192000004303, 2.0581326999999874, 2.3621177000004536, 2.4820753000003606]",297.77312189999975,None,297.7730119199997,None,,,,,,,,,,,,s20_02082024,001,2024-02-08_11h14.35.066,test_typingtask_norepeats,2020.2.10,59.979403073038085,
cheer,cheer,,,,,0,40,40,40,,,,,,,,303.2731352999999,None,"['c', 'h', 'e', 'e', 'r']",1,"[1.1341228999999657, 1.326105699999971, 1.4622189000001526, 1.614090799999758, 1.7420902999992904]",303.2731352999999,None,303.27301851999994,None,,,,,,,,,,,,s20_02082024,001,2024-02-08_11h14.35.066,test_typingtask_norepeats,2020.2.10,59.979403073038085,
would,would,,,,,0,41,41,41,,,,,,,,308.77314379999916,None,"['w', 'o', 'u', 'l', 'd']",1,"[1.1220775000001595, 1.2900794999995924, 1.378159300000334, 1.5701875000004293, 1.6581987999998091]",308.77314379999916,None,308.7737239199997,None,,,,,,,,,,,,s20_02082024,001,2024-02-08_11h14.35.066,test_typingtask_norepeats,2020.2.10,59.979403073038085,
pykka,pykka,,,,,0,42,42,42,,,,,,,,314.2731281999995,None,"['p', 'u', 'y', 'k', 'a', 'a']",0,"[1.3821091999998316, 1.5503703999993377, 2.4301024999995207, 2.84609619999992, 2.950275899999724, 3.1662178999995376]",314.2731281999995,None,314.2730612199995,None,,,,,,,,,,,,s20_02082024,001,2024-02-08_11h14.35.066,test_typingtask_norepeats,2020.2.10,59.979403073038085,
belly,belly,,,,,0,43,43,43,,,,,,,,319.7731882999997,None,"['b', 'e', 'l', 'l', 'y']",1,"[0.9860182000002169, 1.1380951999999525, 1.3620389999996405, 1.5220203999997466, 1.6740241999996215]",319.7731882999997,None,319.77305781999996,None,,,,,,,,,,,,s20_02082024,001,2024-02-08_11h14.35.066,test_typingtask_norepeats,2020.2.10,59.979403073038085,
there,there,,,,,0,44,44,44,,,,,,,,325.27316659999997,None,"['t', 'h', 'e', 'r', 'e']",1,"[0.8540626000003613, 0.9821561000007932, 1.0860388000000967, 1.1580165000004854, 1.3181012000004557]",325.27316659999997,None,325.27305121999973,None,,,,,,,,,,,,s20_02082024,001,2024-02-08_11h14.35.066,test_typingtask_norepeats,2020.2.10,59.979403073038085,
cheer,cheer,,,,,0,45,45,45,,,,,,,,330.77318919999925,None,"['c', 'h', 'h', 'e', 'r']",0,"[0.8900342000006276, 1.049999800000478, 1.2020145000005868, 1.3460116000005655, 1.4660115000006044]",330.77318919999925,None,330.77311271999963,None,,,,,,,,,,,,s20_02082024,001,2024-02-08_11h14.35.066,test_typingtask_norepeats,2020.2.10,59.979403073038085,
theme,theme,,,,,0,46,46,46,,,,,,,,336.2732062999994,None,"['t', 'h', 'e', 'm', 'e']",1,"[0.8780076000002737, 1.0060897000003024, 1.1981676000004882, 1.3419851000007839, 1.485984400000234]",336.2732062999994,None,336.2730837199998,None,,,,,,,,,,,,s20_02082024,001,2024-02-08_11h14.35.066,test_typingtask_norepeats,2020.2.10,59.979403073038085,
lucky,lucky,,,,,0,47,47,47,,,,,,,,341.7732618,None,"['l', 'u', 'c', 'k', 'y']",1,"[1.217950700000074, 1.3379412999993292, 1.5699267999998483, 1.737984399999732, 1.9619214999993346]",341.7732618,None,341.77317851999953,None,,,,,,,,,,,,s20_02082024,001,2024-02-08_11h14.35.066,test_typingtask_norepeats,2020.2.10,59.979403073038085,
therm,therm,,,,,0,48,48,48,,,,,,,,347.2732423999996,None,"['t', 'h', 'e', 'r', 'm']",1,"[0.8060160999993968, 0.9420282000000952, 1.0539332999996986, 1.1419928999994227, 1.3498859999999695]",347.2732423999996,None,347.2731841199994,347.3732793999998,,,,,,,,,,,,s20_02082024,001,2024-02-08_11h14.35.066,test_typingtask_norepeats,2020.2.10,59.979403073038085,
buddy,buddy,,,,,0,49,49,49,,,,,,,,352.77329089999967,None,"['b', 'u', 'd', 'd', 'y']",1,"[0.9379257000000507, 1.0739143999999214, 1.5219018999996479, 1.6818701000001965, 1.7939155000003666]",352.77329089999967,None,352.7731881199999,None,,,,,,,,,,,,s20_02082024,001,2024-02-08_11h14.35.066,test_typingtask_norepeats,2020.2.10,59.979403073038085,
haole,haole,,,,,0,50,50,50,,,,,,,,358.27332319999914,None,"['h', 'a', 'o', 'l', 'e']",1,"[1.4059667000001355, 1.541914700000234, 1.6858382000000347, 1.8778910000000906, 1.9578664999999091]",358.27332319999914,None,358.27322191999986,None,,,,,,,,,,,,s20_02082024,001,2024-02-08_11h14.35.066,test_typingtask_norepeats,2020.2.10,59.979403073038085,
tithe,tithe,,,,,0,51,51,51,,,,,,,,363.77334619999965,None,"['t', 'i', 't', 'h', 'e']",1,"[1.201864900000146, 1.329826299999695, 1.4418300999996063, 1.6018292999997357, 1.705889500000012]",363.77334619999965,None,363.7732416199998,None,,,,,,,,,,,,s20_02082024,001,2024-02-08_11h14.35.066,test_typingtask_norepeats,2020.2.10,59.979403073038085,
cheer,cheer,,,,,0,52,52,52,,,,,,,,369.2734032999997,None,"['c', 'h', 'e', 'e', 'r']",1,"[0.8297923999998602, 0.9977718000000095, 1.1578769999996439, 1.301892499999667, 1.4218516000000818]",369.2734032999997,None,369.27324131999933,None,,,,,,,,,,,,s20_02082024,001,2024-02-08_11h14.35.066,test_typingtask_norepeats,2020.2.10,59.979403073038085,
would,would,,,,,0,53,53,53,,,,,,,,374.7734283,None,"['w', 'o', 'u', 'l', 'd']",1,"[1.0337186999995538, 1.1778341999997792, 1.2658946000001379, 1.4577280000003157, 1.5777176000001418]",374.7734283,None,374.77326921999986,None,,,,,,,,,,,,s20_02082024,001,2024-02-08_11h14.35.066,test_typingtask_norepeats,2020.2.10,59.979403073038085,
faqir,faqir,,,,,0,54,54,54,,,,,,,,380.27340059999915,None,"['f', 'a', 'q', 'i', 'r']",1,"[1.3017841999999291, 1.4137601000002178, 2.0217507000006663, 2.141745300000366, 2.261864300000525]",380.27340059999915,None,380.27332731999934,None,,,,,,,,,,,,s20_02082024,001,2024-02-08_11h14.35.066,test_typingtask_norepeats,2020.2.10,59.979403073038085,
buddy,buddy,,,,,0,55,55,55,,,,,,,,385.7734002999996,None,"['b', 'u', 'd', 'd', 'y']",1,"[1.0257832999996026, 1.1217642999999953, 1.4737592999999833, 1.6417444999997315, 1.7298152999992453]",385.7734002999996,None,385.77334661999987,None,,,,,,,,,,,,s20_02082024,001,2024-02-08_11h14.35.066,test_typingtask_norepeats,2020.2.10,59.979403073038085,
vanru,vanru,,,,,0,56,56,56,,,,,,,,391.27340549999917,None,"['v', 'a', 'n', 'r', 'u']",1,"[1.0057667999999467, 1.245749099999557, 1.3898174999994808, 1.8057687999998961, 1.9498481999999058]",391.27340549999917,None,391.27331582,None,,,,,,,,,,,,s20_02082024,001,2024-02-08_11h14.35.066,test_typingtask_norepeats,2020.2.10,59.979403073038085,
kremp,kremp,,,,,0,57,57,57,,,,,,,,396.77347329999975,None,"['k', 'r', 'e', 'm', 'p']",1,"[1.337700400000358, 1.4096693999999843, 1.4817830000001777, 1.881660699999884, 1.9696708999999828]",396.77347329999975,None,396.7733424199997,None,,,,,,,,,,,,s20_02082024,001,2024-02-08_11h14.35.066,test_typingtask_norepeats,2020.2.10,59.979403073038085,
think,think,,,,,0,58,58,58,,,,,,,,402.27347029999964,None,"['t', 'h', 'i', 'n', 'k']",1,"[0.901898600000095, 1.0377576999999292, 1.1098143999997774, 1.2939562000001388, 1.445684799999981]",402.27347029999964,None,402.27336312,None,,,,,,,,,,,,s20_02082024,001,2024-02-08_11h14.35.066,test_typingtask_norepeats,2020.2.10,59.979403073038085,
kremp,kremp,,,,,0,59,59,59,,,,,,,,407.77354749999995,None,"['k', 'r', 'e', 'm', 'p']",1,"[1.2176163000003726, 1.2895854000007603, 1.337688800000251, 1.5615765000002284, 1.689577800000734]",407.77354749999995,None,407.7733767199999,None,,,,,,,,,,,,s20_02082024,001,2024-02-08_11h14.35.066,test_typingtask_norepeats,2020.2.10,59.979403073038085,
would,would,,,,,0,60,60,60,,,,,,,,413.27349589999994,None,"['w', 'o', 'u', 'l', 'd']",1,"[1.0538024000006772, 1.1737756000002264, 1.2696806000003562, 1.4617912000003344, 1.5736089000001812]",413.27349589999994,None,413.2734154199999,None,,,,,,,,,,,,s20_02082024,001,2024-02-08_11h14.35.066,test_typingtask_norepeats,2020.2.10,59.979403073038085,
cooed,cooed,,,,,0,61,61,61,,,,,,,,418.7735499999999,None,"['c', 'o', 'o', 'e', 'd']",1,"[0.9776099000000613, 1.1535868000000846, 1.281713899999886, 1.369539000000259, 1.5536031999999977]",418.7735499999999,None,418.77341011999954,None,,,,,,,,,,,,s20_02082024,001,2024-02-08_11h14.35.066,test_typingtask_norepeats,2020.2.10,59.979403073038085,
about,about,,,,,0,62,62,62,,,,,,,,424.27356989999953,None,"['a', 'b', 'o', 'u', 't']",1,"[0.8455825000000914, 0.9896250000001601, 1.2695823000003656, 1.3576637000005576, 1.4536504000006971]",424.27356989999953,None,424.27346411999963,424.3735730999997,,,,,,,,,,,,s20_02082024,001,2024-02-08_11h14.35.066,test_typingtask_norepeats,2020.2.10,59.979403073038085,
vanru,vanru,,,,,0,63,63,63,,,,,,,,429.7735888999996,None,"['v', 'a', 'n', 'r', 'u']",1,"[1.0176455000000715, 1.2175378000001729, 1.3615531999994346, 1.7056069000000207, 1.8655318000000989]",429.7735888999996,None,429.7734865199992,None,,,,,,,,,,,,s20_02082024,001,2024-02-08_11h14.35.066,test_typingtask_norepeats,2020.2.10,59.979403073038085,
belly,belly,,,,,0,64,64,64,,,,,,,,435.2736167999992,None,"['b', 'e', 'l', 'l', 'y']",1,"[0.9336106999999174, 1.0614671000003, 1.261497700000291, 1.429609800000435, 1.5255975999998554]",435.2736167999992,None,435.2734898199998,None,,,,,,,,,,,,s20_02082024,001,2024-02-08_11h14.35.066,test_typingtask_norepeats,2020.2.10,59.979403073038085,
vodka,vodka,,,,,0,65,65,65,,,,,,,,440.7736197999993,None,"['v', 'o', 's', 'k', 'a']",0,"[1.0497059999997873, 1.3375249000000622, 1.5214688999994905, 2.2175004999999146, 2.345461500000056]",440.7736197999993,None,440.77351852000004,None,,,,,,,,,,,,s20_02082024,001,2024-02-08_11h14.35.066,test_typingtask_norepeats,2020.2.10,59.979403073038085,
lucky,lucky,,,,,0,66,66,66,,,,,,,,446.2736737999994,None,"['l', 'u', 'c', 'k', 'y']",1,"[1.509438100000807, 1.6614347000004273, 1.8934720000006564, 2.0613865000004807, 2.301472800000738]",446.2736737999994,None,446.27352222,None,,,,,,,,,,,,s20_02082024,001,2024-02-08_11h14.35.066,test_typingtask_norepeats,2020.2.10,59.979403073038085,
kremp,kremp,,,,,0,67,67,67,,,,,,,,451.7736839999998,None,"['k', 'r', 'e', 'm', 'p']",1,"[1.1856152999998812, 1.2735372999995889, 1.3453878999998778, 1.5453944999999294, 1.6894019000001208]",451.7736839999998,None,451.7735771199997,None,,,,,,,,,,,,s20_02082024,001,2024-02-08_11h14.35.066,test_typingtask_norepeats,2020.2.10,59.979403073038085,
there,there,,,,,0,68,68,68,,,,,,,,457.27370789999986,None,"['t', 'h', 'e', 'r', 'e']",1,"[0.8694031999993967, 1.0054777999994258, 1.1094839999996111, 1.189556299999822, 1.3414757000000463]",457.27370789999986,None,457.27358021999964,None,,,,,,,,,,,,s20_02082024,001,2024-02-08_11h14.35.066,test_typingtask_norepeats,2020.2.10,59.979403073038085,
would,would,,,,,0,69,69,69,,,,,,,,462.77373459999944,None,"['w', 'o', 'u', 'l', 'd']",1,"[0.9934575999996014, 1.1213576999998622, 1.2013343999997232, 1.3933446000000913, 1.537452900000062]",462.77373459999944,None,462.7735777199997,None,,,,,,,,,,,,s20_02082024,001,2024-02-08_11h14.35.066,test_typingtask_norepeats,2020.2.10,59.979403073038085,
champ,champ,,,,,0,70,70,70,,,,,,,,468.2737459,None,"['c', 'h', 'a', 'm', 'p']",1,"[1.0373562000004313, 1.1654250000001412, 1.3014423000004172, 1.4533172999999806, 1.565329600000041]",468.2737459,None,468.2736022199998,None,,,,,,,,,,,,s20_02082024,001,2024-02-08_11h14.35.066,test_typingtask_norepeats,2020.2.10,59.979403073038085,
puppy,puppy,,,,,0,71,71,71,,,,,,,,473.7737380999997,None,"['p', 'u', 'p', 'p', 'y']",1,"[1.1373570999994627, 1.2733535999996093, 1.489434999999503, 1.6333550999997897, 1.7693626000000222]",473.7737380999997,None,473.7736646199993,None,,,,,,,,,,,,s20_02082024,001,2024-02-08_11h14.35.066,test_typingtask_norepeats,2020.2.10,59.979403073038085,
lucky,lucky,,,,,0,72,72,72,,,,,,,,479.2738026999996,None,"['l', 'u', 'c', 'k', 'y']",1,"[1.0373208999999406, 1.213289799999984, 1.4612612000000809, 1.6452082000005248, 1.9652696000002834]",479.2738026999996,None,479.27367642,None,,,,,,,,,,,,s20_02082024,001,2024-02-08_11h14.35.066,test_typingtask_norepeats,2020.2.10,59.979403073038085,
tithe,tithe,,,,,0,73,73,73,,,,,,,,484.7738245999999,None,"['t', 'i', 't', 'h', 'e']",1,"[1.065254900000582, 1.1772478000002593, 1.3212227000003622, 1.465246499999921, 1.5615090000001146]",484.7738245999999,None,484.77369521999947,None,,,,,,,,,,,,s20_02082024,001,2024-02-08_11h14.35.066,test_typingtask_norepeats,2020.2.10,59.979403073038085,
there,there,,,,,0,74,74,74,,,,,,,,490.2738550999993,None,"['t', 'h', 'e', 'r', 'e']",1,"[0.7252199000004111, 0.8371956000000864, 0.9493225000005623, 1.037221700000373, 1.1892637000000832]",490.2738550999993,None,490.2737444199994,None,,,,,,,,,,,,s20_02082024,001,2024-02-08_11h14.35.066,test_typingtask_norepeats,2020.2.10,59.979403073038085,
vodka,vodka,,,,,0,75,75,75,,,,,,,,495.77384749999965,None,"['v', 'o', 'd', 'k', 'a']",1,"[1.2653110999999626, 1.4492038999997021, 1.8091949999998178, 1.9533072000003813, 2.0811853000004703]",495.77384749999965,None,495.77371461999985,None,,,,,,,,,,,,s20_02082024,001,2024-02-08_11h14.35.066,test_typingtask_norepeats,2020.2.10,59.979403073038085,
druze,druze,,,,,0,76,76,76,,,,,,,,501.27388209999935,None,"['d', 'r', 'u', 'z', 'e']",1,"[1.2293041000002631, 1.3893057000004774, 1.6291444999997111, 1.885417899999993, 2.1411815000001297]",501.27388209999935,None,501.27384791999987,None,,,,,,,,,,,,s20_02082024,001,2024-02-08_11h14.35.066,test_typingtask_norepeats,2020.2.10,59.979403073038085,
therm,therm,,,,,0,77,77,77,,,,,,,,506.77389799999946,None,"['t', 'h', 'e', 'r', 'm']",1,"[0.8013104999999996, 0.9291515999993862, 1.0092157999997653, 1.1051282999997056, 1.2411996000000727]",506.77389799999946,None,506.7738020199996,None,,,,,,,,,,,,s20_02082024,001,2024-02-08_11h14.35.066,test_typingtask_norepeats,2020.2.10,59.979403073038085,
tithe,tithe,,,,,0,78,78,78,,,,,,,,512.2739986999995,None,"['t', 'i', 't', 'h', 'e']",1,"[0.9330658999997468, 1.0690453999995952, 1.2050364999995509, 1.3892160999994303, 1.4610625999994227]",512.2739986999995,None,512.2738720199997,None,,,,,,,,,,,,s20_02082024,001,2024-02-08_11h14.35.066,test_typingtask_norepeats,2020.2.10,59.979403073038085,
puppy,puppy,,,,,0,79,79,79,,,,,,,,517.7739637999994,None,"['p', 'u', 'p', 'p', 'y']",1,"[1.0091998999996576, 1.1932519000001776, 1.433163699999568, 1.5691381999995428, 1.7292613999998139]",517.7739637999994,None,517.7738962199993,None,,,,,,,,,,,,s20_02082024,001,2024-02-08_11h14.35.066,test_typingtask_norepeats,2020.2.10,59.979403073038085,
vanru,vanru,,,,,0,80,80,80,,,,,,,,523.2739806999998,None,"['v', 'a', 'n', 'r', 'u']",1,"[1.0211451999994097, 1.2290462999999363, 1.4051033999994615, 1.981088199999249, 2.0852468999992197]",523.2739806999998,None,523.2738627199998,None,,,,,,,,,,,,s20_02082024,001,2024-02-08_11h14.35.066,test_typingtask_norepeats,2020.2.10,59.979403073038085,
heond,heond,,,,,0,81,81,81,,,,,,,,528.7739256999994,None,"['h', 'e', 'o', 'n', 'd', 'f']",0,"[1.0971282000000429, 1.1932039000002987, 1.3932596000004196, 1.673237799999697, 1.801401700000497, 1.801401700000497]",528.7739256999994,None,528.7738303199995,None,,,,,,,,,,,,s20_02082024,001,2024-02-08_11h14.35.066,test_typingtask_norepeats,2020.2.10,59.979403073038085,
theme,theme,,,,,0,82,82,82,,,,,,,,534.2740021999998,None,"['t', 'h', 'e', 'm', 'e']",1,"[0.8690593999999692, 0.9892061000000467, 1.1170105000001058, 1.285208700000112, 1.404989900000146]",534.2740021999998,None,534.2739173199999,None,,,,,,,,,,,,s20_02082024,001,2024-02-08_11h14.35.066,test_typingtask_norepeats,2020.2.10,59.979403073038085,
edthe,edthe,,,,,0,83,83,83,,,,,,,,539.7740289999992,None,"['e', 'd', 't', 'h', 'e']",1,"[1.2810013999996954, 1.4569914000003337, 1.6810019000004104, 1.808969800000341, 1.8889728000003743]",539.7740289999992,None,539.7739500199997,None,,,,,,,,,,,,s20_02082024,001,2024-02-08_11h14.35.066,test_typingtask_norepeats,2020.2.10,59.979403073038085,
think,think,,,,,0,84,84,84,,,,,,,,545.2740970999994,None,"['t', 'h', 'i', 'n', 'k']",1,"[0.7889420000001337, 0.9088892999998279, 1.0529540999996243, 1.3089642999993885, 1.500908399999389]",545.2740970999994,None,545.2739711199994,None,,,,,,,,,,,,s20_02082024,001,2024-02-08_11h14.35.066,test_typingtask_norepeats,2020.2.10,59.979403073038085,
heond,heond,,,,,0,85,85,85,,,,,,,,550.7741136999994,None,"['h', 'e', 'o', 'n', 'd']",1,"[0.9449389999999767, 1.032982599999741, 1.2968971999998757, 1.5448864999998477, 1.664875700000266]",550.7741136999994,None,550.7739782199998,None,,,,,,,,,,,,s20_02082024,001,2024-02-08_11h14.35.066,test_typingtask_norepeats,2020.2.10,59.979403073038085,
tithe,tithe,,,,,0,86,86,86,,,,,,,,556.2741323999999,None,"['t', 'i', 't', 'h', 'e']",1,"[0.9169508000004498, 1.0289615000001504, 1.2129845999997997, 1.3409308999998757, 1.4528715000005832]",556.2741323999999,None,556.27401372,None,,,,,,,,,,,,s20_02082024,001,2024-02-08_11h14.35.066,test_typingtask_norepeats,2020.2.10,59.979403073038085,
zibja,zibja,,,,,0,87,87,87,,,,,,,,561.7741556999999,None,"['z', 'o', 'b', 'j', 'a']",0,"[1.4329026000004887, 1.576824800000395, 1.8968347999998514, 2.1688389000000825, 2.272939299999962]",561.7741556999999,None,561.7741892199994,None,,,,,,,,,,,,s20_02082024,001,2024-02-08_11h14.35.066,test_typingtask_norepeats,2020.2.10,59.979403073038085,
edthe,edthe,,,,,0,88,88,88,,,,,,,,567.2742134999999,None,"['e', 'd', 't', 'h', 'e']",1,"[1.1247929000001022, 1.3007979000003616, 1.5011103000006187, 1.6368876000005912, 1.725006000000576]",567.2742134999999,None,567.2740601199995,None,,,,,,,,,,,,s20_02082024,001,2024-02-08_11h14.35.066,test_typingtask_norepeats,2020.2.10,59.979403073038085,
theme,theme,,,,,0,89,89,89,,,,,,,,572.7742187999993,None,"['t', 'h', 'e', 'm', 'e']",1,"[0.800782899999831, 0.9447583000001032, 1.072888700000476, 1.2247630000001664, 1.3847710999998526]",572.7742187999993,None,572.7740578199993,None,,,,,,,,,,,,s20_02082024,001,2024-02-08_11h14.35.066,test_typingtask_norepeats,2020.2.10,59.979403073038085,
kremp,kremp,,,,,0,90,90,90,,,,,,,,578.2742565999997,None,"['k', 'r', 'e', 'm', 'p']",1,"[1.5328219000002719, 1.6207044000002497, 1.6688503000004857, 1.8527044000002206, 2.028706400000374]",578.2742565999997,None,578.2740789199999,578.3742355999993,,,,,,,,,,,,s20_02082024,001,2024-02-08_11h14.35.066,test_typingtask_norepeats,2020.2.10,59.979403073038085,
haole,haole,,,,,0,91,91,91,,,,,,,,583.7742512999994,None,"['h', 'a', 'o', 'l', 'e']",1,"[1.104741600000125, 1.208705899999586, 1.4726983999998993, 1.6887102999999115, 2.1687291999996887]",583.7742512999994,None,583.7741753199999,583.8742677,,,,,,,,,,,,s20_02082024,001,2024-02-08_11h14.35.066,test_typingtask_norepeats,2020.2.10,59.979403073038085,
buddy,buddy,,,,,0,92,92,92,,,,,,,,589.2743007999998,None,"['b', 'u', 'd', 'd', 'y']",1,"[0.964697200000046, 1.0928492000002734, 1.540945400000055, 1.6926717999995162, 1.8526683000000048]",589.2743007999998,None,589.27413162,589.3742952999992,,,,,,,,,,,,s20_02082024,001,2024-02-08_11h14.35.066,test_typingtask_norepeats,2020.2.10,59.979403073038085,
cheer,cheer,,,,,0,93,93,93,,,,,,,,594.7742791999999,None,"['c', 'h', 'e', 'e', 'r']",1,"[1.2407032000000981, 1.384672799999862, 1.544679200000246, 1.688730900000337, 1.8166989000001195]",594.7742791999999,None,594.7741586200001,594.8743080999993,,,,,,,,,,,,s20_02082024,001,2024-02-08_11h14.35.066,test_typingtask_norepeats,2020.2.10,59.979403073038085,
zibja,zibja,,,,,0,94,94,94,,,,,,,,600.2743418999999,None,"['z', 'i', 'b', 'j', 'a']",1,"[1.3806239999994432, 1.5486102999993818, 1.8046442999993815, 2.004605299999639, 2.0845753999992667]",600.2743418999999,None,600.2742193199994,600.3743003,,,,,,,,,,,,s20_02082024,001,2024-02-08_11h14.35.066,test_typingtask_norepeats,2020.2.10,59.979403073038085,
pykka,pykka,,,,,0,95,95,95,,,,,,,,605.7743661999993,None,"['p', 'y', 'y', 'k', 'a']",0,"[1.248629499999879, 1.5525787999995373, 1.7366848000001482, 2.344597199999953, 2.6647329999996145]",605.7743661999993,None,605.7742684199994,605.8743592999999,,,,,,,,,,,,s20_02082024,001,2024-02-08_11h14.35.066,test_typingtask_norepeats,2020.2.10,59.979403073038085,
theme,theme,,,,,0,96,96,96,,,,,,,,611.2743940999999,None,"['t', 'h', 'e', 'm', 'e']",1,"[0.8445638999992298, 0.964811899999404, 1.1085467999992034, 1.2126587999991898, 1.3485860999999204]",611.2743940999999,None,611.2742595199999,611.3743829999994,,,,,,,,,,,,s20_02082024,001,2024-02-08_11h14.35.066,test_typingtask_norepeats,2020.2.10,59.979403073038085,
vanru,vanru,,,,,0,97,97,97,,,,,,,,616.7744207999995,None,"['v', 'a', 'n', 'r', 'u']",1,"[0.9845636999998533, 1.2165328000000954, 1.3685245000006034, 1.6645754000001034, 1.8565097999999125]",616.7744207999995,None,616.77429872,616.8744143999993,,,,,,,,,,,,s20_02082024,001,2024-02-08_11h14.35.066,test_typingtask_norepeats,2020.2.10,59.979403073038085,
champ,champ,,,,,0,98,98,98,,,,,,,,622.2744736999994,None,"['c', 'h', 'a', 'm', 'p']",1,"[0.9085265000003346, 1.052449499999966, 1.2124876999996559, 1.3884657999997216, 1.5484700999995766]",622.2744736999994,None,622.27433502,None,,,,,,,,,,,,s20_02082024,001,2024-02-08_11h14.35.066,test_typingtask_norepeats,2020.2.10,59.979403073038085,
pykka,pykka,,,,,0,99,99,99,,,,,,,,627.7744620999993,None,"['p', 'y', 'k', 'k', 'a']",1,"[1.1764866000003167, 1.3364830000000438, 1.608564699999988, 1.7445716000001994, 1.8724349000003713]",627.7744620999993,None,627.7743431199998,None,,,,,,,,,,,,s20_02082024,001,2024-02-08_11h14.35.066,test_typingtask_norepeats,2020.2.10,59.979403073038085,
about,about,,,,,0,100,100,100,,,,,,,,633.2744934999992,None,"['a', 'b', 'o', 'u', 't']",1,"[0.8124774999996589, 0.940450599999167, 1.2204302999998617, 1.30096869999943, 1.4125106999999844]",633.2744934999992,None,633.2743747199994,None,,,,,,,,,,,,s20_02082024,001,2024-02-08_11h14.35.066,test_typingtask_norepeats,2020.2.10,59.979403073038085,
buddy,buddy,,,,,0,101,101,101,,,,,,,,638.7745153999995,None,"['b', 'u', 'd', 'd', 'y']",1,"[0.9284172999996372, 1.0644008999997823, 2.072425899999871, 2.208407299999635, 2.3123827999997957]",638.7745153999995,None,638.77440872,None,,,,,,,,,,,,s20_02082024,001,2024-02-08_11h14.35.066,test_typingtask_norepeats,2020.2.10,59.979403073038085,
think,think,,,,,0,102,102,102,,,,,,,,644.2745418999993,None,"['t', 'h', 'i', 'n', 'k']",1,"[0.8364042000002883, 0.9723598000000493, 1.092389400000684, 1.2444451000001209, 1.4283605000000534]",644.2745418999993,None,644.2744207199995,None,,,,,,,,,,,,s20_02082024,001,2024-02-08_11h14.35.066,test_typingtask_norepeats,2020.2.10,59.979403073038085,
about,about,,,,,0,103,103,103,,,,,,,,649.7745747999998,None,"['a', 'b', 'o', 'u', 't']",1,"[0.7685772000004363, 0.8883345000003828, 1.1443396000004213, 1.2323200999999244, 1.3043328000003385]",649.7745747999998,None,649.7744571199993,None,,,,,,,,,,,,s20_02082024,001,2024-02-08_11h14.35.066,test_typingtask_norepeats,2020.2.10,59.979403073038085,
faqir,faqir,,,,,0,104,104,104,,,,,,,,655.2746039999993,None,"['f', 'a', 'q', 'i', 'r']",1,"[1.1803187000004982, 1.2443182000006345, 1.812319600000592, 2.0363358000004155, 2.1244072999998025]",655.2746039999993,None,655.27447012,None,,,,,,,,,,,,s20_02082024,001,2024-02-08_11h14.35.066,test_typingtask_norepeats,2020.2.10,59.979403073038085,
cheer,cheer,,,,,0,105,105,105,,,,,,,,660.7745829999994,None,"['c', 'h', 'e', 'e', 'r']",1,"[0.7524185000002035, 0.9443025000000489, 1.2082963000002565, 1.3443127999998978, 1.4803083000006154]",660.7745829999994,None,660.77450332,None,,,,,,,,,,,,s20_02082024,001,2024-02-08_11h14.35.066,test_typingtask_norepeats,2020.2.10,59.979403073038085,
vanru,vanru,,,,,0,106,106,106,,,,,,,,666.2746576999998,None,"['v', 'a', 'n', 'r', 'u']",1,"[1.1322595999999976, 1.3565782999994553, 1.5001992999996219, 1.7722298999997292, 1.9242290999991383]",666.2746576999998,None,666.2745507199999,None,,,,,,,,,,,,s20_02082024,001,2024-02-08_11h14.35.066,test_typingtask_norepeats,2020.2.10,59.979403073038085,
haole,haole,,,,,0,107,107,107,,,,,,,,671.7746906999992,None,"['h', 'a', 'o', 'l', 'e']",1,"[1.360263899999154, 1.4722561999997197, 1.8802092999994784, 2.064204199999949, 2.176179499999307]",671.7746906999992,None,671.7745595199996,None,,,,,,,,,,,,s20_02082024,001,2024-02-08_11h14.35.066,test_typingtask_norepeats,2020.2.10,59.979403073038085,
cooed,cooed,,,,,0,108,108,108,,,,,,,,677.2747029999991,None,"['c', 'o', 'o', 'e', 'd']",1,"[0.88427479999973, 1.0282231000001048, 1.1644138999999996, 1.2521850000002814, 1.4681569000003947]",677.2747029999991,None,677.2745428199997,None,,,,,,,,,,,,s20_02082024,001,2024-02-08_11h14.35.066,test_typingtask_norepeats,2020.2.10,59.979403073038085,
belly,belly,,,,,0,109,109,109,,,,,,,,682.7747369999997,None,"['b', 'e', 'l', 'l', 'y']",1,"[0.8641748999998526, 0.96015879999959, 1.2081399999997302, 1.368138299999373, 1.488132299999961]",682.7747369999997,None,682.7746093199995,None,,,,,,,,,,,,s20_02082024,001,2024-02-08_11h14.35.066,test_typingtask_norepeats,2020.2.10,59.979403073038085,
lucky,lucky,,,,,0,110,110,110,,,,,,,,688.2747554999996,None,"['l', 'u', 'c', 'k', 'y']",1,"[0.9483308999997462, 1.148133499999858, 1.4601136000001134, 1.6602278000000297, 2.1883269999998447]",688.2747554999996,None,688.27460282,None,,,,,,,,,,,,s20_02082024,001,2024-02-08_11h14.35.066,test_typingtask_norepeats,2020.2.10,59.979403073038085,
haole,haole,,,,,0,111,111,111,,,,,,,,693.7747959999997,None,"['h', 'a', 'o', 'l', 'e']",1,"[1.0881057000005967, 1.2320755999999164, 1.5281171000005997, 1.8082454000004873, 1.952074900000298]",693.7747959999997,None,693.77465322,None,,,,,,,,,,,,s20_02082024,001,2024-02-08_11h14.35.066,test_typingtask_norepeats,2020.2.10,59.979403073038085,
belly,belly,,,,,0,112,112,112,,,,,,,,699.2748250999994,None,"['b', 'e', 'l', 'l', 'y']",1,"[0.9000779999996666, 1.0120224000002054, 1.2600432999997793, 1.4121505000002799, 1.5161509999998088]",699.2748250999994,None,699.2746679200001,None,,,,,,,,,,,,s20_02082024,001,2024-02-08_11h14.35.066,test_typingtask_norepeats,2020.2.10,59.979403073038085,
lucky,lucky,,,,,0,113,113,113,,,,,,,,704.7748378999995,None,"['l', 'u', 'c', 'k', 'y']",1,"[0.9120616999998674, 1.104067500000383, 1.4320418000006612, 1.6559987000000547, 1.9680271000006542]",704.7748378999995,None,704.7747136199997,None,,,,,,,,,,,,s20_02082024,001,2024-02-08_11h14.35.066,test_typingtask_norepeats,2020.2.10,59.979403073038085,
puppy,puppy,,,,,0,114,114,114,,,,,,,,710.2748568999996,None,"['p', 'u', 'p', 'p', 'y']",1,"[1.204060400000344, 1.3160095000002912, 1.8520156000004135, 2.004066000000421, 2.187995000000228]",710.2748568999996,None,710.2747454199999,None,,,,,,,,,,,,s20_02082024,001,2024-02-08_11h14.35.066,test_typingtask_norepeats,2020.2.10,59.979403073038085,
there,there,,,,,0,115,115,115,,,,,,,,715.7748577999992,None,"['t', 'h', 'e', 'r', 'e']",1,"[0.8320256000006339, 0.9679904000004171, 1.063992700000199, 1.1360616000001755, 1.303996300000108]",715.7748577999992,None,715.7747700199999,None,,,,,,,,,,,,s20_02082024,001,2024-02-08_11h14.35.066,test_typingtask_norepeats,2020.2.10,59.979403073038085,
think,think,,,,,0,116,116,116,,,,,,,,721.2748846999993,None,"['t', 'h', 'i', 'n', 'k']",1,"[0.8200002999992648, 0.9239655999999741, 1.036000499999318, 1.1639535999993313, 1.347959499999888]",721.2748846999993,None,721.2748251199993,None,,,,,,,,,,,,s20_02082024,001,2024-02-08_11h14.35.066,test_typingtask_norepeats,2020.2.10,59.979403073038085,
edthe,edthe,,,,,0,117,117,117,,,,,,,,726.7749405999994,None,"['e', 'd', 't', 'h', 'e']",1,"[1.2319593000001987, 1.327905400000418, 1.6399408999996012, 1.7359863000001496, 1.8239372999996704]",726.7749405999994,None,726.7748366199995,None,,,,,,,,,,,,s20_02082024,001,2024-02-08_11h14.35.066,test_typingtask_norepeats,2020.2.10,59.979403073038085,
would,would,,,,,0,118,118,118,,,,,,,,732.2751042,None,"['w', 'o', 'u', 'l', 'd']",1,"[0.995747100000699, 1.123716200000672, 1.2037914000002274, 1.4037572000006548, 1.5637835000006817]",732.2751042,None,732.27519442,None,,,,,,,,,,,,s20_02082024,001,2024-02-08_11h14.35.066,test_typingtask_norepeats,2020.2.10,59.979403073038085,
druze,druze,,,,,0,119,119,119,,,,,,,,737.7750027999991,None,"['d', 'r', 'u', 'z', 'e']",1,"[1.4718504999991637, 1.567845199999283, 1.8718214000000444, 2.0238312999999835, 2.271827399999893]",737.7750027999991,None,737.7748924199997,None,,,,,,,,,,,,s20_02082024,001,2024-02-08_11h14.35.066,test_typingtask_norepeats,2020.2.10,59.979403073038085,
vodka,vodka,,,,,,,,,0,0,0,0,,,,,,,,,,,,,743.2750629999991,None,766.5751584,None,"['v', 'o', 'd', 'k', 'a']",1,"[1.3356456999999864, 1.5036532000003717, 1.7998034000002008, 1.9838608999998542, 2.079632500000116]",766.5751584,None,766.5750246199997,None,s20_02082024,001,2024-02-08_11h14.35.066,test_typingtask_norepeats,2020.2.10,59.979403073038085,
cheer,cheer,,,,,,,,,0,1,1,1,,,,,,,,,,,,,,,772.0751429999991,None,"['c', 'h', 'e', 'e', 'r']",1,"[0.8997949000004155, 1.0516340000003765, 1.219742000000224, 1.3637650000000576, 1.4677136999998766]",772.0751429999991,None,772.0750531199993,None,s20_02082024,001,2024-02-08_11h14.35.066,test_typingtask_norepeats,2020.2.10,59.979403073038085,
cooed,cooed,,,,,,,,,0,2,2,2,,,,,,,,,,,,,,,777.5752233999992,None,"['c', 'o', 'o', 'e', 'd']",1,"[0.8316788000001907, 1.247568400000091, 1.38364619999993, 1.4636084000003393, 1.6475815000003422]",777.5752233999992,None,777.5750491199998,777.6752287999998,s20_02082024,001,2024-02-08_11h14.35.066,test_typingtask_norepeats,2020.2.10,59.979403073038085,
puppy,puppy,,,,,,,,,0,3,3,3,,,,,,,,,,,,,,,783.0752466999993,None,"['p', 'u', 'u', 'p', 'y']",0,"[1.1955705999998827, 1.4516687999994247, 1.6035401999997703, 1.6917727999998533, 1.8835811999997532]",783.0752466999993,None,783.0750744199996,783.1752453999998,s20_02082024,001,2024-02-08_11h14.35.066,test_typingtask_norepeats,2020.2.10,59.979403073038085,
champ,champ,,,,,,,,,0,4,4,4,,,,,,,,,,,,,,,788.5752209999991,None,"['c', 'h', 'a', 'm', 'p']",1,"[0.8715562999996109, 1.031579800000145, 1.1835989000001064, 1.3036597999998776, 1.4396386999997048]",788.5752209999991,None,788.5751404199992,788.6752308999994,s20_02082024,001,2024-02-08_11h14.35.066,test_typingtask_norepeats,2020.2.10,59.979403073038085,
heond,heond,,,,,,,,,0,5,5,5,,,,,,,,,,,,,,,794.0752917,None,"['h', 'e', 'o', 'n', 'd']",1,"[1.1475288999999975, 1.2434987000006004, 1.6435046000005968, 1.811589500000082, 2.0434862000001885]",794.0752917,None,794.07516572,794.1752518999992,s20_02082024,001,2024-02-08_11h14.35.066,test_typingtask_norepeats,2020.2.10,59.979403073038085,
tithe,tithe,,,,,,,,,0,6,6,6,,,,,,,,,,,,,,,799.5753476,None,"['t', 'i', 't', 'h', 'e']",1,"[1.0554443000000902, 1.2154154999998354, 1.3435179000007338, 1.535427000000709, 1.639526300000398]",799.5753476,None,799.5751904199998,799.6753196999998,s20_02082024,001,2024-02-08_11h14.35.066,test_typingtask_norepeats,2020.2.10,59.979403073038085,
vanru,vanru,,,,,,,,,0,7,7,7,,,,,,,,,,,,,,,805.0753425999992,None,"['v', 'a', 'n', 'r', 'u']",1,"[0.8676421999998638, 1.0835156000002826, 1.2434135000003153, 1.475433200000225, 1.6354590000000826]",805.0753425999992,None,805.0752266199999,805.1753440999992,s20_02082024,001,2024-02-08_11h14.35.066,test_typingtask_norepeats,2020.2.10,59.979403073038085,
lucky,lucky,,,,,,,,,0,8,8,8,,,,,,,,,,,,,,,810.5753821999997,None,"['l', 'u', 'c', 'k', 'y']",1,"[1.0154122000003554, 1.1673946000000797, 1.3434931000001598, 1.5275448000002143, 1.7754115000007005]",810.5753821999997,None,810.5752543199998,810.6754283999999,s20_02082024,001,2024-02-08_11h14.35.066,test_typingtask_norepeats,2020.2.10,59.979403073038085,
theme,theme,,,,,,,,,0,9,9,9,,,,,,,,,,,,,,,816.0753857999998,None,"['t', 'h', 'e', 'e']",0,"[0.7553934000006848, 0.8994915000002948, 1.0193626999998742, 1.3153713000001517]",816.0753857999998,None,816.0752715199998,None,s20_02082024,001,2024-02-08_11h14.35.066,test_typingtask_norepeats,2020.2.10,59.979403073038085,
druze,druze,,,,,,,,,0,10,10,10,,,,,,,,,,,,,,,821.5754532999999,None,"['d', 'r', 'u', 'z', 'x', 'e']",0,"[1.207313900000372, 1.3432913999995435, 1.6233149999998204, 1.7672882999995636, 1.775291500000094, 2.0153000000000247]",821.5754532999999,None,821.5753173199993,821.6756566999993,s20_02082024,001,2024-02-08_11h14.35.066,test_typingtask_norepeats,2020.2.10,59.979403073038085,
buddy,buddy,,,,,,,,,0,11,11,11,,,,,,,,,,,,,,,827.0754620999996,None,"['b', 'u', 'd', 'd', 'y']",1,"[1.0193067999998675, 1.1153025999992678, 1.3233384999994087, 1.475272299999233, 1.627278999999362]",827.0754620999996,None,827.07534572,None,s20_02082024,001,2024-02-08_11h14.35.066,test_typingtask_norepeats,2020.2.10,59.979403073038085,
cooed,cooed,,,,,,,,,0,12,12,12,,,,,,,,,,,,,,,832.5754878999996,None,"['c', 'o', 'o', 'e', 'd']",1,"[0.9194649000000936, 1.119252299999971, 1.2632800999999745, 1.383244300000115, 1.5752605999996376]",832.5754878999996,None,832.57542312,None,s20_02082024,001,2024-02-08_11h14.35.066,test_typingtask_norepeats,2020.2.10,59.979403073038085,
would,would,,,,,,,,,0,13,13,13,,,,,,,,,,,,,,,838.0754776999993,None,"['w', 'o', 'u', 'l', 'd']",1,"[0.8592763000006016, 1.115258900000299, 1.1952818999998271, 1.4993788000001587, 1.643261100000018]",838.0754776999993,None,838.0753630199998,None,s20_02082024,001,2024-02-08_11h14.35.066,test_typingtask_norepeats,2020.2.10,59.979403073038085,
tithe,tithe,,,,,,,,,0,14,14,14,,,,,,,,,,,,,,,843.5755504999997,None,"['t', 'i', 't', 'h', 'e']",1,"[1.4472296000003553, 1.5434359999999288, 1.6631706000007398, 1.9671748000000662, 2.087179600000127]",843.5755504999997,None,843.5754178199996,None,s20_02082024,001,2024-02-08_11h14.35.066,test_typingtask_norepeats,2020.2.10,59.979403073038085,
there,there,,,,,,,,,0,15,15,15,,,,,,,,,,,,,,,849.0755628999996,None,"['t', 'h', 'e', 'r', 'e']",1,"[0.8271935999991911, 0.9551601999992272, 1.0673117999995156, 1.171161199999915, 1.3471614999998565]",849.0755628999996,None,849.0754708199994,None,s20_02082024,001,2024-02-08_11h14.35.066,test_typingtask_norepeats,2020.2.10,59.979403073038085,
belly,belly,,,,,,,,,0,16,16,16,,,,,,,,,,,,,,,854.5756103999993,None,"['b', 'e', 'l', 'l', 'y']",1,"[0.9351384999999937, 1.0391110999999, 1.2471366999998281, 1.4231906999993953, 1.5350957000000562]",854.5756103999993,None,854.5754897199996,None,s20_02082024,001,2024-02-08_11h14.35.066,test_typingtask_norepeats,2020.2.10,59.979403073038085,
zibja,zibja,,,,,,,,,0,17,17,17,,,,,,,,,,,,,,,860.0756576999993,None,"['z', 'i', 'b', 'j', 'a']",1,"[1.3150525999999445, 1.4592159000003448, 1.6430318000002444, 2.0190348000005542, 2.0991682000003493]",860.0756576999993,None,860.0755211199995,None,s20_02082024,001,2024-02-08_11h14.35.066,test_typingtask_norepeats,2020.2.10,59.979403073038085,
belly,belly,,,,,,,,,0,18,18,18,,,,,,,,,,,,,,,865.5757017999995,None,"['b', 'e', 'l', 'l', 'y']",1,"[0.9510835999999472, 1.1190155999993294, 1.2791251999997257, 1.4470291999996334, 1.5831211999993684]",865.5757017999995,None,865.5755246199998,None,s20_02082024,001,2024-02-08_11h14.35.066,test_typingtask_norepeats,2020.2.10,59.979403073038085,
druze,druze,,,,,,,,,0,19,19,19,,,,,,,,,,,,,,,871.0757040999997,None,"['d', 'r', 'u', 'z', 'e']",1,"[1.4590086000007432, 1.571014500000274, 1.819006000000627, 1.9629933000005622, 2.1549826000000394]",871.0757040999997,None,871.0755658199997,None,s20_02082024,001,2024-02-08_11h14.35.066,test_typingtask_norepeats,2020.2.10,59.979403073038085,
cheer,cheer,,,,,,,,,0,20,20,20,,,,,,,,,,,,,,,876.5757317999996,None,"['c', 'h', 'e', 'e', 'r']",1,"[0.935139999999592, 1.1269672999997056, 1.2629515999997238, 1.4310835999995106, 1.5590563999994629]",876.5757317999996,None,876.5756100199998,None,s20_02082024,001,2024-02-08_11h14.35.066,test_typingtask_norepeats,2020.2.10,59.979403073038085,
faqir,faqir,,,,,,,,,0,21,21,21,,,,,,,,,,,,,,,882.0757457,None,"['f', 'a', 'q']",0,"[1.9309628000000885, 2.0189580000005662, 3.219011600000158]",882.0757457,None,882.0756453199994,None,s20_02082024,001,2024-02-08_11h14.35.066,test_typingtask_norepeats,2020.2.10,59.979403073038085,
pykka,pykka,,,,,,,,,0,22,22,22,,,,,,,,,,,,,,,887.5758394999993,None,"['p', 'y', 'k', 'k', 'a']",1,"[1.2708897000002253, 1.5748653000000559, 1.8068535000002157, 1.942845500000658, 2.0308348000007754]",887.5758394999993,None,887.5756195199993,None,s20_02082024,001,2024-02-08_11h14.35.066,test_typingtask_norepeats,2020.2.10,59.979403073038085,
therm,therm,,,,,,,,,0,23,23,23,,,,,,,,,,,,,,,893.0758153999996,None,"['t', 'h', 'e', 'r', 'm']",1,"[0.6831607000003714, 0.8188459000002695, 0.9629745000002004, 1.0988403999999719, 1.1628434000003836]",893.0758153999996,None,893.0757010199997,None,s20_02082024,001,2024-02-08_11h14.35.066,test_typingtask_norepeats,2020.2.10,59.979403073038085,
druze,druze,,,,,,,,,0,24,24,24,,,,,,,,,,,,,,,898.5761251999993,None,"['d', 'r', 'f', 'u', 'z', 'e']",0,"[1.7666063000006034, 1.9185040000002118, 1.9264799000002313, 2.4065426000006482, 2.510523099999773, 2.686529000000519]",898.5761251999993,None,898.5757017199995,None,s20_02082024,001,2024-02-08_11h14.35.066,test_typingtask_norepeats,2020.2.10,59.979403073038085,
haole,haole,,,,,,,,,0,25,25,25,,,,,,,,,,,,,,,904.0758633999994,None,"['h', 'a', 'o', 'l']",0,"[1.0028376999998727, 1.1228049000001192, 1.3469334999999774, 1.5308154000003924]",904.0758633999994,None,904.07574072,None,s20_02082024,001,2024-02-08_11h14.35.066,test_typingtask_norepeats,2020.2.10,59.979403073038085,
would,would,,,,,,,,,0,26,26,26,,,,,,,,,,,,,,,909.5761592999997,None,"['w', 'o', 'u', 'l', 'd']",1,"[0.7826501999998072, 1.0304698999998436, 1.078503499999897, 1.334666699999616, 1.4785068999999567]",909.5761592999997,None,909.57578492,None,s20_02082024,001,2024-02-08_11h14.35.066,test_typingtask_norepeats,2020.2.10,59.979403073038085,
champ,champ,,,,,,,,,0,27,27,27,,,,,,,,,,,,,,,915.0762138999999,None,"['c', 'h', 'a', 'm', 'p']",1,"[0.8104980999996769, 0.9865838000005169, 1.1304651000000376, 1.2666512000005241, 1.40240249999988]",915.0762138999999,None,915.0758072199998,None,s20_02082024,001,2024-02-08_11h14.35.066,test_typingtask_norepeats,2020.2.10,59.979403073038085,
vodka,vodka,,,,,,,,,0,28,28,28,,,,,,,,,,,,,,,920.5759819999994,None,"['v', 'o', 'd', 'k', 'a']",1,"[0.9827849000002971, 1.2227075000000696, 1.3988572999996904, 1.638683399999536, 1.7666331999998874]",920.5759819999994,None,920.57587772,None,s20_02082024,001,2024-02-08_11h14.35.066,test_typingtask_norepeats,2020.2.10,59.979403073038085,
heond,heond,,,,,,,,,0,29,29,29,,,,,,,,,,,,,,,926.0761292999996,None,"['h', 'e', 'o', 'n', 'd']",1,"[1.0505207999995037, 1.1386254999997618, 1.3466493999994782, 1.6026491999991777, 1.7944778999999471]",926.0761292999996,None,926.0758751199993,None,s20_02082024,001,2024-02-08_11h14.35.066,test_typingtask_norepeats,2020.2.10,59.979403073038085,
zibja,zibja,,,,,,,,,0,30,30,30,,,,,,,,,,,,,,,931.5761766999995,None,"['z', 'i', 'b', 'j', 'a']",1,"[2.0865021999998135, 2.1904859999995097, 2.3984872999999425, 2.5744806000002427, 2.654574999999568]",931.5761766999995,None,931.5759070199994,None,s20_02082024,001,2024-02-08_11h14.35.066,test_typingtask_norepeats,2020.2.10,59.979403073038085,
cheer,cheer,,,,,,,,,0,31,31,31,,,,,,,,,,,,,,,937.0760484999992,None,"['c', 'h', 'e', 'e', 'r']",1,"[0.8346322999996119, 1.010742399999799, 1.1626462000003812, 1.3226223000001482, 1.386717200000021]",937.0760484999992,None,937.0759243199992,None,s20_02082024,001,2024-02-08_11h14.35.066,test_typingtask_norepeats,2020.2.10,59.979403073038085,
think,think,,,,,,,,,0,32,32,32,,,,,,,,,,,,,,,942.5760305999993,None,"['t', 'h', 'i', 'n', 'k']",1,"[0.8946513000000778, 1.0146196000005148, 1.1187361000002056, 1.2786290000003646, 1.4466054000004078]",942.5760305999993,None,942.5759548199995,None,s20_02082024,001,2024-02-08_11h14.35.066,test_typingtask_norepeats,2020.2.10,59.979403073038085,
belly,belly,,,,,,,,,0,33,33,33,,,,,,,,,,,,,,,948.0761112,None,"['b', 'e', 'l', 'l', 'y']",1,"[0.8105499000002965, 0.9225219999998444, 1.090556899999683, 1.2505359999995562, 1.386521599999469]",948.0761112,None,948.0759819199994,None,s20_02082024,001,2024-02-08_11h14.35.066,test_typingtask_norepeats,2020.2.10,59.979403073038085,
edthe,edthe,,,,,,,,,0,34,34,34,,,,,,,,,,,,,,,953.5760960999996,None,"['e', 'd', 't', 'h', 'e']",1,"[1.182558199999221, 1.2865933999992194, 1.5825491999994483, 1.7025022999996509, 1.7745734999998604]",953.5760960999996,None,953.5760156199996,None,s20_02082024,001,2024-02-08_11h14.35.066,test_typingtask_norepeats,2020.2.10,59.979403073038085,
therm,therm,,,,,,,,,0,35,35,35,,,,,,,,,,,,,,,959.0764780999998,None,"['t', 'h', 'e', 'r', 'm']",1,"[0.6661725000003571, 0.818219499999941, 0.9222526000003199, 1.0021541000005527, 1.1702573000002303]",959.0764780999998,None,959.0760518199996,None,s20_02082024,001,2024-02-08_11h14.35.066,test_typingtask_norepeats,2020.2.10,59.979403073038085,
buddy,buddy,,,,,,,,,0,36,36,36,,,,,,,,,,,,,,,964.5762055999994,None,"['b', 'u', 'd', 'd', 'y']",1,"[0.9744541000000027, 1.086449200000061, 1.3263658000005307, 1.486419300000307, 1.6225278000001708]",964.5762055999994,None,964.5760868199997,None,s20_02082024,001,2024-02-08_11h14.35.066,test_typingtask_norepeats,2020.2.10,59.979403073038085,
pykka,pykka,,,,,,,,,0,37,37,37,,,,,,,,,,,,,,,970.0762150999999,None,"['p', 'y', 'k', 'k', 'a']",1,"[1.2184357999994972, 1.562423200000012, 1.8184515999992072, 1.95452159999968, 2.06640889999926]",970.0762150999999,None,970.0760664199998,None,s20_02082024,001,2024-02-08_11h14.35.066,test_typingtask_norepeats,2020.2.10,59.979403073038085,
champ,champ,,,,,,,,,0,38,38,38,,,,,,,,,,,,,,,975.5762262999997,None,"['c', 'h', 'a', 'm', 'p']",1,"[0.8544130999998742, 1.0463604999995368, 1.1664136999997936, 1.3105156000001443, 1.5184580999994068]",975.5762262999997,None,975.5761378199996,None,s20_02082024,001,2024-02-08_11h14.35.066,test_typingtask_norepeats,2020.2.10,59.979403073038085,
theme,theme,,,,,,,,,0,39,39,39,,,,,,,,,,,,,,,981.0763265999994,None,"['t', 'h', 'e', 'm', 'e']",1,"[0.8823179000000891, 1.026281000000381, 1.130264299999908, 1.282403900000645, 1.4184264000004987]",981.0763265999994,None,981.0761668199995,None,s20_02082024,001,2024-02-08_11h14.35.066,test_typingtask_norepeats,2020.2.10,59.979403073038085,
tithe,tithe,,,,,,,,,0,40,40,40,,,,,,,,,,,,,,,986.5763172999996,None,"['t', 'i', 't', 'h', 'e']",1,"[0.8783092000003307, 1.0063930999995137, 1.1262833999999202, 1.334267500000351, 1.470340199999555]",986.5763172999996,None,986.5761942199998,None,s20_02082024,001,2024-02-08_11h14.35.066,test_typingtask_norepeats,2020.2.10,59.979403073038085,
faqir,faqir,,,,,,,,,0,41,41,41,,,,,,,,,,,,,,,992.0763603999994,None,"['f', 'a', 'q', 'i', 'r']",1,"[1.130267300000014, 1.1942355999999563, 1.7222479999991265, 1.8982352999992145, 2.0022318999999698]",992.0763603999994,None,992.0762404199996,None,s20_02082024,001,2024-02-08_11h14.35.066,test_typingtask_norepeats,2020.2.10,59.979403073038085,
think,think,,,,,,,,,0,42,42,42,,,,,,,,,,,,,,,997.5763953999995,None,"['t', 'h', 'i', 'n', 'k']",1,"[0.7182485000002998, 0.8943796000003204, 1.1183522999999695, 1.3741869000004954, 1.566244700000425]",997.5763953999995,None,997.5763000199996,None,s20_02082024,001,2024-02-08_11h14.35.066,test_typingtask_norepeats,2020.2.10,59.979403073038085,
haole,haole,,,,,,,,,0,43,43,43,,,,,,,,,,,,,,,1003.0764085999999,None,"['h', 'a', 'o', 'l', 'e']",1,"[1.0342172000000573, 1.1462828000003356, 1.3782483000004504, 1.5862247000004572, 1.706296299999849]",1003.0764085999999,None,1003.0763044199995,None,s20_02082024,001,2024-02-08_11h14.35.066,test_typingtask_norepeats,2020.2.10,59.979403073038085,
there,there,,,,,,,,,0,44,44,44,,,,,,,,,,,,,,,1008.5764352999995,None,"['t', 'h', 'e', 'r', 'e']",1,"[0.7101684999997815, 0.8701430000000983, 0.9503555999999662, 1.0301527999999962, 1.1901393999996799]",1008.5764352999995,None,1008.5763285199993,None,s20_02082024,001,2024-02-08_11h14.35.066,test_typingtask_norepeats,2020.2.10,59.979403073038085,
therm,therm,,,,,,,,,0,45,45,45,,,,,,,,,,,,,,,1014.0764645999998,None,"['t', 'h', 'e', 'r', 'm']",1,"[0.7141555999996854, 0.8662417999994432, 0.9622302999996464, 1.066175399999338, 1.1540936000001238]",1014.0764645999998,None,1014.0764690199995,None,s20_02082024,001,2024-02-08_11h14.35.066,test_typingtask_norepeats,2020.2.10,59.979403073038085,
cooed,cooed,,,,,,,,,0,46,46,46,,,,,,,,,,,,,,,1019.5764927999999,None,"['c', 'o', 'o', 'e', 'd']",1,"[0.7981117999997878, 1.0060923000000912, 1.1420977999996467, 1.2540714999995544, 1.4540742999997747]",1019.5764927999999,None,1019.5764178199998,None,s20_02082024,001,2024-02-08_11h14.35.066,test_typingtask_norepeats,2020.2.10,59.979403073038085,
kremp,kremp,,,,,,,,,0,47,47,47,,,,,,,,,,,,,,,1025.0765345999998,None,"['k', 'r', 'e', 'm', 'p']",1,"[1.2661479000007603, 1.3460522000004858, 1.4020866000000751, 1.6180265000002692, 1.738091300000633]",1025.0765345999998,None,1025.0763770199992,None,s20_02082024,001,2024-02-08_11h14.35.066,test_typingtask_norepeats,2020.2.10,59.979403073038085,
edthe,edthe,,,,,,,,,0,48,48,48,,,,,,,,,,,,,,,1030.5766195999995,None,"['e', 'd', 't', 'h', 'e', 'r']",0,"[0.9179604000000836, 1.4379568000003928, 1.8139608999999837, 1.9339367000002312, 2.014132000000245, 2.0619274999999107]",1030.5766195999995,None,1030.576433619999,None,s20_02082024,001,2024-02-08_11h14.35.066,test_typingtask_norepeats,2020.2.10,59.979403073038085,
puppy,puppy,,,,,,,,,0,49,49,49,,,,,,,,,,,,,,,1036.0769734999994,None,"['p', 'u', 'p', 'p', 'y']",1,"[1.2256153999996968, 1.4256937999998627, 1.6336025999999038, 1.7775761000002603, 2.0096286999996664]",1036.0769734999994,None,1036.0764623199993,None,s20_02082024,001,2024-02-08_11h14.35.066,test_typingtask_norepeats,2020.2.10,59.979403073038085,
would,would,,,,,,,,,0,50,50,50,,,,,,,,,,,,,,,1041.5766248999998,None,"['w', 'o', 'u', 'l', 'd']",1,"[0.7179470999999467, 1.0299351000003298, 1.1899583000003986, 1.605970300000081, 1.782094500000312]",1041.5766248999998,None,1041.5765053199993,None,s20_02082024,001,2024-02-08_11h14.35.066,test_typingtask_norepeats,2020.2.10,59.979403073038085,
kremp,kremp,,,,,,,,,0,51,51,51,,,,,,,,,,,,,,,1047.0766711999995,None,"['k', 'r', 'e', 'm', 'p']",1,"[1.674093300000095, 1.7621210000006613, 1.8101119000002655, 2.0338572999999087, 2.1458823000002667]",1047.0766711999995,None,1047.0765369199999,None,s20_02082024,001,2024-02-08_11h14.35.066,test_typingtask_norepeats,2020.2.10,59.979403073038085,
theme,theme,,,,,,,,,0,52,52,52,,,,,,,,,,,,,,,1052.5766871999995,None,"['t', 'h', 'e', 'm', 'e']",1,"[0.9898789999997462, 1.13388120000036, 1.2618411000003107, 1.4138537999997425, 1.5658456999999544]",1052.5766871999995,None,1052.5765599199995,None,s20_02082024,001,2024-02-08_11h14.35.066,test_typingtask_norepeats,2020.2.10,59.979403073038085,
vanru,vanru,,,,,,,,,0,53,53,53,,,,,,,,,,,,,,,1058.0767078,None,"['v', 'a', 'n', 'r', 'u']",1,"[1.0340274000000136, 1.2498501000000033, 1.3938314999995782, 1.657948999999462, 1.897854499999994]",1058.0767078,None,1058.0765365199995,None,s20_02082024,001,2024-02-08_11h14.35.066,test_typingtask_norepeats,2020.2.10,59.979403073038085,
faqir,faqir,,,,,,,,,0,54,54,54,,,,,,,,,,,,,,,1063.5767533999997,None,"['f', 'a', 'w', 'i', 'r']",0,"[0.9017916000002515, 0.9979417000004105, 1.4778478999996878, 1.829760499999793, 1.9578410000003714]",1063.5767533999997,None,1063.5766424199992,None,s20_02082024,001,2024-02-08_11h14.35.066,test_typingtask_norepeats,2020.2.10,59.979403073038085,
buddy,buddy,,,,,,,,,0,55,55,55,,,,,,,,,,,,,,,1069.0767712999996,None,"['b', 'u', 'd', 'd', 'y']",1,"[1.1377541000001656, 1.2497312000004968, 1.6017934000001333, 1.753782400000091, 1.858005900000535]",1069.0767712999996,None,1069.0766648199997,None,s20_02082024,001,2024-02-08_11h14.35.066,test_typingtask_norepeats,2020.2.10,59.979403073038085,
vanru,vanru,,,,,,,,,0,56,56,56,,,,,,,,,,,,,,,1074.5768306,None,"['v', 'a', 'n', 'r', 'u']",1,"[0.8537102999998751, 1.061695499999587, 1.261956100000134, 1.4936956999999893, 1.725746899999649]",1074.5768306,None,1074.5766870199996,None,s20_02082024,001,2024-02-08_11h14.35.066,test_typingtask_norepeats,2020.2.10,59.979403073038085,
faqir,faqir,,,,,,,,,0,57,57,57,,,,,,,,,,,,,,,1080.0768381999997,None,"['f', 'a', 'q', 'i', 'r']",1,"[1.4097130000000107, 1.5056798999994498, 2.2419056999997338, 2.4417047999995702, 2.5377747000002273]",1080.0768381999997,None,1080.0767004199997,None,s20_02082024,001,2024-02-08_11h14.35.066,test_typingtask_norepeats,2020.2.10,59.979403073038085,
zibja,zibja,,,,,,,,,0,58,58,58,,,,,,,,,,,,,,,1085.5768670999996,None,"['z', 'i', 'b', 'j', 'a']",1,"[1.5336201999998593, 1.7097362999993493, 1.9097672999996576, 2.141769299999396, 2.2697447999998985]",1085.5768670999996,None,1085.57671382,None,s20_02082024,001,2024-02-08_11h14.35.066,test_typingtask_norepeats,2020.2.10,59.979403073038085,
edthe,edthe,,,,,,,,,0,59,59,59,,,,,,,,,,,,,,,1091.0769249999994,None,"['e', 'd', 't', 'h', 'e']",1,"[0.9215773999994781, 1.1297285000000556, 1.3457430999997086, 1.497585699999945, 1.6015578999995341]",1091.0769249999994,None,1091.0767520199997,None,s20_02082024,001,2024-02-08_11h14.35.066,test_typingtask_norepeats,2020.2.10,59.979403073038085,
kremp,kremp,,,,,,,,,0,60,60,60,,,,,,,,,,,,,,,1096.5768940999997,None,"['k', 'r', 'e', 'm', 'p']",1,"[1.293632400000206, 1.3897300999997242, 1.4456061999999292, 1.7017184000005727, 1.8216236999996909]",1096.5768940999997,None,1096.5768083199991,None,s20_02082024,001,2024-02-08_11h14.35.066,test_typingtask_norepeats,2020.2.10,59.979403073038085,
zibja,zibja,,,,,,,,,0,61,61,61,,,,,,,,,,,,,,,1102.0770475999989,None,"['z', 'i', 'b', 'j', 'a']",1,"[1.6894684999988385, 2.1374501999998756, 2.28146310000011, 2.5374620000002324, 2.641405099999247]",1102.0770475999989,None,1102.0768806199994,None,s20_02082024,001,2024-02-08_11h14.35.066,test_typingtask_norepeats,2020.2.10,59.979403073038085,
heond,heond,,,,,,,,,0,62,62,62,,,,,,,,,,,,,,,1107.5770332999991,None,"['h', 'e', 'o', 'n', 'd']",1,"[1.173473400000148, 1.285456499999782, 1.5254557999996905, 1.8294944999997824, 1.9414397000000463]",1107.5770332999991,None,1107.5769157199993,None,s20_02082024,001,2024-02-08_11h14.35.066,test_typingtask_norepeats,2020.2.10,59.979403073038085,
vanru,vanru,,,,,,,,,0,63,63,63,,,,,,,,,,,,,,,1113.0770301999992,None,"['v', 'a', 'n', 'r', 'u']",1,"[1.0495395999987522, 1.3055872000004456, 1.4655155000000377, 1.6654779000000417, 1.841471099998671]",1113.0770301999992,None,1113.0769291199995,None,s20_02082024,001,2024-02-08_11h14.35.066,test_typingtask_norepeats,2020.2.10,59.979403073038085,
pykka,pykka,,,,,,,,,0,64,64,64,,,,,,,,,,,,,,,1118.5770531999997,None,"['o', 'y', 'k', 'k', 'a']",0,"[1.645602800001143, 2.0534313000007387, 2.35746300000028, 2.4934197000002314, 2.5974115999997593]",1118.5770531999997,None,1118.57692822,None,s20_02082024,001,2024-02-08_11h14.35.066,test_typingtask_norepeats,2020.2.10,59.979403073038085,
puppy,puppy,,,,,,,,,0,65,65,65,,,,,,,,,,,,,,,1124.0770714,None,"['p', 'u', 'p', 'p', 'y']",1,"[0.937422199998764, 1.54542869999932, 1.785405599999649, 1.9374006999987614, 2.169405699998606]",1124.0770714,None,1124.076997619999,None,s20_02082024,001,2024-02-08_11h14.35.066,test_typingtask_norepeats,2020.2.10,59.979403073038085,
tithe,tithe,,,,,,,,,0,66,66,66,,,,,,,,,,,,,,,1129.5771264000005,None,"['t', 'i', 't', 'h', 'e']",1,"[0.981556200000341, 1.0774915999991208, 1.261360299999069, 1.4294391999992513, 1.5333695000008447]",1129.5771264000005,None,1129.576995719999,None,s20_02082024,001,2024-02-08_11h14.35.066,test_typingtask_norepeats,2020.2.10,59.979403073038085,
theme,theme,,,,,,,,,0,67,67,67,,,,,,,,,,,,,,,1135.077118099999,None,"['t', 'h', 'e', 'm', 'e']",1,"[0.8333088000017597, 0.9854639000004681, 1.0976122000010946, 1.2173668000014004, 1.3693391000015254]",1135.077118099999,None,1135.0770078200003,1135.1771626,s20_02082024,001,2024-02-08_11h14.35.066,test_typingtask_norepeats,2020.2.10,59.979403073038085,
about,about,,,,,,,,,0,68,68,68,,,,,,,,,,,,,,,1140.5771496999996,None,"['a', 'b', 'o', 'u', 't']",1,"[0.7813390999999683, 0.9653025000006892, 1.2613228999998682, 1.413329299999532, 1.5413281000001007]",1140.5771496999996,None,1140.5771060200004,1140.6771923999995,s20_02082024,001,2024-02-08_11h14.35.066,test_typingtask_norepeats,2020.2.10,59.979403073038085,
would,would,,,,,,,,,0,69,69,69,,,,,,,,,,,,,,,1146.0772002000003,None,"['w', 'o', 'u', 'l', 'd']",1,"[0.7852729000005638, 1.0094558000000688, 1.12139070000012, 1.4652676000005158, 1.6092606000001979]",1146.0772002000003,None,1146.0770892199998,1146.1772419,s20_02082024,001,2024-02-08_11h14.35.066,test_typingtask_norepeats,2020.2.10,59.979403073038085,
haole,haole,,,,,,,,,0,70,70,70,,,,,,,,,,,,,,,1151.577202899999,None,"['h', 'a', 'o', 'l', 'd']",0,"[1.005278200000248, 1.125499800000398, 1.6852759000012156, 1.8852706000016042, 2.1572389000011754]",1151.577202899999,None,1151.5770863199996,1151.6772594000004,s20_02082024,001,2024-02-08_11h14.35.066,test_typingtask_norepeats,2020.2.10,59.979403073038085,
vodka,vodka,,,,,,,,,0,71,71,71,,,,,,,,,,,,,,,1157.0772886999994,None,"['v', 'i', 'd', 'k', 'a']",0,"[1.2411878000002616, 1.4331903000002058, 2.161175400000502, 2.30517669999972, 2.4411500000005617]",1157.0772886999994,None,1157.0771175199989,1157.1774488,s20_02082024,001,2024-02-08_11h14.35.066,test_typingtask_norepeats,2020.2.10,59.979403073038085,
about,about,,,,,,,,,0,72,72,72,,,,,,,,,,,,,,,1162.5772690000003,None,"['a', 'b', 'o', 'u', 't']",1,"[0.7651979000002029, 0.8932815000007395, 1.1491589000015665, 1.2211776000003738, 1.2934316000009858]",1162.5772690000003,None,1162.5771897199993,1162.6772706000002,s20_02082024,001,2024-02-08_11h14.35.066,test_typingtask_norepeats,2020.2.10,59.979403073038085,
kremp,kremp,,,,,,,,,0,73,73,73,,,,,,,,,,,,,,,1168.077358399999,None,"['k', 'r', 'e', 'm', 'p']",1,"[1.3451062999993155, 1.4331406000001152, 1.4890830000003916, 2.065124699998705, 2.1610662000002776]",1168.077358399999,None,1168.0772085199987,None,s20_02082024,001,2024-02-08_11h14.35.066,test_typingtask_norepeats,2020.2.10,59.979403073038085,
druze,druze,,,,,,,,,0,74,74,74,,,,,,,,,,,,,,,1173.577365799999,None,"['d', 'r', 'u', 'z', 'e']",1,"[1.2610820999998396, 1.733185399998547, 1.949123200000031, 2.133072999999058, 2.341233499999362]",1173.577365799999,None,1173.5772419200002,None,s20_02082024,001,2024-02-08_11h14.35.066,test_typingtask_norepeats,2020.2.10,59.979403073038085,
cooed,cooed,,,,,,,,,0,75,75,75,,,,,,,,,,,,,,,1179.0774157999995,None,"['c', 'o', 'o', 'e', 'd']",1,"[0.8890331999991758, 1.1130001999990782, 1.225009300000238, 1.3529983000007633, 1.545009299999947]",1179.0774157999995,None,1179.0773093199987,None,s20_02082024,001,2024-02-08_11h14.35.066,test_typingtask_norepeats,2020.2.10,59.979403073038085,
buddy,buddy,,,,,,,,,0,76,76,76,,,,,,,,,,,,,,,1184.5774243999995,None,"['b', 'u', 'd', 'd', 'y']",1,"[1.4610128999993321, 1.6930102999995142, 1.9570017999994889, 2.117033200000151, 2.19711229999848]",1184.5774243999995,None,1184.5773358200004,None,s20_02082024,001,2024-02-08_11h14.35.066,test_typingtask_norepeats,2020.2.10,59.979403073038085,
theme,theme,,,,,,,,,0,77,77,77,,,,,,,,,,,,,,,1190.077499,None,"['t', 'h', 'e', 'm', 'e']",1,"[0.8649341000000277, 1.0089342999999644, 1.1530349000004207, 1.2810398000001442, 1.449068799998713]",1190.077499,None,1190.077342819999,None,s20_02082024,001,2024-02-08_11h14.35.066,test_typingtask_norepeats,2020.2.10,59.979403073038085,
cooed,cooed,,,,,,,,,0,78,78,78,,,,,,,,,,,,,,,1195.5774973999987,None,"['c', 'o', 'o', 'e', 'd']",1,"[0.8689439999998285, 1.180931500000952, 1.3489186999995582, 1.5090546999999788, 1.6851318000008177]",1195.5774973999987,None,1195.5773399199988,None,s20_02082024,001,2024-02-08_11h14.35.066,test_typingtask_norepeats,2020.2.10,59.979403073038085,
zibja,zibja,,,,,,,,,0,79,79,79,,,,,,,,,,,,,,,1201.077544499999,None,"['z', 'i', 'b', 'j', 'a']",1,"[1.36088589999963, 1.4969853999991756, 1.7048598999990645, 1.865031799999997, 1.912857499999518]",1201.077544499999,None,1201.0774088199996,None,s20_02082024,001,2024-02-08_11h14.35.066,test_typingtask_norepeats,2020.2.10,59.979403073038085,
lucky,lucky,,,,,,,,,0,80,80,80,,,,,,,,,,,,,,,1206.5775249999997,None,"['l', 'u', 'c', 'k', 'y']",1,"[1.0449017000009917, 1.2769363000006706, 1.5008756999995967, 1.8528894999999466, 2.460881999999401]",1206.5775249999997,None,1206.5774347200004,None,s20_02082024,001,2024-02-08_11h14.35.066,test_typingtask_norepeats,2020.2.10,59.979403073038085,
about,about,,,,,,,,,0,81,81,81,,,,,,,,,,,,,,,1212.0775879999992,None,"['a', 'b', 'o', 'u', 't']",1,"[0.7448303999990458, 0.8648162999998021, 1.1768532000005507, 1.2408230999990337, 1.4007877000003646]",1212.0775879999992,None,1212.07743872,None,s20_02082024,001,2024-02-08_11h14.35.066,test_typingtask_norepeats,2020.2.10,59.979403073038085,
buddy,buddy,,,,,,,,,0,82,82,82,,,,,,,,,,,,,,,1217.5776374999996,None,"['b', 'u', 'd', 'd', 'y']",1,"[1.020800300000701, 1.132821299999705, 1.644765600000028, 1.8127523999992263, 1.9090126999999484]",1217.5776374999996,None,1217.5774710200003,None,s20_02082024,001,2024-02-08_11h14.35.066,test_typingtask_norepeats,2020.2.10,59.979403073038085,
belly,belly,,,,,,,,,0,83,83,83,,,,,,,,,,,,,,,1223.0776715999991,None,"['b', 'e', 'l', 'l', 'y']",1,"[1.0967435999991721, 1.2487063000007765, 1.5767283999994106, 1.7288592999993853, 1.8728327000007994]",1223.0776715999991,None,1223.0775235199999,None,s20_02082024,001,2024-02-08_11h14.35.066,test_typingtask_norepeats,2020.2.10,59.979403073038085,
champ,champ,,,,,,,,,0,84,84,84,,,,,,,,,,,,,,,1228.5777067999998,None,"['c', 'h', 'a', 'm', 'o']",0,"[0.9169679999995424, 1.0927151999985654, 1.2206959999984974, 1.444647399999667, 1.524683699999514]",1228.5777067999998,None,1228.5775564199994,None,s20_02082024,001,2024-02-08_11h14.35.066,test_typingtask_norepeats,2020.2.10,59.979403073038085,
think,think,,,,,,,,,0,85,85,85,,,,,,,,,,,,,,,1234.0777159,None,"['t', 'h', 'i', 'n', 'k']",1,"[0.9126864000008936, 1.080663700000514, 1.1527853000006871, 1.3127975999996124, 1.5046459000004688]",1234.0777159,None,1234.077591719999,None,s20_02082024,001,2024-02-08_11h14.35.066,test_typingtask_norepeats,2020.2.10,59.979403073038085,
vodka,vodka,,,,,,,,,0,86,86,86,,,,,,,,,,,,,,,1239.5777690999994,None,"['v', 'i', 'd', 'k', 'a']",0,"[0.9326374000011128, 1.5326120000008814, 1.8046221000004152, 2.1006038000014087, 2.2047061000012036]",1239.5777690999994,None,1239.5776179200002,None,s20_02082024,001,2024-02-08_11h14.35.066,test_typingtask_norepeats,2020.2.10,59.979403073038085,
vanru,vanru,,,,,,,,,0,87,87,87,,,,,,,,,,,,,,,1245.0777785,None,"['v', 'a', 'n', 'r', 'u']",1,"[0.8966115999992326, 1.0886506999995618, 1.2486061999989033, 1.4567755999996734, 1.6485646000000997]",1245.0777785,None,1245.0776528200004,None,s20_02082024,001,2024-02-08_11h14.35.066,test_typingtask_norepeats,2020.2.10,59.979403073038085,
puppy,puppy,,,,,,,,,0,88,88,88,,,,,,,,,,,,,,,1250.5777709000004,None,"['p', 'u', 'p', 'p', 'y']",1,"[1.1728877999994438, 1.3246013000007224, 1.5966066000000865, 1.748590699999113, 2.148585599999933]",1250.5777709000004,None,1250.57765062,None,s20_02082024,001,2024-02-08_11h14.35.066,test_typingtask_norepeats,2020.2.10,59.979403073038085,
vodka,vodka,,,,,,,,,0,89,89,89,,,,,,,,,,,,,,,1256.077840699999,None,"['v', 'o', 'd', 'k', 'a']",1,"[1.080544700000246, 1.3685518000002048, 1.608513799999855, 1.8965133000001515, 2.0085285999994085]",1256.077840699999,None,1256.07772062,None,s20_02082024,001,2024-02-08_11h14.35.066,test_typingtask_norepeats,2020.2.10,59.979403073038085,
lucky,lucky,,,,,,,,,0,90,90,90,,,,,,,,,,,,,,,1261.577872499999,None,"['l', 'u', 'c', 'k', 'y']",1,"[0.8525045000005775, 1.1165899000006902, 1.348572000000786, 1.5644945000003645, 1.7724992000003112]",1261.577872499999,None,1261.577717619999,None,s20_02082024,001,2024-02-08_11h14.35.066,test_typingtask_norepeats,2020.2.10,59.979403073038085,
haole,haole,,,,,,,,,0,91,91,91,,,,,,,,,,,,,,,1267.0779166000002,None,"['h', 'a', 'o', 'l', 'e']",1,"[0.9924505999988469, 1.1204196999988199, 1.320439199998873, 1.5124204999992799, 1.6244280999999319]",1267.0779166000002,None,1267.0777869199992,None,s20_02082024,001,2024-02-08_11h14.35.066,test_typingtask_norepeats,2020.2.10,59.979403073038085,
there,there,,,,,,,,,0,92,92,92,,,,,,,,,,,,,,,1272.5779343999993,None,"['t', 'h', 'e', 'r', 'e']",1,"[0.8204859999987093, 0.9724105000004784, 1.0683998000004067, 1.14847539999937, 1.3244156000000658]",1272.5779343999993,None,1272.57781092,None,s20_02082024,001,2024-02-08_11h14.35.066,test_typingtask_norepeats,2020.2.10,59.979403073038085,
edthe,edthe,,,,,,,,,0,93,93,93,,,,,,,,,,,,,,,1278.0779730999993,None,"['e', 'd', 't', 'h', 'e']",1,"[0.9923966999995173, 1.208375399999568, 1.4403753000005963, 1.6403687999991234, 1.7284860999989178]",1278.0779730999993,None,1278.0778364199996,None,s20_02082024,001,2024-02-08_11h14.35.066,test_typingtask_norepeats,2020.2.10,59.979403073038085,
therm,therm,,,,,,,,,0,94,94,94,,,,,,,,,,,,,,,1283.5779761999993,None,"['t', 'h', 'e', 'r', 'm']",1,"[0.8364777999995567, 0.9963781999995263, 1.1163359000001947, 1.204424100000324, 1.316299500000241]",1283.5779761999993,None,1283.577875519999,None,s20_02082024,001,2024-02-08_11h14.35.066,test_typingtask_norepeats,2020.2.10,59.979403073038085,
haole,haole,,,,,,,,,0,95,95,95,,,,,,,,,,,,,,,1289.0780143000002,None,"['h', 'a', 'o', 'l', 'e']",1,"[0.9603270000006887, 1.088365800000247, 1.2803055000003951, 1.4803202000002784, 1.600314499999513]",1289.0780143000002,None,1289.07790552,None,s20_02082024,001,2024-02-08_11h14.35.066,test_typingtask_norepeats,2020.2.10,59.979403073038085,
faqir,faqir,,,,,,,,,0,96,96,96,,,,,,,,,,,,,,,1294.5780611,None,"['f', 'a', 'q', 'w', 'r']",0,"[0.9404617999989568, 1.020436199998585, 1.5164951999995537, 1.5242544999982783, 2.036258899999666]",1294.5780611,None,1294.5779422199994,None,s20_02082024,001,2024-02-08_11h14.35.066,test_typingtask_norepeats,2020.2.10,59.979403073038085,
kremp,kremp,,,,,,,,,0,97,97,97,,,,,,,,,,,,,,,1300.0780931999989,None,"['k', 'r', 'e', 'm', 'p', 'o']",0,"[1.0402659999999742, 1.1842496000008396, 1.2642374000006384, 1.4803771000006236, 1.6643531000008807, 1.6723265000000538]",1300.0780931999989,None,1300.0779601199993,None,s20_02082024,001,2024-02-08_11h14.35.066,test_typingtask_norepeats,2020.2.10,59.979403073038085,
there,there,,,,,,,,,0,98,98,98,,,,,,,,,,,,,,,1305.5781290000004,None,"['t', 'h', 'e', 'r', 'e']",1,"[0.7642099999993661, 0.9002770999995846, 0.980307099998754, 1.0602003000003606, 1.228173899999092]",1305.5781290000004,None,1305.578019819999,None,s20_02082024,001,2024-02-08_11h14.35.066,test_typingtask_norepeats,2020.2.10,59.979403073038085,
therm,therm,,,,,,,,,0,99,99,99,,,,,,,,,,,,,,,1311.078115199999,None,"['t', 'h', 'e', 'r', 'm']",1,"[0.7762163000006694, 0.9201785999994172, 1.0162018999999418, 1.0881934999997611, 1.2241828000005626]",1311.078115199999,None,1311.0780454199994,None,s20_02082024,001,2024-02-08_11h14.35.066,test_typingtask_norepeats,2020.2.10,59.979403073038085,
puppy,puppy,,,,,,,,,0,100,100,100,,,,,,,,,,,,,,,1316.5781743999987,None,"['p', 'u', 'p', 'p', 'y']",1,"[1.1561562999995658, 1.3162420000007842, 1.5641145000008692, 1.7161718999996083, 1.860245699999723]",1316.5781743999987,None,1316.5780785200004,None,s20_02082024,001,2024-02-08_11h14.35.066,test_typingtask_norepeats,2020.2.10,59.979403073038085,
heond,heond,,,,,,,,,0,101,101,101,,,,,,,,,,,,,,,1322.0782193000005,None,"['h', 'e', 'o', 'n', 'd']",1,"[1.1600957999999082, 1.280154299998685, 1.4883451999994577, 1.7121258999995916, 1.8561521999999968]",1322.0782193000005,None,1322.0781027199992,None,s20_02082024,001,2024-02-08_11h14.35.066,test_typingtask_norepeats,2020.2.10,59.979403073038085,
champ,champ,,,,,,,,,0,102,102,102,,,,,,,,,,,,,,,1327.5782173999987,None,"['c', 'h', 'a', 'm', 'o']",0,"[1.020115999999689, 1.212065600000642, 1.3480488999994122, 1.5321571999993466, 1.7960726999990584]",1327.5782173999987,None,1327.5781191200003,None,s20_02082024,001,2024-02-08_11h14.35.066,test_typingtask_norepeats,2020.2.10,59.979403073038085,
pykka,pykka,,,,,,,,,0,103,103,103,,,,,,,,,,,,,,,1333.0782589,None,"['p', 'y', 'k', 'k', 'a']",1,"[1.0240505999991, 1.4000245999995968, 1.6720530999991752, 1.8081019000001106, 1.9201257000004261]",1333.0782589,None,1333.07815992,None,s20_02082024,001,2024-02-08_11h14.35.066,test_typingtask_norepeats,2020.2.10,59.979403073038085,
tithe,tithe,,,,,,,,,0,104,104,104,,,,,,,,,,,,,,,1338.5782740999994,None,"['t', 'i', 't', 'h', 'e']",1,"[0.932022599999982, 1.0680274999995163, 1.2360165000009147, 1.4279222000004665, 1.5559541000002355]",1338.5782740999994,None,1338.578153819999,None,s20_02082024,001,2024-02-08_11h14.35.066,test_typingtask_norepeats,2020.2.10,59.979403073038085,
about,about,,,,,,,,,0,105,105,105,,,,,,,,,,,,,,,1344.078348099999,None,"['a', 'b', 'o', 'u', 't']",1,"[0.7599630999993678, 0.9039768000002368, 1.1999316999990697, 1.2959460000001854, 1.4320958999996947]",1344.078348099999,None,1344.0781848200004,None,s20_02082024,001,2024-02-08_11h14.35.066,test_typingtask_norepeats,2020.2.10,59.979403073038085,
there,there,,,,,,,,,0,106,106,106,,,,,,,,,,,,,,,1349.5783696999997,None,"['t', 'h', 'e', 'r', 'e']",1,"[0.7639668000010715, 0.8918346999998903, 0.9719387000004645, 1.0519860000003973, 1.2119096000005811]",1349.5783696999997,None,1349.578260119999,None,s20_02082024,001,2024-02-08_11h14.35.066,test_typingtask_norepeats,2020.2.10,59.979403073038085,
about,about,,,,,,,,,0,107,107,107,,,,,,,,,,,,,,,1355.0784226999995,None,"['a', 'b', 'o', 'u', 't']",1,"[0.6718920999992406, 0.7680247000007512, 1.0000034000004234, 1.1118599000001268, 1.1518548000003648]",1355.0784226999995,None,1355.0782780199988,None,s20_02082024,001,2024-02-08_11h14.35.066,test_typingtask_norepeats,2020.2.10,59.979403073038085,
cheer,cheer,,,,,,,,,0,108,108,108,,,,,,,,,,,,,,,1360.5784448000004,None,"['c', 'h', 'e', 'e', 'r']",1,"[1.0999446000005264, 1.267837800000052, 1.4279151999999158, 1.5718876000009914, 1.6839128999999957]",1360.5784448000004,None,1360.5783152200001,None,s20_02082024,001,2024-02-08_11h14.35.066,test_typingtask_norepeats,2020.2.10,59.979403073038085,
pykka,pykka,,,,,,,,,0,109,109,109,,,,,,,,,,,,,,,1366.0784708,None,"['p', 'y', 'k', 'k', 'a']",1,"[1.2800612000010005, 1.5678607000008924, 1.9038187000005564, 2.047794199999771, 2.1677830000007816]",1366.0784708,None,1366.0783543199996,None,s20_02082024,001,2024-02-08_11h14.35.066,test_typingtask_norepeats,2020.2.10,59.979403073038085,
think,think,,,,,,,,,0,110,110,110,,,,,,,,,,,,,,,1371.5785033000002,None,"['t', 'h', 'i', 'n', 'k']",1,"[0.8117825999997876, 0.9637204999999085, 1.051720800000112, 1.179743900000176, 1.3478580999999394]",1371.5785033000002,None,1371.5783863199995,None,s20_02082024,001,2024-02-08_11h14.35.066,test_typingtask_norepeats,2020.2.10,59.979403073038085,
belly,belly,,,,,,,,,0,111,111,111,,,,,,,,,,,,,,,1377.078544699999,None,"['b', 'e', 'l', 'l', 'y']",1,"[0.9037207000001217, 1.503720800001247, 1.6477064000009705, 1.7838160000010248, 1.8878898000002664]",1377.078544699999,None,1377.0784144199988,None,s20_02082024,001,2024-02-08_11h14.35.066,test_typingtask_norepeats,2020.2.10,59.979403073038085,
think,think,,,,,,,,,0,112,112,112,,,,,,,,,,,,,,,1382.5785772999998,None,"['t', 'h', 'i', 'n', 'k']",1,"[0.8116900999993959, 0.9478056999996625, 1.0356875999987096, 1.147682499999064, 1.3157796999985294]",1382.5785772999998,None,1382.5784119199998,None,s20_02082024,001,2024-02-08_11h14.35.066,test_typingtask_norepeats,2020.2.10,59.979403073038085,
lucky,lucky,,,,,,,,,0,113,113,113,,,,,,,,,,,,,,,1388.0785981999989,None,"['l', 'u', 'c', 'k', 'y']",1,"[0.8476645000009739, 1.0556601000007504, 1.2876224000010552, 1.4716382000005979, 1.7036513000002742]",1388.0785981999989,None,1388.0784758199989,None,s20_02082024,001,2024-02-08_11h14.35.066,test_typingtask_norepeats,2020.2.10,59.979403073038085,
would,would,,,,,,,,,0,114,114,114,,,,,,,,,,,,,,,1393.5786280000002,None,"['w', 'o', 'u', 'l', 'd']",1,"[0.9156281000014133, 1.1236060999999609, 1.2356244000002334, 1.5636061000004702, 1.6756015999999363]",1393.5786280000002,None,1393.5785244199997,None,s20_02082024,001,2024-02-08_11h14.35.066,test_typingtask_norepeats,2020.2.10,59.979403073038085,
lucky,lucky,,,,,,,,,0,115,115,115,,,,,,,,,,,,,,,1399.0786492999987,None,"['l', 'u', 'c', 'k', 'y']",1,"[0.6957090000014432, 1.7035989000014524, 2.1195968000010907, 2.2475617000000057, 2.3996329000001424]",1399.0786492999987,None,1399.0785073200004,None,s20_02082024,001,2024-02-08_11h14.35.066,test_typingtask_norepeats,2020.2.10,59.979403073038085,
cheer,cheer,,,,,,,,,0,116,116,116,,,,,,,,,,,,,,,1404.5786937999992,None,"['c', 'h', 'e', 'e', 'r']",1,"[0.8035498999997799, 0.9796614999995654, 1.1396101999998791, 1.307551500000045, 1.4035549999989598]",1404.5786937999992,None,1404.578542719999,None,s20_02082024,001,2024-02-08_11h14.35.066,test_typingtask_norepeats,2020.2.10,59.979403073038085,
druze,druze,,,,,,,,,0,117,117,117,,,,,,,,,,,,,,,1410.0786968999992,None,"['d', 'r', 'u', 'z', 'e']",1,"[1.2635393000000477, 1.3995295000004262, 1.6555581000011443, 1.7755231000010099, 1.959534800000256]",1410.0786968999992,None,1410.0786042199998,None,s20_02082024,001,2024-02-08_11h14.35.066,test_typingtask_norepeats,2020.2.10,59.979403073038085,
heond,heond,,,,,,,,,0,118,118,118,,,,,,,,,,,,,,,1415.5787234999998,None,"['h', 'e', 'o', 'n', 'd']",1,"[1.1555097000000387, 1.2596135000003414, 2.155550100000255, 2.259506700000202, 2.4274745999991865]",1415.5787234999998,None,1415.5786355199998,None,s20_02082024,001,2024-02-08_11h14.35.066,test_typingtask_norepeats,2020.2.10,59.979403073038085,
edthe,edthe,,,,,,,,,0,119,119,119,,,,,,,,,,,,,,,1421.0787948999996,None,"['e', 'd', 't', 'h', 'e']",1,"[0.8874577999995381, 1.0794565999985934, 1.3034080999987054, 1.4555403999984264, 1.5354312999988906]",1421.0787948999996,None,1421.07867042,None,s20_02082024,001,2024-02-08_11h14.35.066,test_typingtask_norepeats,2020.2.10,59.979403073038085,
