string,corrAns,practice_trials.thisRepN,practice_trials.thisTrialN,practice_trials.thisN,practice_trials.thisIndex,trials_1.thisRepN,trials_1.thisTrialN,trials_1.thisN,trials_1.thisIndex,trials_2.thisRepN,trials_2.thisTrialN,trials_2.thisN,trials_2.thisIndex,key_resp_0.keys,key_resp_0.corr,key_resp_0.rt,text_1.started,text_1.stopped,key_resp_1.keys,key_resp_1.corr,key_resp_1.rt,key_resp_1.started,key_resp_1.stopped,sound_1A_1.started,sound_1A_1.stopped,break_time.started,break_time.stopped,text_2.started,text_2.stopped,key_resp_2.keys,key_resp_2.corr,key_resp_2.rt,key_resp_2.started,key_resp_2.stopped,sound_1A_2.started,sound_1A_2.stopped,participant,session,date,expName,psychopyVersion,frameRate,
fresh,fresh,0,0,0,0,,,,,,,,,None,0,,,,,,,,,,,,,,,,,,,,,,s210_03102023,001,2023_Mar_10_1632,test_typingtask_norepeats,2020.2.10,60.0344504201674,
dream,dream,0,1,1,1,,,,,,,,,"['f', 'r']",0,"[2.783095666207373, 3.023007699055597]",,,,,,,,,,,,,,,,,,,,,s210_03102023,001,2023_Mar_10_1632,test_typingtask_norepeats,2020.2.10,60.0344504201674,
slime,slime,0,2,2,2,,,,,,,,,"['s', 'l', 'i', 'm', 'e']",1,"[1.0509582022204995, 1.1870695780962706, 1.9710330942180008, 2.211050937185064, 2.3550893291831017]",,,,,,,,,,,,,,,,,,,,,s210_03102023,001,2023_Mar_10_1632,test_typingtask_norepeats,2020.2.10,60.0344504201674,
druze,druze,,,,,0,0,0,0,,,,,,,,1193.869981736876,None,"['d', 'r', 'u', 'z', 'e']",1,"[1.1763206019531935, 1.360240297857672, 1.624358947854489, 1.9682564248796552, 2.2243350888602436]",1193.869981736876,None,1193.8597055013756,1193.9591672548559,,,,,,,,,,,,s210_03102023,001,2023_Mar_10_1632,test_typingtask_norepeats,2020.2.10,60.0344504201674,
cheer,cheer,,,,,0,1,1,1,,,,,,,,1199.3757570178714,None,"['c', 'h', 'e', 'e', 'r']",1,"[0.7905792330857366, 0.9344587179366499, 1.1185453198850155, 1.2945232070051134, 1.3984828130342066]",1199.3757570178714,None,1199.375871207239,1199.475760602858,,,,,,,,,,,,s210_03102023,001,2023_Mar_10_1632,test_typingtask_norepeats,2020.2.10,60.0344504201674,
belly,belly,,,,,0,2,2,2,,,,,,,,1204.875964785926,None,"['b', 'e', 'l', 'l', 'y']",1,"[0.7463916500564665, 1.010258293012157, 1.194304158212617, 1.346297451062128, 1.5383111501578242]",1204.875964785926,None,1204.8759932023472,1204.9758990369737,,,,,,,,,,,,s210_03102023,001,2023_Mar_10_1632,test_typingtask_norepeats,2020.2.10,60.0344504201674,
puppy,puppy,,,,,0,3,3,3,,,,,,,,1210.3759235918988,None,"['p', 'u', 'p', 'p', 'y']",1,"[0.862317412160337, 1.0622755540534854, 1.302386017050594, 1.454290479188785, 1.8863723021931946]",1210.3759235918988,None,1210.376042471407,1210.4762327449862,,,,,,,,,,,,s210_03102023,001,2023_Mar_10_1632,test_typingtask_norepeats,2020.2.10,60.0344504201674,
champ,champ,,,,,0,4,4,4,,,,,,,,1215.8767844790127,None,"['c', 'h', 'a', 'm', 'p']",1,"[0.6414445051923394, 0.7454444051254541, 0.8895582400728017, 0.9855307210236788, 1.2094278710428625]",1215.8767844790127,None,1215.8759929392486,1215.9760078839026,,,,,,,,,,,,s210_03102023,001,2023_Mar_10_1632,test_typingtask_norepeats,2020.2.10,60.0344504201674,
buddy,buddy,,,,,0,5,5,5,,,,,,,,1221.3758352298755,None,"['b', 'u', 'd', 'd', 'y']",1,"[0.7343780670780689, 0.8864392430987209, 1.086481514154002, 1.2304815091192722, 1.374490724178031]",1221.3758352298755,None,1221.375845941389,1221.4758417769335,,,,,,,,,,,,s210_03102023,001,2023_Mar_10_1632,test_typingtask_norepeats,2020.2.10,60.0344504201674,
pykka,pykka,,,,,0,6,6,6,,,,,,,,1226.8758706320077,None,"['p', 'y', 'l', 'l', 'a']",0,"[0.8504543940071017, 1.1143736320082098, 1.4904104098677635, 1.650418174918741, 1.7544247498735785]",1226.8758706320077,None,1226.8759898414369,1226.9760837368667,,,,,,,,,,,,s210_03102023,001,2023_Mar_10_1632,test_typingtask_norepeats,2020.2.10,60.0344504201674,
kremp,kremp,,,,,0,7,7,7,,,,,,,,1232.3757813589182,None,"['k', 'r', 'e', 'm', 'p']",1,"[1.3905061830300838, 1.7504686971660703, 1.98250911408104, 2.0545182700734586, 2.2705446830950677]",1232.3757813589182,None,1232.376057720417,1232.475941367913,,,,,,,,,,,,s210_03102023,001,2023_Mar_10_1632,test_typingtask_norepeats,2020.2.10,60.0344504201674,
lucky,lucky,,,,,0,8,8,8,,,,,,,,1237.875833415892,None,"['l', 'i', 'u', 'c', 'k', 'y']",0,"[0.6423797279130667, 0.8744349908083677, 0.8744349908083677, 1.0184537498280406, 1.226371702970937, 1.4343851238954812]",1237.875833415892,None,1237.8759360063355,1237.9761009870563,,,,,,,,,,,,s210_03102023,001,2023_Mar_10_1632,test_typingtask_norepeats,2020.2.10,60.0344504201674,
faqir,faqir,,,,,0,9,9,9,,,,,,,,1243.3760199008975,None,"['f', 'a', 'q', 'i', 'r']",1,"[0.9422124780248851, 1.1022915982175618, 1.5902722540777177, 1.7341862570028752, 1.8942034731153399]",1243.3760199008975,None,1243.3758691953494,1243.4760258879978,,,,,,,,,,,,s210_03102023,001,2023_Mar_10_1632,test_typingtask_norepeats,2020.2.10,60.0344504201674,
puppy,puppy,,,,,0,10,10,10,,,,,,,,1248.8759061400779,None,"['p', 'u', 'p', 'p', 'y']",1,"[0.8663376739714295, 1.0343243959359825, 1.2343124588951468, 1.3784014258999377, 1.6343153598718345]",1248.8759061400779,None,1248.8759196322876,1248.9761662730016,,,,,,,,,,,,s210_03102023,001,2023_Mar_10_1632,test_typingtask_norepeats,2020.2.10,60.0344504201674,
vodka,vodka,,,,,0,11,11,11,,,,,,,,1254.3760025128722,None,"['v', 'o', 'i', 'd', 'k', 'a']",0,"[1.0063238788861781, 1.1102154748514295, 1.1102154748514295, 1.2622801798861474, 1.6462282149586827, 1.9902183979284018]",1254.3760025128722,None,1254.3759892903267,1254.4758427049965,,,,,,,,,,,,s210_03102023,001,2023_Mar_10_1632,test_typingtask_norepeats,2020.2.10,60.0344504201674,
therm,therm,,,,,0,12,12,12,,,,,,,,1259.8760757730342,None,"['t', 'h', 'e', 'r', 'm']",1,"[0.9542538381647319, 1.058145608054474, 1.2262504471000284, 1.3461515791714191, 1.4662145420443267]",1259.8760757730342,None,1259.8758802622556,1259.9760428089648,,,,,,,,,,,,s210_03102023,001,2023_Mar_10_1632,test_typingtask_norepeats,2020.2.10,60.0344504201674,
lucky,lucky,,,,,0,13,13,13,,,,,,,,1265.3761483179405,None,"['l', 'u', 'c', 'k', 'y']",1,"[0.5981446141377091, 0.8621206551324576, 1.0301200090907514, 1.1500635391566902, 1.3421150350477546]",1265.3761483179405,None,1265.3759215382393,1265.4759219430853,,,,,,,,,,,,s210_03102023,001,2023_Mar_10_1632,test_typingtask_norepeats,2020.2.10,60.0344504201674,
faqir,faqir,,,,,0,14,14,14,,,,,,,,1270.8760029028635,None,"['f', 'a', 'q', 'i', 'r']",1,"[0.7943068358581513, 0.9623009348288178, 1.3783599638845772, 1.5303264188114554, 1.6663184219505638]",1270.8760029028635,None,1270.8758584553375,1270.9759752310347,,,,,,,,,,,,s210_03102023,001,2023_Mar_10_1632,test_typingtask_norepeats,2020.2.10,60.0344504201674,
heond,heond,,,,,0,15,15,15,,,,,,,,1276.3761967769824,None,"['h', 'e', 'o', 'n', 'd']",1,"[1.1100240191444755, 1.3100310070440173, 1.5340195200406015, 1.7900283799972385, 1.9821231630630791]",1276.3761967769824,None,1276.3760841094422,1276.475854150951,,,,,,,,,,,,s210_03102023,001,2023_Mar_10_1632,test_typingtask_norepeats,2020.2.10,60.0344504201674,
puppy,puppy,,,,,0,16,16,16,,,,,,,,1281.876540733967,None,"['p', 'u', 'p', 'p', 'y']",1,"[0.8497577679809183, 1.3456876068376005, 1.6178114898502827, 1.7777707348577678, 2.1457253308035433]",1281.876540733967,None,1281.8760580952744,1281.976108168019,,,,,,,,,,,,s210_03102023,001,2023_Mar_10_1632,test_typingtask_norepeats,2020.2.10,60.0344504201674,
pykka,pykka,,,,,0,17,17,17,,,,,,,,1287.376056191977,None,"['p', 'y', 'k', 'k', 'a']",1,"[0.8622108341660351, 1.334164237137884, 2.382269211113453, 2.534148574108258, 2.678255725186318]",1287.376056191977,None,1287.3761328073683,1287.4760091700591,,,,,,,,,,,,s210_03102023,001,2023_Mar_10_1632,test_typingtask_norepeats,2020.2.10,60.0344504201674,
lucky,lucky,,,,,0,18,18,18,,,,,,,,1292.876233621966,None,"['l', 'u', 'c', 'k', 'y']",1,"[0.6179897640831769, 0.8660875291097909, 1.0099812671542168, 1.1221102559939027, 1.3460102600511163]",1292.876233621966,None,1292.8761784982867,1292.9760955369566,,,,,,,,,,,,s210_03102023,001,2023_Mar_10_1632,test_typingtask_norepeats,2020.2.10,60.0344504201674,
druze,druze,,,,,0,19,19,19,,,,,,,,1298.3759612869471,None,"['d', 'r', 'u', 'z', 'e']",1,"[0.7262822589837015, 0.9582568500190973, 1.2863694669213146, 1.3743220600299537, 1.6143039169255644]",1298.3759612869471,None,1298.3761238003149,1298.4759748468641,,,,,,,,,,,,s210_03102023,001,2023_Mar_10_1632,test_typingtask_norepeats,2020.2.10,60.0344504201674,
kremp,kremp,,,,,0,20,20,20,,,,,,,,1303.8763628879096,None,"['k', 'r', 'e', 'p', 'm']",0,"[0.7938950378447771, 1.0978950639255345, 1.2899530208669603, 1.4419138338416815, 2.2739104388747364]",1303.8763628879096,None,1303.8760812733321,1303.9781960928813,,,,,,,,,,,,s210_03102023,001,2023_Mar_10_1632,test_typingtask_norepeats,2020.2.10,60.0344504201674,
haole,haole,,,,,0,21,21,21,,,,,,,,1309.3758789720014,None,"['h', 'a', 'o', 'l', 'e']",1,"[0.8704558331519365, 1.0384617031086236, 1.2784931450150907, 1.502400296041742, 1.6544590580742806]",1309.3758789720014,None,1309.3759797133039,1309.4760096690152,,,,,,,,,,,,s210_03102023,001,2023_Mar_10_1632,test_typingtask_norepeats,2020.2.10,60.0344504201674,
think,think,,,,,0,22,22,22,,,,,,,,1314.8760759599973,None,"['t', 'h', 'i', 'u', 'n', 'k', 'k']",0,"[0.7302118479274213, 0.8101613018661737, 0.9542544849682599, 0.9542544849682599, 1.1302039369475096, 1.2902508748229593, 2.2742501839529723]",1314.8760759599973,None,1314.8759651173837,1314.9764111000113,,,,,,,,,,,,s210_03102023,001,2023_Mar_10_1632,test_typingtask_norepeats,2020.2.10,60.0344504201674,
haole,haole,,,,,0,23,23,23,,,,,,,,1320.375961938873,None,"['h', 'a', 'o', 'l', 'e']",1,"[0.8943582968786359, 1.0703065658453852, 1.4062725778203458, 1.6382716468069702, 1.774325257865712]",1320.375961938873,None,1320.3757382083218,1320.4759181409609,,,,,,,,,,,,s210_03102023,001,2023_Mar_10_1632,test_typingtask_norepeats,2020.2.10,60.0344504201674,
vanru,vanru,,,,,0,24,24,24,,,,,,,,1325.8760239060502,None,"['v', 'a', 'n', 'r', 'u', 'i']",0,"[1.042237161891535, 1.23419597488828, 1.402280230075121, 1.642189949983731, 1.786309001967311, 1.7943469290621579]",1325.8760239060502,None,1325.8759918812661,1325.9761136670131,,,,,,,,,,,,s210_03102023,001,2023_Mar_10_1632,test_typingtask_norepeats,2020.2.10,60.0344504201674,
kremp,kremp,,,,,0,25,25,25,,,,,,,,1331.3760322469752,None,"['k', 'r', 'e', 'm', 'o']",0,"[0.7261858240235597, 0.9583111859392375, 1.1422147119883448, 1.2382938920054585, 1.4702390369493514]",1331.3760322469752,None,1331.3760012352373,1331.4759382200427,,,,,,,,,,,,s210_03102023,001,2023_Mar_10_1632,test_typingtask_norepeats,2020.2.10,60.0344504201674,
heond,heond,,,,,0,26,26,26,,,,,,,,1336.8767178810667,None,"['h', 'e', 'a', 'o', 'n', 'd']",0,"[0.9055305949877948, 1.0415139440447092, 1.2095239211339504, 1.4175581680610776, 1.6576249860227108, 1.873515603132546]",1336.8767178810667,None,1336.8759624463505,1336.9762178279925,,,,,,,,,,,,s210_03102023,001,2023_Mar_10_1632,test_typingtask_norepeats,2020.2.10,60.0344504201674,
edthe,edthe,,,,,0,27,27,27,,,,,,,,1342.376260604011,None,"['e', 'd', 't', 'h', 'e']",1,"[1.1180240837857127, 1.2700716799590737, 1.542011264944449, 1.6780444318428636, 1.8219731678254902]",1342.376260604011,None,1342.375903112255,1342.476098384941,,,,,,,,,,,,s210_03102023,001,2023_Mar_10_1632,test_typingtask_norepeats,2020.2.10,60.0344504201674,
buddy,buddy,,,,,0,28,28,28,,,,,,,,1347.8760599938687,None,"['b', 'u', 'd', 'd', 'y']",1,"[0.8582280981354415, 1.090278611984104, 1.30629696813412, 1.4582241720054299, 1.6662617500405759]",1347.8760599938687,None,1347.876209759293,1347.9760762199294,,,,,,,,,,,,s210_03102023,001,2023_Mar_10_1632,test_typingtask_norepeats,2020.2.10,60.0344504201674,
about,about,,,,,0,29,29,29,,,,,,,,1353.3760931119323,None,"['a', 'b', 'o', 'u', 't']",1,"[0.590255392016843, 0.8141439352184534, 0.9742485249880701, 1.1821491362061352, 1.2782094720751047]",1353.3760931119323,None,1353.3762188834603,1353.47598095797,,,,,,,,,,,,s210_03102023,001,2023_Mar_10_1632,test_typingtask_norepeats,2020.2.10,60.0344504201674,
kremp,kremp,,,,,0,30,30,30,,,,,,,,1358.8760966120753,None,"['k', 'r', 'e', 'm', 'p']",1,"[1.0741190421395004, 1.7382363630458713, 1.898204336175695, 2.0742087971884757, 2.8582055082079023]",1358.8760966120753,None,1358.8760504302568,1358.9762444470543,,,,,,,,,,,,s210_03102023,001,2023_Mar_10_1632,test_typingtask_norepeats,2020.2.10,60.0344504201674,
druze,druze,,,,,0,31,31,31,,,,,,,,1364.3762926289346,None,"['d', 'r', 'u', 'z', 'e']",1,"[0.8540343372151256, 1.0300342610571533, 1.2300033632200211, 1.797969374107197, 2.254025180125609]",1364.3762926289346,None,1364.3760920103173,1364.476148440037,,,,,,,,,,,,s210_03102023,001,2023_Mar_10_1632,test_typingtask_norepeats,2020.2.10,60.0344504201674,
belly,belly,,,,,0,32,32,32,,,,,,,,1369.8763691540807,None,"['b', 'e', 'l', 'l', 'y']",1,"[0.8098458771128207, 1.0418809209950268, 1.201917887898162, 1.3539617881178856, 1.5939143900759518]",1369.8763691540807,None,1369.8762917364015,1369.9762628648896,,,,,,,,,,,,s210_03102023,001,2023_Mar_10_1632,test_typingtask_norepeats,2020.2.10,60.0344504201674,
champ,champ,,,,,0,33,33,33,,,,,,,,1375.3760094060563,None,"['c', 'h', 'a', 'm', 'p']",1,"[0.7582066899631172, 0.8542589470744133, 0.9901909381151199, 1.0942890960723162, 1.6142604420892894]",1375.3760094060563,None,1375.3762009652796,1375.4763855820056,,,,,,,,,,,,s210_03102023,001,2023_Mar_10_1632,test_typingtask_norepeats,2020.2.10,60.0344504201674,
theme,theme,,,,,0,34,34,34,,,,,,,,1380.876162261935,None,"['t', 'h', 'e', 'm', 'e']",1,"[0.7541742748580873, 0.8661954919807613, 1.0020868799183518, 1.106176647823304, 1.226048480020836]",1380.876162261935,None,1380.8761448533273,1380.9762097219937,,,,,,,,,,,,s210_03102023,001,2023_Mar_10_1632,test_typingtask_norepeats,2020.2.10,60.0344504201674,
champ,champ,,,,,0,35,35,35,,,,,,,,1386.3761133179069,None,"['c', 'h', 'a', 'm', 'n', 'p']",0,"[0.6381679710466415, 0.7661835290491581, 0.846130482852459, 1.0783230250235647, 1.0861086819786578, 1.4302569599822164]",1386.3761133179069,None,1386.3761670404579,1386.4762154759374,,,,,,,,,,,,s210_03102023,001,2023_Mar_10_1632,test_typingtask_norepeats,2020.2.10,60.0344504201674,
would,would,,,,,0,36,36,36,,,,,,,,1391.8760160030797,None,"['w', 'o', 'u', 'l', 'd']",1,"[0.7302505141124129, 0.9142938160803169, 1.0503075742162764, 1.2823109000455588, 1.3942222320474684]",1391.8760160030797,None,1391.876073746383,1391.9762944320682,,,,,,,,,,,,s210_03102023,001,2023_Mar_10_1632,test_typingtask_norepeats,2020.2.10,60.0344504201674,
there,there,,,,,0,37,37,37,,,,,,,,1397.3761390680447,None,"['t', 'h', 'e', 'r', 'e']",1,"[0.7741879401728511, 0.8621825592126697, 1.0301688842009753, 1.126088242046535, 1.2781796262133867]",1397.3761390680447,None,1397.3761372602544,1397.4761384390295,,,,,,,,,,,,s210_03102023,001,2023_Mar_10_1632,test_typingtask_norepeats,2020.2.10,60.0344504201674,
haole,haole,,,,,0,38,38,38,,,,,,,,1402.8763118130155,None,"['h', 'a', 'o', 'l', 'e']",1,"[0.8020107680931687, 0.9700205810368061, 1.0819709659554064, 1.2740192860364914, 1.393916933098808]",1402.8763118130155,None,1402.8760562442708,1402.9762412628625,,,,,,,,,,,,s210_03102023,001,2023_Mar_10_1632,test_typingtask_norepeats,2020.2.10,60.0344504201674,
theme,theme,,,,,0,39,39,39,,,,,,,,1408.3763799890876,None,"['t', 'h', 'e', 'm', 'e']",1,"[0.7338373400270939, 0.8378969309851527, 0.9738474050536752, 1.0458471640013158, 1.1739629919175059]",1408.3763799890876,None,1408.3760575653519,1408.476159953978,,,,,,,,,,,,s210_03102023,001,2023_Mar_10_1632,test_typingtask_norepeats,2020.2.10,60.0344504201674,
cooed,cooed,,,,,0,40,40,40,,,,,,,,1413.8762009600177,None,"['c', 'o', 'o', 'e', 'd']",1,"[1.0661207519005984, 1.3541168549563736, 1.5221488729584962, 1.7141142359469086, 1.8900963889900595]",1413.8762009600177,None,1413.8760408783796,1413.9761901050806,,,,,,,,,,,,s210_03102023,001,2023_Mar_10_1632,test_typingtask_norepeats,2020.2.10,60.0344504201674,
edthe,edthe,,,,,0,41,41,41,,,,,,,,1419.3762719670776,None,"['e', 'd', 't', 'h', 'e']",1,"[0.7580764279700816, 0.9339265709277242, 1.1420569568872452, 1.2380187909584492, 1.3500497948843986]",1419.3762719670776,None,1419.3762802774086,1419.4760750238784,,,,,,,,,,,,s210_03102023,001,2023_Mar_10_1632,test_typingtask_norepeats,2020.2.10,60.0344504201674,
about,about,,,,,0,42,42,42,,,,,,,,1424.8763271609787,None,"['a', 'b', 'o', 'u', 't']",1,"[0.7059526131488383, 0.9299981310032308, 1.1139823719859123, 1.2659993241541088, 1.3860098631121218]",1424.8763271609787,None,1424.8762598353437,1424.976014938904,,,,,,,,,,,,s210_03102023,001,2023_Mar_10_1632,test_typingtask_norepeats,2020.2.10,60.0344504201674,
kremp,kremp,,,,,0,43,43,43,,,,,,,,1430.3763010969851,None,"['k', 'r', 'e', 'm', 'p', 'o']",0,"[0.9500349729787558, 1.2380389601457864, 1.3819749429821968, 1.4620519750751555, 1.6699997971300036, 1.685904836980626]",1430.3763010969851,None,1430.376181269437,1430.4761897670105,,,,,,,,,,,,s210_03102023,001,2023_Mar_10_1632,test_typingtask_norepeats,2020.2.10,60.0344504201674,
vanru,vanru,,,,,0,44,44,44,,,,,,,,1435.8763763098978,None,"['v', 'a', 'n', 'r', 'u']",1,"[0.8419344320427626, 0.9859371918719262, 1.137902872869745, 1.3378570079803467, 1.4978882188443094]",1435.8763763098978,None,1435.8763739873189,1435.976270613959,,,,,,,,,,,,s210_03102023,001,2023_Mar_10_1632,test_typingtask_norepeats,2020.2.10,60.0344504201674,
there,there,,,,,0,45,45,45,,,,,,,,1441.3762717000209,None,"['t', 'h', 'e', 'r', 'e']",1,"[0.6700059198774397, 0.7820454339962453, 0.9099755298811942, 1.0060561050195247, 1.1259511108510196]",1441.3762717000209,None,1441.37625575033,1441.4764039979782,,,,,,,,,,,,s210_03102023,001,2023_Mar_10_1632,test_typingtask_norepeats,2020.2.10,60.0344504201674,
therm,therm,,,,,0,46,46,46,,,,,,,,1446.8763271810021,None,"['t', 'h', 'e', 'r', 'm']",1,"[0.849970884155482, 0.9859995390288532, 1.1300448670517653, 1.217950901016593, 1.3620223349425942]",1446.8763271810021,None,1446.8762722172773,1446.97650574008,,,,,,,,,,,,s210_03102023,001,2023_Mar_10_1632,test_typingtask_norepeats,2020.2.10,60.0344504201674,
zibja,zibja,,,,,0,47,47,47,,,,,,,,1452.3761947930325,None,"['z', 'i', 'b', 'j', 'a']",1,"[1.0861063990741968, 1.494090680964291, 1.7580945519730449, 2.0061545779462904, 2.150129672139883]",1452.3761947930325,None,1452.376152269449,1452.4763096149545,,,,,,,,,,,,s210_03102023,001,2023_Mar_10_1632,test_typingtask_norepeats,2020.2.10,60.0344504201674,
cheer,cheer,,,,,0,48,48,48,,,,,,,,1457.8764264988713,None,"['c', 'h', 'e', 'e', 'r']",1,"[0.7619467349722981, 0.8898549699224532, 1.0498958800453693, 1.1938079830724746, 1.2897932981140912]",1457.8764264988713,None,1457.876913207257,1457.9763721870258,,,,,,,,,,,,s210_03102023,001,2023_Mar_10_1632,test_typingtask_norepeats,2020.2.10,60.0344504201674,
edthe,edthe,,,,,0,49,49,49,,,,,,,,1463.3761669930536,None,"['e', 'd', 't', 'y', 'h', 'e']",0,"[0.7422273571137339, 0.9260582919232547, 1.1021643111016601, 1.110059526981786, 1.206117375055328, 1.2621830150019377]",1463.3761669930536,None,1463.3762757993768,1463.4761520340107,,,,,,,,,,,,s210_03102023,001,2023_Mar_10_1632,test_typingtask_norepeats,2020.2.10,60.0344504201674,
there,there,,,,,0,50,50,50,,,,,,,,1468.8929605870508,None,"['t', 'h', 'e', 'r', 'e']",1,"[0.6892898809164762, 0.8092454608995467, 0.9053197789471596, 0.9853693109471351, 1.1133656438905746]",1468.8929605870508,None,1468.8928123453165,1468.993080307031,,,,,,,,,,,,s210_03102023,001,2023_Mar_10_1632,test_typingtask_norepeats,2020.2.10,60.0344504201674,
vodka,vodka,,,,,0,51,51,51,,,,,,,,1474.3928520979825,None,"['v', 'o', 'd', 'k', 'a']",1,"[0.8614041621331125, 1.005476457066834, 1.1813790830783546, 1.565460137091577, 1.7574818029534072]",1474.3928520979825,None,1474.3928574152756,1474.492775365943,,,,,,,,,,,,s210_03102023,001,2023_Mar_10_1632,test_typingtask_norepeats,2020.2.10,60.0344504201674,
edthe,edthe,,,,,0,52,52,52,,,,,,,,1479.8929650639184,None,"['e', 'd', 't', 'h', 'e']",1,"[0.689374036854133, 0.8653442899230868, 1.0413708379492164, 1.153327523963526, 1.24133793101646]",1479.8929650639184,None,1479.8930201203561,1479.9932056430262,,,,,,,,,,,,s210_03102023,001,2023_Mar_10_1632,test_typingtask_norepeats,2020.2.10,60.0344504201674,
cooed,cooed,,,,,0,53,53,53,,,,,,,,1485.393054479966,None,"['c', 'o', 'o', 'e', 'd']",1,"[0.7571970471180975, 0.9732917421497405, 1.1572823619935662, 1.3892837190069258, 1.5572861561086029]",1485.393054479966,None,1485.3930307004134,1485.4929494659882,,,,,,,,,,,,s210_03102023,001,2023_Mar_10_1632,test_typingtask_norepeats,2020.2.10,60.0344504201674,
buddy,buddy,,,,,0,54,54,54,,,,,,,,1490.8935964219272,None,"['b', 'u', 'd', 'd', 'y']",1,"[0.800615306943655, 1.2727447599172592, 1.4806875330395997, 1.6566308829933405, 1.752701431978494]",1490.8935964219272,None,1490.8931202412582,1490.9933655359782,,,,,,,,,,,,s210_03102023,001,2023_Mar_10_1632,test_typingtask_norepeats,2020.2.10,60.0344504201674,
druze,druze,,,,,0,55,55,55,,,,,,,,1496.3932576319203,None,"['d', 'r', 'u', 'z', 'e']",1,"[0.6370472360868007, 0.8370669120922685, 1.045078641967848, 1.1730691900011152, 1.381005851086229]",1496.3932576319203,None,1496.3929512984118,1496.4929896339308,,,,,,,,,,,,s210_03102023,001,2023_Mar_10_1632,test_typingtask_norepeats,2020.2.10,60.0344504201674,
puppy,puppy,,,,,0,56,56,56,,,,,,,,1501.8930652530398,None,"['p', 'u', 'p', 'p', 'y']",1,"[0.9212211340200156, 1.4572398399468511, 1.689277753001079, 1.8491900248918682, 2.1051507049705833]",1501.8930652530398,None,1501.8930246454197,1501.9932112540118,,,,,,,,,,,,s210_03102023,001,2023_Mar_10_1632,test_typingtask_norepeats,2020.2.10,60.0344504201674,
belly,belly,,,,,0,57,57,57,,,,,,,,1507.3929120718967,None,"['b', 'e', 'l', 'l', 'y']",1,"[0.8053085647989064, 1.0213820599019527, 1.189414979889989, 1.3333806248847395, 1.4694339809939265]",1507.3929120718967,None,1507.3929873373359,1507.4927157680504,,,,,,,,,,,,s210_03102023,001,2023_Mar_10_1632,test_typingtask_norepeats,2020.2.10,60.0344504201674,
lucky,lucky,,,,,0,58,58,58,,,,,,,,1512.892896055011,None,"['l', 'u', 'c', 'k', 'y']",1,"[0.6413899620529264, 0.8974062600173056, 1.0333868940360844, 1.1453849421814084, 1.3374815641436726]",1512.892896055011,None,1512.8930466933175,1512.9926703309175,,,,,,,,,,,,s210_03102023,001,2023_Mar_10_1632,test_typingtask_norepeats,2020.2.10,60.0344504201674,
pykka,pykka,,,,,0,59,59,59,,,,,,,,1518.3933908538893,None,"['p', 'y', 'k', 'k', 'a']",1,"[0.8689158749766648, 1.1649280819110572, 2.084944572998211, 2.228867534082383, 2.3249085990246385]",1518.3933908538893,None,1518.392935764417,1518.4924388539512,,,,,,,,,,,,s210_03102023,001,2023_Mar_10_1632,test_typingtask_norepeats,2020.2.10,60.0344504201674,
cheer,cheer,,,,,0,60,60,60,,,,,,,,1523.8927923229057,None,"['c', 'h', 'e', 'e', 'r']",1,"[0.7695403120014817, 0.8895594158675522, 1.0174051190260798, 1.1455217939801514, 1.249484634026885]",1523.8927923229057,None,1523.8930083484388,1523.9930034868885,,,,,,,,,,,,s210_03102023,001,2023_Mar_10_1632,test_typingtask_norepeats,2020.2.10,60.0344504201674,
cooed,cooed,,,,,0,61,61,61,,,,,,,,1529.3932569550816,None,"['c', 'o', 'o', 'd']",0,"[0.6929735029116273, 0.9090096009895205, 1.0690743648447096, 1.1650606589391828]",1529.3932569550816,None,1529.3930398422758,1529.4930152578745,,,,,,,,,,,,s210_03102023,001,2023_Mar_10_1632,test_typingtask_norepeats,2020.2.10,60.0344504201674,
there,there,,,,,0,62,62,62,,,,,,,,1534.8935296288691,None,"['t', 'h', 'e', 'r', 'e']",1,"[0.6487780509050936, 0.760781197110191, 0.9366871339734644, 1.0406899079680443, 1.168765498092398]",1534.8935296288691,None,1534.8929063593037,1534.9929980149027,,,,,,,,,,,,s210_03102023,001,2023_Mar_10_1632,test_typingtask_norepeats,2020.2.10,60.0344504201674,
buddy,buddy,,,,,0,63,63,63,,,,,,,,1540.3930167579092,None,"['b', 'u', 'd', 'd', 'y']",1,"[0.8771899829152972, 1.117197467945516, 1.2693104110658169, 1.4132903718855232, 1.485268946038559]",1540.3930167579092,None,1540.3928299263584,1540.4929149989039,,,,,,,,,,,,s210_03102023,001,2023_Mar_10_1632,test_typingtask_norepeats,2020.2.10,60.0344504201674,
there,there,,,,,0,64,64,64,,,,,,,,1545.8930433238856,None,"['t', 'h', 'e', 'r', 'e']",1,"[0.6572956230957061, 0.7611987069249153, 0.8731807190924883, 0.9532948769629002, 1.0652451189234853]",1545.8930433238856,None,1545.8931637554429,1545.9929375760257,,,,,,,,,,,,s210_03102023,001,2023_Mar_10_1632,test_typingtask_norepeats,2020.2.10,60.0344504201674,
would,would,,,,,0,65,65,65,,,,,,,,1551.3930853500497,None,"['w', 'o', 'u', 'l', 'd']",1,"[0.7251493439543992, 0.9491865979507565, 1.1252675759606063, 1.3572562758345157, 1.5011091558262706]",1551.3930853500497,None,1551.3930351642425,1551.4929297659546,,,,,,,,,,,,s210_03102023,001,2023_Mar_10_1632,test_typingtask_norepeats,2020.2.10,60.0344504201674,
think,think,,,,,0,66,66,66,,,,,,,,1556.8931572078727,None,"['t', 'h', 'u', 'i', 'n', 'k']",0,"[0.6810557411517948, 0.8091173260472715, 0.9770424249581993, 0.9850527411326766, 1.3451528931036592, 1.4491704271640629]",1556.8931572078727,None,1556.8931264312937,1556.993279139977,,,,,,,,,,,,s210_03102023,001,2023_Mar_10_1632,test_typingtask_norepeats,2020.2.10,60.0344504201674,
theme,theme,,,,,0,67,67,67,,,,,,,,1562.3932245029137,None,"['t', 'h', 'e', 'm', 'e']",1,"[0.6530650099739432, 0.7331012990325689, 0.8850525510497391, 0.9731092839501798, 1.0851084000896662]",1562.3932245029137,None,1562.3931339824571,1562.4931830659043,,,,,,,,,,,,s210_03102023,001,2023_Mar_10_1632,test_typingtask_norepeats,2020.2.10,60.0344504201674,
belly,belly,,,,,0,68,68,68,,,,,,,,1567.8932312328834,None,"['b', 'e', 'l', 'l', 'y']",1,"[0.7690639458596706, 0.953055728925392, 1.0411057509481907, 1.2249933839775622, 1.4169848868623376]",1567.8932312328834,None,1567.8930878594051,1567.9931224710308,,,,,,,,,,,,s210_03102023,001,2023_Mar_10_1632,test_typingtask_norepeats,2020.2.10,60.0344504201674,
vanru,vanru,,,,,0,69,69,69,,,,,,,,1573.3930985638872,None,"['v', 'a', 'n', 'r', 'u']",1,"[0.8532547070644796, 0.9972333300393075, 1.1572417540010065, 1.31711140810512, 1.4771474380977452]",1573.3930985638872,None,1573.393141358299,1573.4932567300275,,,,,,,,,,,,s210_03102023,001,2023_Mar_10_1632,test_typingtask_norepeats,2020.2.10,60.0344504201674,
cooed,cooed,,,,,0,70,70,70,,,,,,,,1578.893043515971,None,"['v', 'o', 'o', 'e', 'd']",0,"[1.065280901035294, 2.1931815510615706, 2.409208342898637, 2.5771746260579675, 2.7532889880239964]",1578.893043515971,None,1578.8932062183972,1578.9930836679414,,,,,,,,,,,,s210_03102023,001,2023_Mar_10_1632,test_typingtask_norepeats,2020.2.10,60.0344504201674,
would,would,,,,,0,71,71,71,,,,,,,,1584.392942107981,None,"['w', 'o', 'u', 'l', 'd']",1,"[0.7172772749327123, 0.8454025969840586, 1.0373908579349518, 1.22934800805524, 1.3813422860112041]",1584.392942107981,None,1584.393146123411,1584.4930950938724,,,,,,,,,,,,s210_03102023,001,2023_Mar_10_1632,test_typingtask_norepeats,2020.2.10,60.0344504201674,
vanru,vanru,,,,,0,72,72,72,,,,,,,,1589.893243842991,None,"['v', 'a', 'n', 'r', 'u']",1,"[0.9450497291982174, 1.1611058071721345, 1.4089846981223673, 1.5769740052055568, 1.72905264608562]",1589.893243842991,None,1589.8930336394346,1589.993489292916,,,,,,,,,,,,s210_03102023,001,2023_Mar_10_1632,test_typingtask_norepeats,2020.2.10,60.0344504201674,
therm,therm,,,,,0,73,73,73,,,,,,,,1595.3929881970398,None,"['t', 'h', 'e', 'r', 'm']",1,"[0.7732942369766533, 0.9332554249558598, 1.1012175208888948, 1.2292223980184644, 1.3892279979772866]",1595.3929881970398,None,1595.3931055543012,1595.4932603428606,,,,,,,,,,,,s210_03102023,001,2023_Mar_10_1632,test_typingtask_norepeats,2020.2.10,60.0344504201674,
cheer,cheer,,,,,0,74,74,74,,,,,,,,1600.8933488959447,None,"['c', 'h', 'e', 'e', 'r']",1,"[0.7049888458568603, 0.8569935788400471, 1.0168670669663697, 1.1529904208146036, 1.2409538479987532]",1600.8933488959447,None,1600.8929628384299,1600.9935051230714,,,,,,,,,,,,s210_03102023,001,2023_Mar_10_1632,test_typingtask_norepeats,2020.2.10,60.0344504201674,
think,think,,,,,0,75,75,75,,,,,,,,1606.3932232400402,None,"['t', 'h', 'i', 'n', 'k']",1,"[0.6450803349725902, 0.8050526478327811, 0.9650799909140915, 1.2130873799324036, 1.3250374249182642]",1606.3932232400402,None,1606.393009871384,1606.4930228248704,,,,,,,,,,,,s210_03102023,001,2023_Mar_10_1632,test_typingtask_norepeats,2020.2.10,60.0344504201674,
would,would,,,,,0,76,76,76,,,,,,,,1611.8933061729185,None,"['w', 'o', 'u', 'l', 'd']",1,"[0.6808968398254365, 0.8729779908899218, 1.0409162088762969, 1.3209864678792655, 1.4410321589093655]",1611.8933061729185,None,1611.8930440574418,1611.9936902439222,,,,,,,,,,,,s210_03102023,001,2023_Mar_10_1632,test_typingtask_norepeats,2020.2.10,60.0344504201674,
vodka,vodka,,,,,0,77,77,77,,,,,,,,1617.393240232952,None,"['v', 'o', 'd', 'k', 'a']",1,"[0.8769724508747458, 1.125106745865196, 1.3251042708288878, 1.461007010890171, 1.5810230248607695]",1617.393240232952,None,1617.3930837094317,1617.4932756309863,,,,,,,,,,,,s210_03102023,001,2023_Mar_10_1632,test_typingtask_norepeats,2020.2.10,60.0344504201674,
therm,therm,,,,,0,78,78,78,,,,,,,,1622.8931808909401,None,"['t', 'h', 'e', 'r', 'm']",1,"[0.7050580680370331, 0.8170340750366449, 0.9211496419738978, 1.0091149001382291, 1.1051704289857298]",1622.8931808909401,None,1622.8931891633197,1622.9930972629227,,,,,,,,,,,,s210_03102023,001,2023_Mar_10_1632,test_typingtask_norepeats,2020.2.10,60.0344504201674,
think,think,,,,,0,79,79,79,,,,,,,,1628.3931522180792,None,"['t', 'h', 'i', 'n', 'k']",1,"[0.7971443058922887, 0.9731737049296498, 1.1331256087869406, 1.3411670147906989, 1.4371669569518417]",1628.3931522180792,None,1628.3932905633933,1628.4931851718575,,,,,,,,,,,,s210_03102023,001,2023_Mar_10_1632,test_typingtask_norepeats,2020.2.10,60.0344504201674,
theme,theme,,,,,0,80,80,80,,,,,,,,1633.8933352639433,None,"['t', 'h', 'm', 'e']",0,"[0.7049187310039997, 0.8089561541564763, 1.0969118219800293, 1.6888730691280216]",1633.8933352639433,None,1633.8933775682467,1633.9934204679448,,,,,,,,,,,,s210_03102023,001,2023_Mar_10_1632,test_typingtask_norepeats,2020.2.10,60.0344504201674,
heond,heond,,,,,0,81,81,81,,,,,,,,1639.3930136258714,None,"['h', 'e', 'o', 'n', 'd']",1,"[0.8853232450783253, 1.037312818923965, 1.1652872799895704, 1.373209253884852, 1.5011902248952538]",1639.3930136258714,None,1639.3930131142492,1639.4931490239687,,,,,,,,,,,,s210_03102023,001,2023_Mar_10_1632,test_typingtask_norepeats,2020.2.10,60.0344504201674,
think,think,,,,,0,82,82,82,,,,,,,,1644.8932318668813,None,"['t', 'h', 'i', 'n', 'k']",1,"[0.6330073331482708, 0.7769444091245532, 0.8970424879807979, 1.1050629380624741, 1.2169389501214027]",1644.8932318668813,None,1644.8932797614484,1644.993460675003,,,,,,,,,,,,s210_03102023,001,2023_Mar_10_1632,test_typingtask_norepeats,2020.2.10,60.0344504201674,
tithe,tithe,,,,,0,83,83,83,,,,,,,,1650.3930850878824,None,"['t', 'i', 't', 'h', 'e']",1,"[0.9492428039666265, 1.0612969489302486, 1.2131790739949793, 1.3332135090604424, 1.5012179201003164]",1650.3930850878824,None,1650.3932632144074,1650.493180725025,,,,,,,,,,,,s210_03102023,001,2023_Mar_10_1632,test_typingtask_norepeats,2020.2.10,60.0344504201674,
zibja,zibja,,,,,0,84,84,84,,,,,,,,1655.8930180210155,None,"['z', 'i', 'b', 'j', 'a']",1,"[0.9373106230050325, 1.3771930141374469, 1.6812727160286158, 1.8253244690131396, 1.9852014181669801]",1655.8930180210155,None,1655.8931730793788,1655.9934141389094,,,,,,,,,,,,s210_03102023,001,2023_Mar_10_1632,test_typingtask_norepeats,2020.2.10,60.0344504201674,
pykka,pykka,,,,,0,85,85,85,,,,,,,,1661.393046659883,None,"['p', 'y', 'k', 'k', 'a']",1,"[1.1412923578172922, 1.7651736638508737, 2.16527824383229, 2.3253441439010203, 2.4452333108056337]",1661.393046659883,None,1661.393149857316,1661.4931356650777,,,,,,,,,,,,s210_03102023,001,2023_Mar_10_1632,test_typingtask_norepeats,2020.2.10,60.0344504201674,
tithe,tithe,,,,,0,86,86,86,,,,,,,,1666.8930689920671,None,"['t', 'i', 't', 'h', 'e']",1,"[0.9611972039565444, 1.169257190078497, 1.3452774009201676, 1.4411685590166599, 1.5612805059645325]",1666.8930689920671,None,1666.8931159832514,1666.993237114977,,,,,,,,,,,,s210_03102023,001,2023_Mar_10_1632,test_typingtask_norepeats,2020.2.10,60.0344504201674,
about,about,,,,,0,87,87,87,,,,,,,,1672.3934315529186,None,"['a', 'b', 'o', 'u', 't']",1,"[0.6528593460097909, 1.3808330651372671, 1.6927850041538477, 1.7889203091617674, 1.9569069831632078]",1672.3934315529186,None,1672.3933264093007,1672.4931968508754,,,,,,,,,,,,s210_03102023,001,2023_Mar_10_1632,test_typingtask_norepeats,2020.2.10,60.0344504201674,
tithe,tithe,,,,,0,88,88,88,,,,,,,,1677.8932439328637,None,"['t', 'i', 't', 'h', 'e']",1,"[0.7210183590650558, 0.928954903036356, 1.1129793741274625, 1.1769853641744703, 1.312979584094137]",1677.8932439328637,None,1677.8932530213146,1677.9935745059047,,,,,,,,,,,,s210_03102023,001,2023_Mar_10_1632,test_typingtask_norepeats,2020.2.10,60.0344504201674,
about,about,,,,,0,89,89,89,,,,,,,,1683.3932417710312,None,"['a', 'b', 'o', 'u', 't']",1,"[0.6129852430894971, 0.8530873940326273, 1.0289556889329106, 1.1810383051633835, 1.2929856211412698]",1683.3932417710312,None,1683.3931069063487,1683.4928389510605,,,,,,,,,,,,s210_03102023,001,2023_Mar_10_1632,test_typingtask_norepeats,2020.2.10,60.0344504201674,
champ,champ,,,,,0,90,90,90,,,,,,,,1688.893765531946,None,"['c', 'h', 'a', 'm', 'p']",1,"[0.7685210229828954, 0.9045684549491853, 1.0245590328704566, 1.1845604488626122, 1.648560413857922]",1688.893765531946,None,1688.8935247113927,1688.9929823100101,,,,,,,,,,,,s210_03102023,001,2023_Mar_10_1632,test_typingtask_norepeats,2020.2.10,60.0344504201674,
druze,druze,,,,,0,91,91,91,,,,,,,,1694.3933577719145,None,"['d', 'r', 'u', 'z', 'e']",1,"[0.7248665678780526, 0.900860734982416, 1.1809287869837135, 1.3088807279709727, 1.564851274015382]",1694.3933577719145,None,1694.3933695942628,1694.4931411938742,,,,,,,,,,,,s210_03102023,001,2023_Mar_10_1632,test_typingtask_norepeats,2020.2.10,60.0344504201674,
heond,heond,,,,,0,92,92,92,,,,,,,,1699.8932129798923,None,"['h', 'e', 'o', 'n', 'd']",1,"[0.8731567969080061, 1.0330895339138806, 1.2251064288429916, 1.4410716989077628, 1.5290438157971948]",1699.8932129798923,None,1699.8931579903233,1699.9929866800085,,,,,,,,,,,,s210_03102023,001,2023_Mar_10_1632,test_typingtask_norepeats,2020.2.10,60.0344504201674,
tithe,tithe,,,,,0,93,93,93,,,,,,,,1705.3933458370157,None,"['t', 'i', 'e', 'h']",0,"[0.8449498720001429, 0.9408296179026365, 1.2529482839163393, 1.388958484865725]",1705.3933458370157,None,1705.3933655504602,1705.493257587077,,,,,,,,,,,,s210_03102023,001,2023_Mar_10_1632,test_typingtask_norepeats,2020.2.10,60.0344504201674,
champ,champ,,,,,0,94,94,94,,,,,,,,1710.8934433239046,None,"['c', 'h', 'a', 'm', 'p']",1,"[0.6888828051742166, 0.856883745174855, 0.9848161910194904, 1.0808178260922432, 1.4007749911397696]",1710.8934433239046,None,1710.8934529194607,1710.993295836961,,,,,,,,,,,,s210_03102023,001,2023_Mar_10_1632,test_typingtask_norepeats,2020.2.10,60.0344504201674,
zibja,zibja,,,,,0,95,95,95,,,,,,,,1716.3934101790655,None,"['z', 'i', 'b', 'j', 'a']",1,"[0.9248132931534201, 1.1408070100005716, 1.364789835177362, 1.4927857611328363, 1.684808730147779]",1716.3934101790655,None,1716.3932627822737,1716.4933442650363,,,,,,,,,,,,s210_03102023,001,2023_Mar_10_1632,test_typingtask_norepeats,2020.2.10,60.0344504201674,
heond,heond,,,,,0,96,96,96,,,,,,,,1721.893317160895,None,"['h', 'e', 'o', 'n', 'd']",1,"[0.7690071789547801, 0.9130471558310091, 1.0168988048098981, 1.2410093238577247, 1.3690130808390677]",1721.893317160895,None,1721.8932937962468,1721.9936074588913,,,,,,,,,,,,s210_03102023,001,2023_Mar_10_1632,test_typingtask_norepeats,2020.2.10,60.0344504201674,
cooed,cooed,,,,,0,97,97,97,,,,,,,,1727.3931617089547,None,"['c', 'o', 'o', 'e', 'd']",1,"[0.8531722680199891, 1.0851007900200784, 1.2611097749322653, 1.5651215629186481, 1.7411786110606045]",1727.3931617089547,None,1727.3933431302662,1727.49362509395,,,,,,,,,,,,s210_03102023,001,2023_Mar_10_1632,test_typingtask_norepeats,2020.2.10,60.0344504201674,
pykka,pykka,,,,,0,98,98,98,,,,,,,,1732.8933189420495,None,"['p', 'y', 'k', 'k', 'a']",1,"[1.2088953340426087, 1.584984814049676, 2.2729073751252145, 2.4248981941491365, 2.6089001081418246]",1732.8933189420495,None,1732.893400990311,1732.993267080048,,,,,,,,,,,,s210_03102023,001,2023_Mar_10_1632,test_typingtask_norepeats,2020.2.10,60.0344504201674,
faqir,faqir,,,,,0,99,99,99,,,,,,,,1738.3931442028843,None,"['f', 'a', 'q', 'i', 'r']",1,"[0.9971488469745964, 1.509071959881112, 1.9090638780035079, 2.125067840795964, 2.421126457862556]",1738.3931442028843,None,1738.393155836407,1738.4931595979724,,,,,,,,,,,,s210_03102023,001,2023_Mar_10_1632,test_typingtask_norepeats,2020.2.10,60.0344504201674,
cheer,cheer,,,,,0,100,100,100,,,,,,,,1743.8931752329227,None,"['c', 'h', 'e', 'e', 'r']",1,"[0.7291277919430286, 0.8731511319056153, 1.0411060468759388, 1.185152926016599, 1.257163577945903]",1743.8931752329227,None,1743.8931482812854,1743.993215618888,,,,,,,,,,,,s210_03102023,001,2023_Mar_10_1632,test_typingtask_norepeats,2020.2.10,60.0344504201674,
haole,haole,,,,,0,101,101,101,,,,,,,,1749.393275277922,None,"['h', 'a', 'o', 'l', 'e']",1,"[0.8129713081289083, 0.9889426410663873, 1.1889525800943375, 1.3889592660125345, 1.4850260850507766]",1749.393275277922,None,1749.3931466703302,1749.49327244889,,,,,,,,,,,,s210_03102023,001,2023_Mar_10_1632,test_typingtask_norepeats,2020.2.10,60.0344504201674,
vodka,vodka,,,,,0,102,102,102,,,,,,,,1754.8933519579004,None,"['v', 'o', 'd', 'k', 'a']",1,"[0.9208977040834725, 1.0728731618728489, 1.224974586861208, 1.36093422700651, 1.5690273579675704]",1754.8933519579004,None,1754.8931017163209,1754.9933036880102,,,,,,,,,,,,s210_03102023,001,2023_Mar_10_1632,test_typingtask_norepeats,2020.2.10,60.0344504201674,
lucky,lucky,,,,,0,103,103,103,,,,,,,,1760.393431836972,None,"['l', 'u', 'c', 'k', 'y']",1,"[0.8208712479099631, 1.0768504769075662, 1.3808440170250833, 1.5088081969879568, 1.7648531279992312]",1760.393431836972,None,1760.393135159416,1760.4933578078635,,,,,,,,,,,,s210_03102023,001,2023_Mar_10_1632,test_typingtask_norepeats,2020.2.10,60.0344504201674,
vodka,vodka,,,,,0,104,104,104,,,,,,,,1765.8933321279474,None,"['v', 'o', 'd', 'k', 'a']",1,"[0.9450211359653622, 1.1370307919569314, 1.2889558009337634, 1.4169901069253683, 1.688909922959283]",1765.8933321279474,None,1765.893380126357,1765.9932746919803,,,,,,,,,,,,s210_03102023,001,2023_Mar_10_1632,test_typingtask_norepeats,2020.2.10,60.0344504201674,
therm,therm,,,,,0,105,105,105,,,,,,,,1771.3933163438924,None,"['t', 'h', 'e', 'r', 'm']",1,"[0.7649418609216809, 0.8928921020124108, 0.9890235939528793, 1.0689857399556786, 1.189015171956271]",1771.3933163438924,None,1771.3934716253075,1771.4935748910066,,,,,,,,,,,,s210_03102023,001,2023_Mar_10_1632,test_typingtask_norepeats,2020.2.10,60.0344504201674,
faqir,faqir,,,,,0,106,106,106,,,,,,,,1776.8934397499543,None,"['f', 'a', 'i', 'q', 'e', 'r']",0,"[0.768884606892243, 0.9448712798766792, 1.2968911118805408, 1.7448901000898331, 1.9609457119368017, 2.1688704208936542]",1776.8934397499543,None,1776.8934388003777,1776.9932617379818,,,,,,,,,,,,s210_03102023,001,2023_Mar_10_1632,test_typingtask_norepeats,2020.2.10,60.0344504201674,
tithe,tithe,,,,,0,107,107,107,,,,,,,,1782.3935811698902,None,"['t', 'i', 't', 'h', 'e']",1,"[0.7646818419452757, 1.0047493891324848, 1.1887550631072372, 1.2847407970111817, 1.4047001439612359]",1782.3935811698902,None,1782.393426517397,1782.4936651699245,,,,,,,,,,,,s210_03102023,001,2023_Mar_10_1632,test_typingtask_norepeats,2020.2.10,60.0344504201674,
buddy,buddy,,,,,0,108,108,108,,,,,,,,1787.893679948058,None,"['b', 'u', 'd', 'd', 'y']",1,"[0.8326471489854157, 1.1046006500255316, 1.2485735609661788, 1.4165684280451387, 1.4886097400449216]",1787.893679948058,None,1787.8934228072408,1787.993592561921,,,,,,,,,,,,s210_03102023,001,2023_Mar_10_1632,test_typingtask_norepeats,2020.2.10,60.0344504201674,
zibja,zibja,,,,,0,109,109,109,,,,,,,,1793.3932194889057,None,"['z', 'i', 'b', 'j', 'a']",1,"[0.8371028311084956, 1.2290542460978031, 1.5890546501614153, 1.7731130411848426, 1.9490739090833813]",1793.3932194889057,None,1793.3937711593694,1793.493782334961,,,,,,,,,,,,s210_03102023,001,2023_Mar_10_1632,test_typingtask_norepeats,2020.2.10,60.0344504201674,
faqir,faqir,,,,,0,110,110,110,,,,,,,,1798.8933224950451,None,"['f', 'a', 'q', 'i', 'r']",1,"[0.8889021549839526, 1.0889729321934283, 1.4569724611938, 1.6329396851360798, 1.8569005550816655]",1798.8933224950451,None,1798.8932923864572,1798.993284404045,,,,,,,,,,,,s210_03102023,001,2023_Mar_10_1632,test_typingtask_norepeats,2020.2.10,60.0344504201674,
vanru,vanru,,,,,0,111,111,111,,,,,,,,1804.393314658897,None,"['v', 'a', 'n', 'r', 'u']",1,"[0.8290263630915433, 0.9971919669769704, 1.1410217229276896, 1.2690137019380927, 1.4450007248669863]",1804.393314658897,None,1804.3934483173302,1804.4936351070646,,,,,,,,,,,,s210_03102023,001,2023_Mar_10_1632,test_typingtask_norepeats,2020.2.10,60.0344504201674,
theme,theme,,,,,0,112,112,112,,,,,,,,1809.8933710278943,None,"['t', 'h', 'e', 'm']",0,"[0.9690018929541111, 1.0648511939216405, 1.2489538178779185, 1.352953736903146]",1809.8933710278943,None,1809.893278894387,1809.9934998750687,,,,,,,,,,,,s210_03102023,001,2023_Mar_10_1632,test_typingtask_norepeats,2020.2.10,60.0344504201674,
edthe,edthe,,,,,0,113,113,113,,,,,,,,1815.393530933885,None,"['e', 'd', 't', 'h', 'e']",1,"[0.7167877641040832, 0.8926847390830517, 1.0687974230386317, 1.1646925481036305, 1.2447807879652828]",1815.393530933885,None,1815.3935400062705,1815.4935703310184,,,,,,,,,,,,s210_03102023,001,2023_Mar_10_1632,test_typingtask_norepeats,2020.2.10,60.0344504201674,
would,would,,,,,0,114,114,114,,,,,,,,1820.893646138953,None,"['w', 'o', 'u', 'l', 'd']",1,"[1.2805801110807806, 1.5846582259982824, 1.7605846300721169, 1.9845629401970655, 2.1046942791435868]",1820.893646138953,None,1820.8933606612495,1820.9933413630351,,,,,,,,,,,,s210_03102023,001,2023_Mar_10_1632,test_typingtask_norepeats,2020.2.10,60.0344504201674,
puppy,puppy,,,,,0,115,115,115,,,,,,,,1826.3935614670627,None,"['p', 'u', 'p', 'p', 'y']",1,"[1.0127226628828794, 1.692660657921806, 2.0126871368847787, 2.1487567159347236, 2.6047793289180845]",1826.3935614670627,None,1826.3933721833396,1826.49309288105,,,,,,,,,,,,s210_03102023,001,2023_Mar_10_1632,test_typingtask_norepeats,2020.2.10,60.0344504201674,
haole,haole,,,,,0,116,116,116,,,,,,,,1831.8936322119553,None,"['h', 'a', 'o', 'l', 'e']",1,"[0.6486944840289652, 0.800585743971169, 1.0005752078723162, 1.216653211042285, 1.3286914569325745]",1831.8936322119553,None,1831.893312699301,1831.993172839051,,,,,,,,,,,,s210_03102023,001,2023_Mar_10_1632,test_typingtask_norepeats,2020.2.10,60.0344504201674,
belly,belly,,,,,0,117,117,117,,,,,,,,1837.3935470948927,None,"['b', 'e', 'e', 'l', 'l', 'y']",0,"[0.7407903380226344, 0.948775373166427, 1.1086987510789186, 1.2207437430042773, 1.3567522240336984, 1.5327738029882312]",1837.3935470948927,None,1837.393765025446,1837.493797076866,,,,,,,,,,,,s210_03102023,001,2023_Mar_10_1632,test_typingtask_norepeats,2020.2.10,60.0344504201674,
zibja,zibja,,,,,0,118,118,118,,,,,,,,1842.8934498499148,None,"['z', 'i', 'b', 'j', 'a']",1,"[1.0168232638388872, 1.248851325828582, 1.432849467964843, 1.5688324738293886, 1.696850816020742]",1842.8934498499148,None,1842.8935608574188,1842.9932908529881,,,,,,,,,,,,s210_03102023,001,2023_Mar_10_1632,test_typingtask_norepeats,2020.2.10,60.0344504201674,
about,about,,,,,0,119,119,119,,,,,,,,1848.393454428995,None,"['a', 'b', 'o', 'u', 't']",1,"[0.5568629507906735, 0.6767369948793203, 0.9088034129235893, 1.1168018109165132, 1.2048389299307019]",1848.393454428995,None,1848.3935122123453,1848.4935150269885,,,,,,,,,,,,s210_03102023,001,2023_Mar_10_1632,test_typingtask_norepeats,2020.2.10,60.0344504201674,
druze,druze,,,,,,,,,0,0,0,0,,,,,,,,,,,,,1853.8935677530244,None,2046.150696148863,None,"['d', 'r', 'u', 'z', 'e']",1,"[1.5515393509995192, 1.7676325330976397, 2.2476463401690125, 2.3517304530832916, 2.559633537195623]",2046.150696148863,None,2046.1441648012492,2046.2441286400426,s210_03102023,001,2023_Mar_10_1632,test_typingtask_norepeats,2020.2.10,60.0344504201674,
tithe,tithe,,,,,,,,,0,1,1,1,,,,,,,,,,,,,,,2051.6601894879714,None,"['t', 'i', 't', 'h', 'e']",1,"[0.7620783969759941, 0.8581046417821199, 1.0260406618472189, 1.0980347429867834, 1.2261981528718024]",2051.6601894879714,None,2051.6603438094257,2051.7604077230208,s210_03102023,001,2023_Mar_10_1632,test_typingtask_norepeats,2020.2.10,60.0344504201674,
cooed,cooed,,,,,,,,,0,2,2,2,,,,,,,,,,,,,,,2057.1603646778967,None,"['c', 'o', 'o', 'e', 'd']",1,"[0.9979180141817778, 1.1418588901869953, 1.2938654301688075, 1.3979068310000002, 1.5659230300225317]",2057.1603646778967,None,2057.1604796793777,2057.2605377449654,s210_03102023,001,2023_Mar_10_1632,test_typingtask_norepeats,2020.2.10,60.0344504201674,
heond,heond,,,,,,,,,0,3,3,3,,,,,,,,,,,,,,,2062.660517313052,None,"['h', 'e', 'o', 'n', 'd']",1,"[0.8097069461364299, 0.9217092101462185, 1.0336976610124111, 1.3218217100948095, 1.4257567001041025]",2062.660517313052,None,2062.6602187253534,2062.7604044359177,s210_03102023,001,2023_Mar_10_1632,test_typingtask_norepeats,2020.2.10,60.0344504201674,
champ,champ,,,,,,,,,0,4,4,4,,,,,,,,,,,,,,,2068.1605380659457,None,"['c', 'h', 'a', 'm', 'p']",1,"[0.685789834940806, 0.7977031329646707, 0.9096925610210747, 0.9897895371541381, 1.1336696711368859]",2068.1605380659457,None,2068.1604085172526,2068.2604413360823,s210_03102023,001,2023_Mar_10_1632,test_typingtask_norepeats,2020.2.10,60.0344504201674,
pykka,pykka,,,,,,,,,0,5,5,5,,,,,,,,,,,,,,,2073.66046273103,None,"['p', 'y', 'l', 'l', 'a']",0,"[1.1058649010956287, 1.665839646011591, 2.0018378640525043, 2.1458076550625265, 2.217754435027018]",2073.66046273103,None,2073.660330172302,2073.7604153959546,s210_03102023,001,2023_Mar_10_1632,test_typingtask_norepeats,2020.2.10,60.0344504201674,
vodka,vodka,,,,,,,,,0,6,6,6,,,,,,,,,,,,,,,2079.1606556139886,None,"['v', 'o', 'd', 'k', 'a']",1,"[0.9256317741237581, 1.0295529570430517, 1.1896694609895349, 1.2856723479926586, 1.4296107650734484]",2079.1606556139886,None,2079.160489038238,2079.2603263149504,s210_03102023,001,2023_Mar_10_1632,test_typingtask_norepeats,2020.2.10,60.0344504201674,
puppy,puppy,,,,,,,,,0,7,7,7,,,,,,,,,,,,,,,2084.660439753905,None,"['p', 'u', 'y']",0,"[1.2977767770644277, 1.7937597630079836, 2.8097706800326705]",2084.660439753905,None,2084.660546238441,2084.7603508040775,s210_03102023,001,2023_Mar_10_1632,test_typingtask_norepeats,2020.2.10,60.0344504201674,
vanru,vanru,,,,,,,,,0,8,8,8,,,,,,,,,,,,,,,2090.1605276109185,None,"['v', 'a', 'n', 'r', 'u']",1,"[1.4377496410161257, 1.5578120010904968, 1.6698024729266763, 1.773806642042473, 2.2056824578903615]",2090.1605276109185,None,2090.1603158164303,2090.2603771819267,s210_03102023,001,2023_Mar_10_1632,test_typingtask_norepeats,2020.2.10,60.0344504201674,
heond,heond,,,,,,,,,0,9,9,9,,,,,,,,,,,,,,,2095.660495020915,None,"['h', 'e', 'o', 'n', 'd']",1,"[0.9298468010965735, 1.049818661995232, 1.1777594659943134, 1.3617749200202525, 1.4257879650685936]",2095.660495020915,None,2095.6604488954413,2095.7606300129555,s210_03102023,001,2023_Mar_10_1632,test_typingtask_norepeats,2020.2.10,60.0344504201674,
buddy,buddy,,,,,,,,,0,10,10,10,,,,,,,,,,,,,,,2101.160642832052,None,"['b', 'u', 'd', 'd', 'y']",1,"[0.9256422491744161, 1.1976106921210885, 1.3656765681225806, 1.5095736351795495, 1.6935574039816856]",2101.160642832052,None,2101.1605064074042,2101.260551155079,s210_03102023,001,2023_Mar_10_1632,test_typingtask_norepeats,2020.2.10,60.0344504201674,
cheer,cheer,,,,,,,,,0,11,11,11,,,,,,,,,,,,,,,2106.6604998370167,None,"['c', 'h', 'e', 'e', 'r']",1,"[0.6658203140832484, 0.7618577659595758, 0.8897842029109597, 1.01771652395837, 1.089825371047482]",2106.6604998370167,None,2106.660687357327,2106.7606654649135,s210_03102023,001,2023_Mar_10_1632,test_typingtask_norepeats,2020.2.10,60.0344504201674,
kremp,kremp,,,,,,,,,0,12,12,12,,,,,,,,,,,,,,,2112.1604024579283,None,"['l', 'r', 'e', 'm', 'p']",0,"[0.8058776380494237, 1.1258598889689893, 1.2779471490066499, 1.3579057201277465, 1.79786158609204]",2112.1604024579283,None,2112.1604943104553,2112.2605463180225,s210_03102023,001,2023_Mar_10_1632,test_typingtask_norepeats,2020.2.10,60.0344504201674,
cooed,cooed,,,,,,,,,0,13,13,13,,,,,,,,,,,,,,,2117.6603209469467,None,"['c', 'o', 'o', 'e', 'd']",1,"[0.7540171758737415, 1.0178953378926963, 1.1780014138203114, 1.2578969239257276, 1.4178782338276505]",2117.6603209469467,None,2117.660379265342,2117.760546718957,s210_03102023,001,2023_Mar_10_1632,test_typingtask_norepeats,2020.2.10,60.0344504201674,
lucky,lucky,,,,,,,,,0,14,14,14,,,,,,,,,,,,,,,2123.160431295866,None,"['l', 'u', 'c', 'l', 'y']",0,"[0.7019119060132653, 0.9018792510032654, 1.1018946778494865, 1.237846033880487, 1.4937846229877323]",2123.160431295866,None,2123.1605804023798,2123.2604958380107,s210_03102023,001,2023_Mar_10_1632,test_typingtask_norepeats,2020.2.10,60.0344504201674,
think,think,,,,,,,,,0,15,15,15,,,,,,,,,,,,,,,2128.6604716798756,None,"['t', 'h', 'i', 'n', 'k']",1,"[0.6578124519437551, 0.7378656880464405, 0.8658530218526721, 1.0337429288774729, 1.0817924558650702]",2128.6604716798756,None,2128.660529670445,2128.7605249730404,s210_03102023,001,2023_Mar_10_1632,test_typingtask_norepeats,2020.2.10,60.0344504201674,
theme,theme,,,,,,,,,0,16,16,16,,,,,,,,,,,,,,,2134.1605862569995,None,"['t', 'h', 'e', 'm', 'e']",1,"[0.6617543241009116, 0.7577495239675045, 0.877762250136584, 0.9816757370717824, 1.0617921689990908]",2134.1605862569995,None,2134.16036790926,2134.260552918073,s210_03102023,001,2023_Mar_10_1632,test_typingtask_norepeats,2020.2.10,60.0344504201674,
druze,druze,,,,,,,,,0,17,17,17,,,,,,,,,,,,,,,2139.660537169082,None,"['d', 'r', 'u', 'z', 'e']",1,"[0.5857653450220823, 0.8497651091311127, 1.1456872951239347, 1.3857544909697026, 1.6176797091029584]",2139.660537169082,None,2139.660291619273,2139.7605802810285,s210_03102023,001,2023_Mar_10_1632,test_typingtask_norepeats,2020.2.10,60.0344504201674,
faqir,faqir,,,,,,,,,0,18,18,18,,,,,,,,,,,,,,,2145.1606062438805,None,"['f', 'a', 'q', 'i', 'e']",0,"[0.6456214201170951, 0.7897170640062541, 1.0936221340671182, 1.2377321149688214, 1.47777699213475]",2145.1606062438805,None,2145.1603546814526,2145.2604887068737,s210_03102023,001,2023_Mar_10_1632,test_typingtask_norepeats,2020.2.10,60.0344504201674,
vanru,vanru,,,,,,,,,0,19,19,19,,,,,,,,,,,,,,,2150.660459762905,None,"['v', 'a', 'n', 'r', 'u']",1,"[0.7058277290780097, 0.84982237406075, 0.9937537801451981, 1.057879643049091, 1.2417561730835587]",2150.660459762905,None,2150.6604392562526,2150.7604490539525,s210_03102023,001,2023_Mar_10_1632,test_typingtask_norepeats,2020.2.10,60.0344504201674,
tithe,tithe,,,,,,,,,0,20,20,20,,,,,,,,,,,,,,,2156.160584813915,None,"['t', 'i', 't', 'h', 'e']",1,"[0.7577425700146705, 0.8697428752202541, 1.0216940951067954, 1.11763082514517, 1.2057508730795234]",2156.160584813915,None,2156.160660378309,2156.2604713710025,s210_03102023,001,2023_Mar_10_1632,test_typingtask_norepeats,2020.2.10,60.0344504201674,
edthe,edthe,,,,,,,,,0,21,21,21,,,,,,,,,,,,,,,2161.6606673519127,None,"['e', 'd', 't', 'h', 'e']",1,"[0.6415873439982533, 0.8095484580844641, 0.9696410871110857, 1.113658546935767, 1.1375440850388259]",2161.6606673519127,None,2161.6606513724196,2161.7608519368805,s210_03102023,001,2023_Mar_10_1632,test_typingtask_norepeats,2020.2.10,60.0344504201674,
would,would,,,,,,,,,0,22,22,22,,,,,,,,,,,,,,,2167.160556514049,None,"['w', 'o', 'u', 'l', 'd']",1,"[0.7817007401026785, 0.9497568560764194, 1.085688655031845, 1.2936446859966964, 1.4057180450763553]",2167.160556514049,None,2167.160343667399,2167.2607442149892,s210_03102023,001,2023_Mar_10_1632,test_typingtask_norepeats,2020.2.10,60.0344504201674,
champ,champ,,,,,,,,,0,23,23,23,,,,,,,,,,,,,,,2172.6605756920762,None,"['c', 'h', 'a', 'm', 'p']",1,"[0.6896740258671343, 0.8095923459623009, 0.9455813379026949, 1.0335766959469765, 1.2896945560351014]",2172.6605756920762,None,2172.660623958241,2172.760702342959,s210_03102023,001,2023_Mar_10_1632,test_typingtask_norepeats,2020.2.10,60.0344504201674,
zibja,zibja,,,,,,,,,0,24,24,24,,,,,,,,,,,,,,,2178.1605386328883,None,"['z', 'i', 'b', 'j', 'a']",1,"[0.8377382440958172, 1.0377408920321614, 1.2777756659779698, 1.3657771989237517, 1.4936713511124253]",2178.1605386328883,None,2178.1607671483885,2178.260515437927,s210_03102023,001,2023_Mar_10_1632,test_typingtask_norepeats,2020.2.10,60.0344504201674,
puppy,puppy,,,,,,,,,0,25,25,25,,,,,,,,,,,,,,,2183.6606141738594,None,"['p', 'u']",0,"[1.2976151630282402, 1.5216077719815075]",2183.6606141738594,None,2183.6607311574276,2183.760676278034,s210_03102023,001,2023_Mar_10_1632,test_typingtask_norepeats,2020.2.10,60.0344504201674,
buddy,buddy,,,,,,,,,0,26,26,26,,,,,,,,,,,,,,,2189.1604898620863,None,"['b', 'u', 'd', 'd', 'y']",1,"[1.2937907169107348, 1.4937169749755412, 1.661791356978938, 1.8058482939377427, 1.9418330378830433]",2189.1604898620863,None,2189.160524483444,2189.260235202033,s210_03102023,001,2023_Mar_10_1632,test_typingtask_norepeats,2020.2.10,60.0344504201674,
faqir,faqir,,,,,,,,,0,27,27,27,,,,,,,,,,,,,,,2194.66046707402,None,"['f', 'a', 'q', 'i', 'e']",0,"[0.6017945199273527, 0.7937525031156838, 1.1618370700161904, 1.2817967259325087, 1.4177406469825655]",2194.66046707402,None,2194.6605825763195,2194.760280083865,s210_03102023,001,2023_Mar_10_1632,test_typingtask_norepeats,2020.2.10,60.0344504201674,
puppy,puppy,,,,,,,,,0,28,28,28,,,,,,,,,,,,,,,2200.161219846923,None,"['p', 'u', 'u', 'p', 'y']",0,"[1.5169919210020453, 2.1411156312096864, 2.2850673731882125, 2.4290002312045544, 3.0369768000673503]",2200.161219846923,None,2200.160587813379,2200.260323537048,s210_03102023,001,2023_Mar_10_1632,test_typingtask_norepeats,2020.2.10,60.0344504201674,
druze,druze,,,,,,,,,0,29,29,29,,,,,,,,,,,,,,,2205.6606504530646,None,"['d', 'r', 'u', 'z', 'e']",1,"[0.8895739899016917, 1.1296342618297786, 1.4496169839985669, 1.5456045009195805, 1.75366981793195]",2205.6606504530646,None,2205.660361593263,2205.760529974941,s210_03102023,001,2023_Mar_10_1632,test_typingtask_norepeats,2020.2.10,60.0344504201674,
tithe,tithe,,,,,,,,,0,30,30,30,,,,,,,,,,,,,,,2211.160735274898,None,"['t', 'i', 't', 'h', 'e']",1,"[0.7414864290039986, 0.8454679599963129, 0.9975199289619923, 1.0934681249782443, 1.1815725059714168]",2211.160735274898,None,2211.160482460307,2211.260878690984,s210_03102023,001,2023_Mar_10_1632,test_typingtask_norepeats,2020.2.10,60.0344504201674,
haole,haole,,,,,,,,,0,31,31,31,,,,,,,,,,,,,,,2216.660615802044,None,"['h', 'a', 'o', 'l', 'e']",1,"[0.7456416010390967, 0.8976561070885509, 1.0336909301113337, 1.2335938441101462, 1.3136703330092132]",2216.660615802044,None,2216.6605025922413,2216.760611115955,s210_03102023,001,2023_Mar_10_1632,test_typingtask_norepeats,2020.2.10,60.0344504201674,
therm,therm,,,,,,,,,0,32,32,32,,,,,,,,,,,,,,,2222.1607794598676,None,"['t', 'h', 'e', 'r', 'm']",1,"[0.6455213220324367, 0.7415657478850335, 0.8695134019944817, 0.9495117939077318, 1.045472732046619]",2222.1607794598676,None,2222.160640130425,2222.260567542864,s210_03102023,001,2023_Mar_10_1632,test_typingtask_norepeats,2020.2.10,60.0344504201674,
there,there,,,,,,,,,0,33,33,33,,,,,,,,,,,,,,,2227.6606956850737,None,"['t', 'h', 'e', 'r', 'e']",1,"[0.6656163427978754, 0.7856480819173157, 0.9215128819923848, 1.0015424208249897, 1.14561672299169]",2227.6606956850737,None,2227.6606497793923,2227.760407716967,s210_03102023,001,2023_Mar_10_1632,test_typingtask_norepeats,2020.2.10,60.0344504201674,
cheer,cheer,,,,,,,,,0,34,34,34,,,,,,,,,,,,,,,2233.1608424088918,None,"['c', 'h', 'e', 'e', 'r']",1,"[0.6454679949674755, 0.7734448460396379, 0.9014820149168372, 1.02938192198053, 1.1333767180331051]",2233.1608424088918,None,2233.1608485224656,2233.260588245932,s210_03102023,001,2023_Mar_10_1632,test_typingtask_norepeats,2020.2.10,60.0344504201674,
therm,therm,,,,,,,,,0,35,35,35,,,,,,,,,,,,,,,2238.660817709053,None,"['t', 'h', 'e', 'r', 'm']",1,"[0.6575178639031947, 0.7534790649078786, 0.8814453668892384, 0.9534671208821237, 1.0495012567844242]",2238.660817709053,None,2238.660758336447,2238.7606714619324,s210_03102023,001,2023_Mar_10_1632,test_typingtask_norepeats,2020.2.10,60.0344504201674,
zibja,zibja,,,,,,,,,0,36,36,36,,,,,,,,,,,,,,,2244.161071612034,None,"['z', 'i', 'b', 'j', 'a']",1,"[0.7251327268313617, 0.9732552799396217, 1.1892504070419818, 1.2692068899050355, 1.3971598909702152]",2244.161071612034,None,2244.1607203952967,2244.260747465072,s210_03102023,001,2023_Mar_10_1632,test_typingtask_norepeats,2020.2.10,60.0344504201674,
therm,therm,,,,,,,,,0,37,37,37,,,,,,,,,,,,,,,2249.6607238398865,None,"['t', 'h', 'e', 'r', 'm']",1,"[0.6575595340691507, 0.7536041680723429, 0.8736132080666721, 0.9375275869388133, 1.0655480150599033]",2249.6607238398865,None,2249.6607783054,2249.7610496659763,s210_03102023,001,2023_Mar_10_1632,test_typingtask_norepeats,2020.2.10,60.0344504201674,
lucky,lucky,,,,,,,,,0,38,38,38,,,,,,,,,,,,,,,2255.1606708690524,None,"['l', 'u', 'c', 'k', 'y']",1,"[0.6696392199955881, 0.9015750929247588, 1.0616267500445247, 1.1415369608439505, 1.3336291080340743]",2255.1606708690524,None,2255.160907928273,2255.2607657478657,s210_03102023,001,2023_Mar_10_1632,test_typingtask_norepeats,2020.2.10,60.0344504201674,
theme,theme,,,,,,,,,0,39,39,39,,,,,,,,,,,,,,,2260.6605904239696,None,"['t', 'h', 'e', 'm', 'e']",1,"[0.6577394059859216, 0.7297239650506526, 0.8816776410676539, 1.0016299900598824, 1.3376949590165168]",2260.6605904239696,None,2260.6607198043725,2260.7608594929334,s210_03102023,001,2023_Mar_10_1632,test_typingtask_norepeats,2020.2.10,60.0344504201674,
druze,druze,,,,,,,,,0,40,40,40,,,,,,,,,,,,,,,2266.160609630868,None,"['d', 'r', 'u', 'z', 'e']",1,"[0.6857189750298858, 0.8537390490528196, 1.0456721789669245, 1.133695748867467, 1.3096154669765383]",2266.160609630868,None,2266.1607312303036,2266.2607183810323,s210_03102023,001,2023_Mar_10_1632,test_typingtask_norepeats,2020.2.10,60.0344504201674,
edthe,edthe,,,,,,,,,0,41,41,41,,,,,,,,,,,,,,,2271.660631306004,None,"['e', 'd', 't', 'h', 'e']",1,"[0.6417025080882013, 0.8256115179974586, 0.9936427630018443, 1.0896161391865462, 1.1696959419641644]",2271.660631306004,None,2271.6606660074553,2271.7608276479878,s210_03102023,001,2023_Mar_10_1632,test_typingtask_norepeats,2020.2.10,60.0344504201674,
would,would,,,,,,,,,0,42,42,42,,,,,,,,,,,,,,,2277.16072014207,None,"['w', 'o', 'u', 'l', 'd']",1,"[0.6375558238942176, 0.8055123838130385, 0.9415055538993329, 1.157609366811812, 1.2934857718646526]",2277.16072014207,None,2277.1605860652867,2277.261148486985,s210_03102023,001,2023_Mar_10_1632,test_typingtask_norepeats,2020.2.10,60.0344504201674,
vodka,vodka,,,,,,,,,0,43,43,43,,,,,,,,,,,,,,,2282.66074834601,None,"['v', 'o', 'd', 'k', 'a']",1,"[0.7695857011713088, 0.8975518501829356, 1.0814943460281938, 1.1935268871020526, 1.361573258182034]",2282.66074834601,None,2282.6606598753947,2282.7612059318926,s210_03102023,001,2023_Mar_10_1632,test_typingtask_norepeats,2020.2.10,60.0344504201674,
druze,druze,,,,,,,,,0,44,44,44,,,,,,,,,,,,,,,2288.1612333469093,None,"['d', 'r', 'u', 'z', 'e']",1,"[0.908985307905823, 1.0771004650741816, 1.285095107043162, 1.4051882319618016, 1.5810318170115352]",2288.1612333469093,None,2288.1605107552837,2288.260655075079,s210_03102023,001,2023_Mar_10_1632,test_typingtask_norepeats,2020.2.10,60.0344504201674,
kremp,kremp,,,,,,,,,0,45,45,45,,,,,,,,,,,,,,,2293.660823564045,None,"['k', 'r', 'e', 'm', 'p']",1,"[1.1774269510060549, 1.5774377018678933, 1.7695209740195423, 1.8814419219270349, 2.22540046996437]",2293.660823564045,None,2293.6606178194284,2293.760721432045,s210_03102023,001,2023_Mar_10_1632,test_typingtask_norepeats,2020.2.10,60.0344504201674,
think,think,,,,,,,,,0,46,46,46,,,,,,,,,,,,,,,2299.1607994439546,None,"['t', 'h', 'i', 'n', 'k']",1,"[0.6455267840065062, 0.7414847281761467, 0.8615255190525204, 1.0454000071622431, 1.1255030641332269]",2299.1607994439546,None,2299.1608057733624,2299.2612794120796,s210_03102023,001,2023_Mar_10_1632,test_typingtask_norepeats,2020.2.10,60.0344504201674,
theme,theme,,,,,,,,,0,47,47,47,,,,,,,,,,,,,,,2304.660845068982,None,"['t', 'h', 'e', 'm', 'e']",1,"[0.657490978948772, 0.7454719441011548, 0.8974496230948716, 0.9854604010470212, 1.1053933061193675]",2304.660845068982,None,2304.6609185784123,2304.760685941903,s210_03102023,001,2023_Mar_10_1632,test_typingtask_norepeats,2020.2.10,60.0344504201674,
think,think,,,,,,,,,0,48,48,48,,,,,,,,,,,,,,,2310.160869208863,None,"['t', 'h', 'i', 'n', 'k']",1,"[0.5653651100583375, 0.7013358930125833, 0.8054619368631393, 0.9813864650204778, 1.045433681923896]",2310.160869208863,None,2310.1609878883696,2310.2608278929256,s210_03102023,001,2023_Mar_10_1632,test_typingtask_norepeats,2020.2.10,60.0344504201674,
there,there,,,,,,,,,0,49,49,49,,,,,,,,,,,,,,,2315.661028017057,None,"['t', 'h', 'e', 'r', 'e']",1,"[0.5452458949293941, 0.6652706749737263, 0.8572526818607002, 0.9612782588228583, 1.073260520817712]",2315.661028017057,None,2315.660759205371,2315.7606628539506,s210_03102023,001,2023_Mar_10_1632,test_typingtask_norepeats,2020.2.10,60.0344504201674,
faqir,faqir,,,,,,,,,0,50,50,50,,,,,,,,,,,,,,,2321.1607375259046,None,"['f', 'a', 'q', 'i', 'r']",1,"[0.7094885720871389, 1.0455270810052752, 1.9015222019515932, 2.069564430974424, 2.357487709959969]",2321.1607375259046,None,2321.1608365233055,2321.260951122036,s210_03102023,001,2023_Mar_10_1632,test_typingtask_norepeats,2020.2.10,60.0344504201674,
cooed,cooed,,,,,,,,,0,51,51,51,,,,,,,,,,,,,,,2326.6607279849704,None,"['c', 'o', 'o', 'e', 'd']",1,"[1.5696053360588849, 1.7934736961033195, 1.9615733709651977, 2.1455313491169363, 2.2975272750481963]",2326.6607279849704,None,2326.660737882275,2326.7608259010594,s210_03102023,001,2023_Mar_10_1632,test_typingtask_norepeats,2020.2.10,60.0344504201674,
there,there,,,,,,,,,0,52,52,52,,,,,,,,,,,,,,,2332.160750976065,None,"['t', 'h', 'e', 'r', 'e']",1,"[0.5655719111673534, 0.7015271841082722, 0.8616171160247177, 1.0055341131519526, 1.1254944440443069]",2332.160750976065,None,2332.1607792413793,2332.2608587408904,s210_03102023,001,2023_Mar_10_1632,test_typingtask_norepeats,2020.2.10,60.0344504201674,
champ,champ,,,,,,,,,0,53,53,53,,,,,,,,,,,,,,,2337.660729737021,None,"['c', 'h', 'a', 'm', 'p']",1,"[0.7135715731419623, 0.849596010055393, 0.9616264670621604, 1.0895097581669688, 1.3695971260312945]",2337.660729737021,None,2337.6607722804415,2337.7609164048918,s210_03102023,001,2023_Mar_10_1632,test_typingtask_norepeats,2020.2.10,60.0344504201674,
about,about,,,,,,,,,0,54,54,54,,,,,,,,,,,,,,,2343.1606427188963,None,"['a', 'b', 'o', 'u', 't']",1,"[0.5976150771602988, 0.7735740581993014, 1.053684329148382, 1.1975784189999104, 1.3416875312104821]",2343.1606427188963,None,2343.160889981454,2343.2607895638794,s210_03102023,001,2023_Mar_10_1632,test_typingtask_norepeats,2020.2.10,60.0344504201674,
buddy,buddy,,,,,,,,,0,55,55,55,,,,,,,,,,,,,,,2348.6606784879696,None,"['b', 'u', 'd', 'd', 'y']",1,"[0.681586273945868, 0.8496418579015881, 1.0416478989645839, 1.1935281029436737, 1.2815736930351704]",2348.6606784879696,None,2348.6605772393755,2348.760641966015,s210_03102023,001,2023_Mar_10_1632,test_typingtask_norepeats,2020.2.10,60.0344504201674,
edthe,edthe,,,,,,,,,0,56,56,56,,,,,,,,,,,,,,,2354.160979341017,None,"['e', 'd', 't', 'h', 'e']",1,"[0.733345576794818, 0.9092511099297553, 1.06934917694889, 1.173359366832301, 1.245367688825354]",2354.160979341017,None,2354.160632821405,2354.2606210040394,s210_03102023,001,2023_Mar_10_1632,test_typingtask_norepeats,2020.2.10,60.0344504201674,
pykka,pykka,,,,,,,,,0,57,57,57,,,,,,,,,,,,,,,2359.6608174429275,None,"['p', 'y', 'l', 'l', 'a']",0,"[1.0334693209733814, 1.2254766440019011, 1.6173996899742633, 1.7694666220340878, 1.8894615271128714]",2359.6608174429275,None,2359.6605880753136,2359.760620865971,s210_03102023,001,2023_Mar_10_1632,test_typingtask_norepeats,2020.2.10,60.0344504201674,
heond,heond,,,,,,,,,0,58,58,58,,,,,,,,,,,,,,,2365.16084479494,None,"['h', 'e', 'o', 'n', 'd']",1,"[0.7173778100404888, 0.8374916610773653, 0.9494944710750133, 1.141505623003468, 1.261438611894846]",2365.16084479494,None,2365.160651303269,2365.261039899895,s210_03102023,001,2023_Mar_10_1632,test_typingtask_norepeats,2020.2.10,60.0344504201674,
haole,haole,,,,,,,,,0,59,59,59,,,,,,,,,,,,,,,2370.6608481418807,None,"['h', 'a', 'o', 'l', 'e']",1,"[1.0974699051585048, 1.305409895023331, 1.6014609690755606, 1.7934174910187721, 1.9214990839827806]",2370.6608481418807,None,2370.6609521684236,2370.7607226290274,s210_03102023,001,2023_Mar_10_1632,test_typingtask_norepeats,2020.2.10,60.0344504201674,
about,about,,,,,,,,,0,60,60,60,,,,,,,,,,,,,,,2376.1609062959906,None,"['a', 'b', 'o', 'u', 't']",1,"[0.5574182528071105, 0.7334181109908968, 0.9654164528474212, 1.117303668987006, 1.2534985248930752]",2376.1609062959906,None,2376.1609317594207,2376.260713114869,s210_03102023,001,2023_Mar_10_1632,test_typingtask_norepeats,2020.2.10,60.0344504201674,
cooed,cooed,,,,,,,,,0,61,61,61,,,,,,,,,,,,,,,2381.6609933630098,None,"['c', 'v', 'o', 'o', 'e', 'd']",0,"[0.8893015878275037, 0.8973202269989997, 1.0812737848609686, 1.225310165900737, 1.3453730538021773, 1.513314913958311]",2381.6609933630098,None,2381.660927348444,2381.7609323610086,s210_03102023,001,2023_Mar_10_1632,test_typingtask_norepeats,2020.2.10,60.0344504201674,
kremp,kremp,,,,,,,,,0,62,62,62,,,,,,,,,,,,,,,2387.1608955299016,None,"['k', 'e', 'r', 'm', 'o']",0,"[0.6854317970573902, 0.9172954270616174, 1.365421415073797, 1.629343843087554, 1.9334124671295285]",2387.1608955299016,None,2387.16084885844,2387.260999921942,s210_03102023,001,2023_Mar_10_1632,test_typingtask_norepeats,2020.2.10,60.0344504201674,
zibja,zibja,,,,,,,,,0,63,63,63,,,,,,,,,,,,,,,2392.660984240938,None,"['z', 'i', 'b', 'j', 'a']",1,"[0.7613302869722247, 0.9613734809681773, 1.1292234498541802, 1.2252218630164862, 1.3533024329226464]",2392.660984240938,None,2392.6609619573223,2392.760677502025,s210_03102023,001,2023_Mar_10_1632,test_typingtask_norepeats,2020.2.10,60.0344504201674,
cheer,cheer,,,,,,,,,0,64,64,64,,,,,,,,,,,,,,,2398.1608730999287,None,"['c', 'h', 'e', 'e', 'r']",1,"[0.5734569451306015, 0.7093431621324271, 0.837455744156614, 0.9814152291510254, 1.0773965921252966]",2398.1608730999287,None,2398.1610213454346,2398.2607716389466,s210_03102023,001,2023_Mar_10_1632,test_typingtask_norepeats,2020.2.10,60.0344504201674,
puppy,puppy,,,,,,,,,0,65,65,65,,,,,,,,,,,,,,,2403.661291589029,None,"['p', 'u', 'p', 'p', 'y']",1,"[1.3289203790482134, 1.576880221022293, 1.849038630956784, 1.9849799061194062, 2.280897340970114]",2403.661291589029,None,2403.6609286674297,2403.7605419999454,s210_03102023,001,2023_Mar_10_1632,test_typingtask_norepeats,2020.2.10,60.0344504201674,
faqir,faqir,,,,,,,,,0,66,66,66,,,,,,,,,,,,,,,2409.160746562993,None,"['f', 'a', 'q', 'i', 'r']",1,"[0.6855601700954139, 0.8695410198997706, 1.2136672521010041, 1.421538257971406, 1.6295381130184978]",2409.160746562993,None,2409.161063676374,2409.260967677925,s210_03102023,001,2023_Mar_10_1632,test_typingtask_norepeats,2020.2.10,60.0344504201674,
belly,belly,,,,,,,,,0,67,67,67,,,,,,,,,,,,,,,2414.6608941128943,None,"['b', 'e', 'l', 'l', 'y']",1,"[0.7054534368216991, 1.0013241528067738, 1.1454013239126652, 1.2894459329545498, 1.4734333499800414]",2414.6608941128943,None,2414.660828331392,2414.761332730064,s210_03102023,001,2023_Mar_10_1632,test_typingtask_norepeats,2020.2.10,60.0344504201674,
cheer,cheer,,,,,,,,,0,68,68,68,,,,,,,,,,,,,,,2420.1609595350455,None,"['c', 'h', 'e', 'e', 'r']",1,"[0.6292863998096436, 0.7333647708874196, 0.9172547939233482, 1.0453468488994986, 1.1413839010056108]",2420.1609595350455,None,2420.1608717922586,2420.261013705982,s210_03102023,001,2023_Mar_10_1632,test_typingtask_norepeats,2020.2.10,60.0344504201674,
puppy,puppy,,,,,,,,,0,69,69,69,,,,,,,,,,,,,,,2425.6609147000127,None,"['p', 'u', 'u', 'p', 'y']",0,"[0.9293309871573001, 1.2413954981602728, 1.4654076860751957, 1.6973726782016456, 2.7534349411726]",2425.6609147000127,None,2425.6607785042374,2425.761014593998,s210_03102023,001,2023_Mar_10_1632,test_typingtask_norepeats,2020.2.10,60.0344504201674,
vodka,vodka,,,,,,,,,0,70,70,70,,,,,,,,,,,,,,,2431.1610231169034,None,"['v', 'o', 'k', 'a']",0,"[0.8693093690089881, 1.0931853700894862, 1.4452704370487481, 1.6133011861238629]",2431.1610231169034,None,2431.16076112343,2431.2609520100523,s210_03102023,001,2023_Mar_10_1632,test_typingtask_norepeats,2020.2.10,60.0344504201674,
belly,belly,,,,,,,,,0,71,71,71,,,,,,,,,,,,,,,2436.6609286488965,None,"['b', 'e', 'l', 'l', 'y']",1,"[0.6254461810458452, 0.881355781108141, 1.0092733150813729, 1.161379775032401, 1.2574082389473915]",2436.6609286488965,None,2436.660795192374,2436.7609354190063,s210_03102023,001,2023_Mar_10_1632,test_typingtask_norepeats,2020.2.10,60.0344504201674,
vodka,vodka,,,,,,,,,0,72,72,72,,,,,,,,,,,,,,,2442.1609774639364,None,"['v', 'o', 'd', 'k', 'a']",1,"[0.8292814129963517, 0.9493479570373893, 1.1254434341099113, 1.2216283450834453, 1.3812857519369572]",2442.1609774639364,None,2442.160993501451,2442.2612019479275,s210_03102023,001,2023_Mar_10_1632,test_typingtask_norepeats,2020.2.10,60.0344504201674,
belly,belly,,,,,,,,,0,73,73,73,,,,,,,,,,,,,,,2447.6610517359804,None,"['b', 'e', 'l', 'l', 'y']",1,"[0.721277168020606, 0.8972081639803946, 0.9852684498764575, 1.1291865399107337, 1.233221207978204]",2447.6610517359804,None,2447.661155475443,2447.7609778079204,s210_03102023,001,2023_Mar_10_1632,test_typingtask_norepeats,2020.2.10,60.0344504201674,
vanru,vanru,,,,,,,,,0,74,74,74,,,,,,,,,,,,,,,2453.1610341079067,None,"['v', 'a', 'n', 'r', 'u']",1,"[0.7572227050550282, 0.8931894660927355, 1.0132619459182024, 1.1253400389105082, 1.2931968979537487]",2453.1610341079067,None,2453.1611148013267,2453.2613247740082,s210_03102023,001,2023_Mar_10_1632,test_typingtask_norepeats,2020.2.10,60.0344504201674,
lucky,lucky,,,,,,,,,0,75,75,75,,,,,,,,,,,,,,,2458.6611707808916,None,"['l', 'u', 'c', 'k', 'y']",1,"[1.4810949100647122, 1.6811099068727344, 1.841156539041549, 1.9131132969632745, 2.113085509976372]",2458.6611707808916,None,2458.6610611103474,2458.7609308499377,s210_03102023,001,2023_Mar_10_1632,test_typingtask_norepeats,2020.2.10,60.0344504201674,
vanru,vanru,,,,,,,,,0,76,76,76,,,,,,,,,,,,,,,2464.160921732895,None,"['v', 'a', 'n', 'r', 'u']",1,"[0.6453886760864407, 0.8213705660309643, 0.9734076850581914, 1.0933097980450839, 1.245507223997265]",2464.160921732895,None,2464.160926746344,2464.261140943039,s210_03102023,001,2023_Mar_10_1632,test_typingtask_norepeats,2020.2.10,60.0344504201674,
buddy,buddy,,,,,,,,,0,77,77,77,,,,,,,,,,,,,,,2469.6609357688576,None,"['b', 'u', 'd', 'd', 'y']",1,"[0.7054030580911785, 0.8653806671500206, 1.113383914111182, 1.2813487111125141, 1.3293486300390214]",2469.6609357688576,None,2469.661096887337,2469.761033378076,s210_03102023,001,2023_Mar_10_1632,test_typingtask_norepeats,2020.2.10,60.0344504201674,
vanru,vanru,,,,,,,,,0,78,78,78,,,,,,,,,,,,,,,2475.1608642619103,None,"['v', 'a', 'n', 'r', 'u']",1,"[0.685440466972068, 0.8534698449075222, 1.0054218200966716, 1.1013456210494041, 1.2773396431002766]",2475.1608642619103,None,2475.161105295317,2475.26099756686,s210_03102023,001,2023_Mar_10_1632,test_typingtask_norepeats,2020.2.10,60.0344504201674,
heond,heond,,,,,,,,,0,79,79,79,,,,,,,,,,,,,,,2480.660835160874,None,"['h', 'e', 'o', 'n', 'd']",1,"[0.6814303221181035, 0.8494537090882659, 0.9454188500531018, 1.145483525004238, 1.2974794870242476]",2480.660835160874,None,2480.661113378266,2480.761107656872,s210_03102023,001,2023_Mar_10_1632,test_typingtask_norepeats,2020.2.10,60.0344504201674,
belly,belly,,,,,,,,,0,80,80,80,,,,,,,,,,,,,,,2486.161024613073,None,"['b', 'e', 'l', 'l', 'y']",1,"[0.6133200670592487, 0.861226457869634, 0.9253196800127625, 1.0932257568929344, 1.213264969876036]",2486.161024613073,None,2486.1609569433144,2486.2610787248705,s210_03102023,001,2023_Mar_10_1632,test_typingtask_norepeats,2020.2.10,60.0344504201674,
tithe,tithe,,,,,,,,,0,81,81,81,,,,,,,,,,,,,,,2491.660932098981,None,"['t', 'i', 't', 'h', 'e']",1,"[0.7613612471614033, 0.8733491420280188, 1.0254502680618316, 1.1455002520233393, 1.2413500901311636]",2491.660932098981,None,2491.6610336924437,2491.7611440438777,s210_03102023,001,2023_Mar_10_1632,test_typingtask_norepeats,2020.2.10,60.0344504201674,
champ,champ,,,,,,,,,0,82,82,82,,,,,,,,,,,,,,,2497.1610394138843,None,"['c', 'h', 'a', 'm', 'o', 'p']",0,"[0.6051755480002612, 0.7172035910189152, 0.845313907135278, 0.9413027560804039, 1.1171784789767116, 1.1332897790707648]",2497.1610394138843,None,2497.161054630438,2497.260989100905,s210_03102023,001,2023_Mar_10_1632,test_typingtask_norepeats,2020.2.10,60.0344504201674,
edthe,edthe,,,,,,,,,0,83,83,83,,,,,,,,,,,,,,,2502.66110026394,None,"['e', 'd', 't', 'h', 'e']",1,"[0.6411759168840945, 0.8171219890937209, 0.9931334280408919, 1.1132294950075448, 1.2011176419910043]",2502.66110026394,None,2502.660807645321,2502.7610132580157,s210_03102023,001,2023_Mar_10_1632,test_typingtask_norepeats,2020.2.10,60.0344504201674,
haole,haole,,,,,,,,,0,84,84,84,,,,,,,,,,,,,,,2508.161215768894,None,"['h', 'a', 'o', 'l', 'e']",1,"[0.5971041270531714, 0.7650812480133027, 0.925003525102511, 1.092993135098368, 1.2130810429807752]",2508.161215768894,None,2508.1609351694583,2508.261000168044,s210_03102023,001,2023_Mar_10_1632,test_typingtask_norepeats,2020.2.10,60.0344504201674,
pykka,pykka,,,,,,,,,0,85,85,85,,,,,,,,,,,,,,,2513.661175689893,None,"['p', 'y', 'k', 'k', 'a']",1,"[0.8971106850076467, 1.0971513539552689, 1.5131292440928519, 1.6491476781666279, 1.8010430049616843]",2513.661175689893,None,2513.661141113285,2513.761290461989,s210_03102023,001,2023_Mar_10_1632,test_typingtask_norepeats,2020.2.10,60.0344504201674,
therm,therm,,,,,,,,,0,86,86,86,,,,,,,,,,,,,,,2519.161081061,None,"['t', 'h', 'e', 'r', 'm']",1,"[0.6052597791422158, 0.7332407981157303, 0.8532175091095269, 0.9652374731376767, 1.0612155951093882]",2519.161081061,None,2519.1611800092737,2519.2611879869364,s210_03102023,001,2023_Mar_10_1632,test_typingtask_norepeats,2020.2.10,60.0344504201674,
faqir,faqir,,,,,,,,,0,87,87,87,,,,,,,,,,,,,,,2524.661120591918,None,"['f', 'a', 'q', 'i', 'r']",1,"[0.6492059219162911, 0.8331987268757075, 1.0971368718892336, 1.2732174759730697, 1.4811049508862197]",2524.661120591918,None,2524.6610866444184,2524.761290109018,s210_03102023,001,2023_Mar_10_1632,test_typingtask_norepeats,2020.2.10,60.0344504201674,
haole,haole,,,,,,,,,0,88,88,88,,,,,,,,,,,,,,,2530.161267906893,None,"['h', 'a', 'o', 'l', 'e']",1,"[0.6210004221647978, 0.7890982332173735, 0.9250789270736277, 1.085026168031618, 1.1970586772076786]",2530.161267906893,None,2530.161242137337,2530.261136557907,s210_03102023,001,2023_Mar_10_1632,test_typingtask_norepeats,2020.2.10,60.0344504201674,
cheer,cheer,,,,,,,,,0,89,89,89,,,,,,,,,,,,,,,2535.661309492076,None,"['c', 'h', 'e', 'e', 'r']",1,"[0.608945783926174, 0.7450034369248897, 0.8729764779563993, 1.009023566963151, 1.0890206429176033]",2535.661309492076,None,2535.6611357754095,2535.7611386920325,s210_03102023,001,2023_Mar_10_1632,test_typingtask_norepeats,2020.2.10,60.0344504201674,
haole,haole,,,,,,,,,0,90,90,90,,,,,,,,,,,,,,,2541.1611026350874,None,"['h', 'a', 'o', 'l', 'e']",1,"[0.5652100169099867, 0.7092693508602679, 0.8451991300098598, 1.0212261159904301, 1.1332039888948202]",2541.1611026350874,None,2541.161118750367,2541.261312816059,s210_03102023,001,2023_Mar_10_1632,test_typingtask_norepeats,2020.2.10,60.0344504201674,
belly,belly,,,,,,,,,0,91,91,91,,,,,,,,,,,,,,,2546.661175455898,None,"['b', 'e', 'l', 'l', 'y']",1,"[0.6491073451470584, 0.8491469020955265, 0.9851565931458026, 1.1371123630087823, 1.2091088651213795]",2546.661175455898,None,2546.6610776212997,2546.761160270078,s210_03102023,001,2023_Mar_10_1632,test_typingtask_norepeats,2020.2.10,60.0344504201674,
would,would,,,,,,,,,0,92,92,92,,,,,,,,,,,,,,,2552.1611000038683,None,"['w', 'o', 'i', 'u', 'l', 'd']",0,"[0.7011148021556437, 0.8851173070725054, 1.0211969891097397, 1.0291523921769112, 1.3251782460138202, 1.43723816704005]",2552.1611000038683,None,2552.1610001543536,2552.260988198919,s210_03102023,001,2023_Mar_10_1632,test_typingtask_norepeats,2020.2.10,60.0344504201674,
theme,theme,,,,,,,,,0,93,93,93,,,,,,,,,,,,,,,2557.6611401999835,None,"['t', 'h', 'e', 'm', 'e']",1,"[0.5851343281101435, 0.6731128371320665, 0.8571285500656813, 0.9131946840789169, 1.0651810611598194]",2557.6611401999835,None,2557.6610489402897,2557.7612153298687,s210_03102023,001,2023_Mar_10_1632,test_typingtask_norepeats,2020.2.10,60.0344504201674,
heond,heond,,,,,,,,,0,94,94,94,,,,,,,,,,,,,,,2563.160959506873,None,"['h', 'e', 'o', 'n', 'd']",1,"[0.6292587358038872, 0.7973193437792361, 0.8533654659986496, 1.0694360679481179, 1.1813742897938937]",2563.160959506873,None,2563.1611136592924,2563.2609000920784,s210_03102023,001,2023_Mar_10_1632,test_typingtask_norepeats,2020.2.10,60.0344504201674,
edthe,edthe,,,,,,,,,0,95,95,95,,,,,,,,,,,,,,,2568.661011729855,None,"['e', 'd', 't', 'h', 'e']",1,"[0.6011894650291651, 0.7692991879303008, 0.9292761390097439, 1.0493716809432954, 1.1373206339776516]",2568.661011729855,None,2568.660933440458,2568.761031310074,s210_03102023,001,2023_Mar_10_1632,test_typingtask_norepeats,2020.2.10,60.0344504201674,
lucky,lucky,,,,,,,,,0,96,96,96,,,,,,,,,,,,,,,2574.161361028906,None,"['l', 'u', 'c', 'k', 'y']",1,"[0.5969289329368621, 0.8288502998184413, 0.9969733809120953, 1.0849634630139917, 1.3008479189593345]",2574.161361028906,None,2574.1609221034682,2574.2608564740513,s210_03102023,001,2023_Mar_10_1632,test_typingtask_norepeats,2020.2.10,60.0344504201674,
kremp,kremp,,,,,,,,,0,97,97,97,,,,,,,,,,,,,,,2579.6619295468554,None,"['k', 'r', 'e', 'm', 'p', 'o']",0,"[0.6403959430754185, 0.8403494600206614, 1.0082894801162183, 1.0643925410695374, 1.3763461171183735, 1.3842895331326872]",2579.6619295468554,None,2579.6609395783394,2579.76067346707,s210_03102023,001,2023_Mar_10_1632,test_typingtask_norepeats,2020.2.10,60.0344504201674,
think,think,,,,,,,,,0,98,98,98,,,,,,,,,,,,,,,2585.1611694779713,None,"['t', 'h', 'i', 'n', 'k']",1,"[0.9010506719350815, 1.021044431021437, 1.1571764999534935, 1.3251137868501246, 1.4131235610693693]",2585.1611694779713,None,2585.1611366992815,2585.2610366600566,s210_03102023,001,2023_Mar_10_1632,test_typingtask_norepeats,2020.2.10,60.0344504201674,
about,about,,,,,,,,,0,99,99,99,,,,,,,,,,,,,,,2590.6611305698752,None,"['a', 'b', 'o', 'u', 't']",1,"[0.6331903070677072, 0.7611562500242144, 0.9452113329898566, 1.105218973942101, 1.2010695829521865]",2590.6611305698752,None,2590.6611922864336,2590.7610283589456,s210_03102023,001,2023_Mar_10_1632,test_typingtask_norepeats,2020.2.10,60.0344504201674,
theme,theme,,,,,,,,,0,100,100,100,,,,,,,,,,,,,,,2596.161270376062,None,"['t', 'h', 'e', 'm', 'e']",1,"[0.5970568340271711, 0.7009553601965308, 0.8610371460672468, 0.9089703501667827, 1.069055441999808]",2596.161270376062,None,2596.161225172365,2596.260947647039,s210_03102023,001,2023_Mar_10_1632,test_typingtask_norepeats,2020.2.10,60.0344504201674,
lucky,lucky,,,,,,,,,0,101,101,101,,,,,,,,,,,,,,,2601.661291599041,None,"['l', 'u', 'c', 'k', 'y']",1,"[0.5610790709033608, 0.7690097789745778, 0.8809748399071395, 1.0089306789450347, 1.2169215038884431]",2601.661291599041,None,2601.6612209963146,2601.761198534863,s210_03102023,001,2023_Mar_10_1632,test_typingtask_norepeats,2020.2.10,60.0344504201674,
about,about,,,,,,,,,0,102,102,102,,,,,,,,,,,,,,,2607.1612043010537,None,"['a', 'b', 'o', 'u', 't']",1,"[0.6290713460184634, 0.7810306379105896, 1.0130257669370621, 1.1410720879212022, 1.2770101961214095]",2607.1612043010537,None,2607.161400266364,2607.26131525496,s210_03102023,001,2023_Mar_10_1632,test_typingtask_norepeats,2020.2.10,60.0344504201674,
therm,therm,,,,,,,,,0,103,103,103,,,,,,,,,,,,,,,2612.6611720318906,None,"['t', 'h', 'e', 'r', 'm']",1,"[0.6090680740308017, 0.705163137987256, 0.8651935320813209, 0.98504742491059, 1.0890613340307027]",2612.6611720318906,None,2612.661276170425,2612.7613054038957,s210_03102023,001,2023_Mar_10_1632,test_typingtask_norepeats,2020.2.10,60.0344504201674,
pykka,pykka,,,,,,,,,0,104,104,104,,,,,,,,,,,,,,,2618.1611263980158,None,"['p', 'y', 'k', 'k', 'a']",1,"[0.8770913030020893, 1.0851969190407544, 1.5091652609407902, 1.6531599869485945, 1.7732323640957475]",2618.1611263980158,None,2618.161307326425,2618.2614801658783,s210_03102023,001,2023_Mar_10_1632,test_typingtask_norepeats,2020.2.10,60.0344504201674,
kremp,kremp,,,,,,,,,0,105,105,105,,,,,,,,,,,,,,,2623.6611643540673,None,"['k', 'r', 'e', 'm', 'p']",1,"[0.729122269898653, 0.9851623268332332, 1.1371691979002208, 1.2010551858693361, 1.4491102588362992]",2623.6611643540673,None,2623.6612767043057,2623.761297723977,s210_03102023,001,2023_Mar_10_1632,test_typingtask_norepeats,2020.2.10,60.0344504201674,
zibja,zibja,,,,,,,,,0,106,106,106,,,,,,,,,,,,,,,2629.161386952037,None,"['z', 'i', 'b', 'j', 'a']",1,"[0.740836429875344, 0.9969251740258187, 1.1888830228708684, 1.3087966018356383, 1.4449100168421865]",2629.161386952037,None,2629.1612134402617,2629.2620363759343,s210_03102023,001,2023_Mar_10_1632,test_typingtask_norepeats,2020.2.10,60.0344504201674,
would,would,,,,,,,,,0,107,107,107,,,,,,,,,,,,,,,2634.661106026033,None,"['w', 'o', 'u', 'l', 'd', 's']",0,"[0.9052203870378435, 1.1052188810426742, 1.2332173131871969, 1.5211855340749025, 1.7050947011448443, 1.713181319180876]",2634.661106026033,None,2634.6611507843713,2634.761299232021,s210_03102023,001,2023_Mar_10_1632,test_typingtask_norepeats,2020.2.10,60.0344504201674,
tithe,tithe,,,,,,,,,0,108,108,108,,,,,,,,,,,,,,,2640.161265240982,None,"['t', 'i', 't', 'h', 'e']",1,"[0.6530169111210853, 0.7810298029799014, 0.9970448480453342, 1.1009351429529488, 1.1970657631754875]",2640.161265240982,None,2640.1611792963463,2640.261178052053,s210_03102023,001,2023_Mar_10_1632,test_typingtask_norepeats,2020.2.10,60.0344504201674,
cooed,cooed,,,,,,,,,0,109,109,109,,,,,,,,,,,,,,,2645.6612832080573,None,"['c', 'o', 'o', 'e', 'd']",1,"[0.7690295360516757, 1.0570193950552493, 1.2089385481085628, 1.3129668170586228, 1.4809509511105716]",2645.6612832080573,None,2645.6611048203426,2645.7611689059995,s210_03102023,001,2023_Mar_10_1632,test_typingtask_norepeats,2020.2.10,60.0344504201674,
there,there,,,,,,,,,0,110,110,110,,,,,,,,,,,,,,,2651.1613551520277,None,"['t', 'h', 'e', 'r', 'e']",1,"[0.7569372199941427, 0.8689632180612534, 1.0129013119731098, 1.1088610999286175, 1.2369543630629778]",2651.1613551520277,None,2651.1610313483047,2651.2615442080423,s210_03102023,001,2023_Mar_10_1632,test_typingtask_norepeats,2020.2.10,60.0344504201674,
would,would,,,,,,,,,0,111,111,111,,,,,,,,,,,,,,,2656.661304078065,None,"['w', 'o', 'u', 'l', 'd']",1,"[0.6330166419502348, 0.7929171409923583, 0.8890458669047803, 1.112925010966137, 1.2650154768489301]",2656.661304078065,None,2656.661149069341,2656.761172487866,s210_03102023,001,2023_Mar_10_1632,test_typingtask_norepeats,2020.2.10,60.0344504201674,
think,think,,,,,,,,,0,112,112,112,,,,,,,,,,,,,,,2662.1613445868716,None,"['t', 'h', 'i', 'n', 'k']",1,"[0.620924178045243, 0.756889367941767, 0.8449739508796483, 1.0208527250215411, 1.0928787670563906]",2662.1613445868716,None,2662.1612758523784,2662.2611760220025,s210_03102023,001,2023_Mar_10_1632,test_typingtask_norepeats,2020.2.10,60.0344504201674,
zibja,zibja,,,,,,,,,0,113,113,113,,,,,,,,,,,,,,,2667.6612309268676,None,"['a', 'z', 'z', 'i', 'b', 'j', 'a']",0,"[0.7290773710701615, 0.7850771869998425, 0.9371063569560647, 1.2090166308917105, 1.4009796280879527, 1.4730983909685165, 1.6250017900019884]",2667.6612309268676,None,2667.66120307534,2667.761134522967,s210_03102023,001,2023_Mar_10_1632,test_typingtask_norepeats,2020.2.10,60.0344504201674,
pykka,pykka,,,,,,,,,0,114,114,114,,,,,,,,,,,,,,,2673.1613180919085,None,"['p', 'y', 'l', 'k', 'k', 'a', 'd', 'h', 'l', 'h']",0,"[0.8849956521298736, 1.0690022390335798, 1.4369772269856185, 1.6210108629893512, 1.788969952147454, 1.9329852981027216, 2.052964420057833, 2.220984643092379, 2.356911184033379, 2.3969766430091113]",2673.1613180919085,None,2673.161400255421,2673.26130736107,s210_03102023,001,2023_Mar_10_1632,test_typingtask_norepeats,2020.2.10,60.0344504201674,
there,there,,,,,,,,,0,115,115,115,,,,,,,,,,,,,,,2678.6612709029578,None,"['t', 'h', 'e', 'r', 'e']",1,"[0.6489911270327866, 0.7610616940073669, 0.9050558679737151, 1.0009377759415656, 1.0970609011128545]",2678.6612709029578,None,2678.6612475713714,2678.76136811194,s210_03102023,001,2023_Mar_10_1632,test_typingtask_norepeats,2020.2.10,60.0344504201674,
about,about,,,,,,,,,0,116,116,116,,,,,,,,,,,,,,,2684.16128799296,None,"['a', 'b', 'o', 'u', 't']",1,"[0.6210502721369267, 0.7970126871950924, 1.005017199087888, 1.148962370119989, 1.2929231610614806]",2684.16128799296,None,2684.1613699103705,2684.261528881034,s210_03102023,001,2023_Mar_10_1632,test_typingtask_norepeats,2020.2.10,60.0344504201674,
vodka,vodka,,,,,,,,,0,117,117,117,,,,,,,,,,,,,,,2689.6612387700006,None,"['c', 'v', 'o', 'k', 'd', 'a']",0,"[0.7290749410167336, 0.7610109320376068, 1.200961622176692, 1.4489945471286774, 1.5769581301137805, 1.7129954770207405]",2689.6612387700006,None,2689.6612826093565,2689.761479849927,s210_03102023,001,2023_Mar_10_1632,test_typingtask_norepeats,2020.2.10,60.0344504201674,
champ,champ,,,,,,,,,0,118,118,118,,,,,,,,,,,,,,,2695.1632739789784,None,"['c', 'h', 'a', 'm', 'o', 'p']",0,"[0.6190618299879134, 0.7629831209778786, 0.8909474310930818, 0.9950301779899746, 1.195026946021244, 1.2190465859603137]",2695.1632739789784,None,2695.162200354412,2695.262235641945,s210_03102023,001,2023_Mar_10_1632,test_typingtask_norepeats,2020.2.10,60.0344504201674,
buddy,buddy,,,,,,,,,0,119,119,119,,,,,,,,,,,,,,,2700.6613046310376,None,"['b', 'u', 'd', 'd', 'y']",1,"[0.8970208009704947, 1.080928476061672, 1.2649416911881417, 1.4249994361307472, 1.5130339809693396]",2700.6613046310376,None,2700.661244598357,2700.7613797520753,s210_03102023,001,2023_Mar_10_1632,test_typingtask_norepeats,2020.2.10,60.0344504201674,
