string,corrAns,practice_trials.thisRepN,practice_trials.thisTrialN,practice_trials.thisN,practice_trials.thisIndex,trials_1.thisRepN,trials_1.thisTrialN,trials_1.thisN,trials_1.thisIndex,trials_2.thisRepN,trials_2.thisTrialN,trials_2.thisN,trials_2.thisIndex,key_resp_0.keys,key_resp_0.corr,key_resp_0.rt,text_1.started,text_1.stopped,key_resp_1.keys,key_resp_1.corr,key_resp_1.rt,key_resp_1.started,key_resp_1.stopped,sound_1A_1.started,sound_1A_1.stopped,break_time.started,break_time.stopped,text_2.started,text_2.stopped,key_resp_2.keys,key_resp_2.corr,key_resp_2.rt,key_resp_2.started,key_resp_2.stopped,sound_1A_2.started,sound_1A_2.stopped,participant,session,date,expName,psychopyVersion,frameRate,
fresh,fresh,0,0,0,0,,,,,,,,,"['f', 'r', 'e', 's', 'h']",1,"[1.3018380999997134, 1.5097983000000568, 1.6858655999999428, 1.8698856999999407, 2.0458543999998255]",,,,,,,,,,,,,,,,,,,,,s212_10032023,001,2023-10-03_16h13.35.613,test_typingtask_norepeats,2020.2.10,59.979223197076976,
dream,dream,0,1,1,1,,,,,,,,,"['d', 'r', 'e', 'a', 'm']",1,"[1.358464300000378, 1.6225286000003507, 1.7903690000002825, 1.9664757000000463, 2.1585234000003766]",,,,,,,,,,,,,,,,,,,,,s212_10032023,001,2023-10-03_16h13.35.613,test_typingtask_norepeats,2020.2.10,59.979223197076976,
slime,slime,0,2,2,2,,,,,,,,,"['s', 'l', 'i', 'm', 'e']",1,"[0.8925180000001092, 1.0527269000003798, 1.2686816000000363, 1.4767084000000068, 1.6047322000003987]",,,,,,,,,,,,,,,,,,,,,s212_10032023,001,2023-10-03_16h13.35.613,test_typingtask_norepeats,2020.2.10,59.979223197076976,
haole,haole,,,,,0,0,0,0,,,,,,,,1096.8960640999999,None,"['h', 'a', 'o', 'l', 'e']",1,"[1.8930597000003218, 2.0055325000002995, 2.54911680000032, 2.7571218000002773, 2.845325100000082]",1096.8960640999999,None,1096.8965210499998,None,,,,,,,,,,,,s212_10032023,001,2023-10-03_16h13.35.613,test_typingtask_norepeats,2020.2.10,59.979223197076976,
lucky,lucky,,,,,0,1,1,1,,,,,,,,1102.4016344000001,None,"['l', 'u', 'c', 'k', 'y']",1,"[1.4115602000001672, 1.6036465000001954, 1.715473700000075, 1.8352578000003632, 2.0595013000001927]",1102.4016344000001,None,1102.4026926499998,1102.5025261,,,,,,,,,,,,s212_10032023,001,2023-10-03_16h13.35.613,test_typingtask_norepeats,2020.2.10,59.979223197076976,
pykka,pykka,,,,,0,2,2,2,,,,,,,,1107.9072419,None,"['p', 'y', 'k', 'k', 'a']",1,"[1.0418578999997408, 1.361809799999719, 1.6501264999997147, 1.8098903999998583, 1.8898819999999432]",1107.9072419,None,1107.9082004499999,1108.012605,,,,,,,,,,,,s212_10032023,001,2023-10-03_16h13.35.613,test_typingtask_norepeats,2020.2.10,59.979223197076976,
edthe,edthe,,,,,0,3,3,3,,,,,,,,1113.4127674000001,None,"['e', 'd', 't', 'h', 'e']",1,"[0.936611399999947, 1.1603276999999252, 1.4003193000003193, 1.5123237000002518, 1.6803638000001229]",1113.4127674000001,None,1113.41362735,1113.5127625999999,,,,,,,,,,,,s212_10032023,001,2023-10-03_16h13.35.613,test_typingtask_norepeats,2020.2.10,59.979223197076976,
belly,belly,,,,,0,4,4,4,,,,,,,,1118.9180348999998,None,"['b', 'e', 'l', 'l', 'y']",1,"[0.9267197999997734, 1.0307440999999926, 1.222708099999636, 1.3827903999999762, 1.4867609999996603]",1118.9180348999998,None,1118.9188782499998,1119.0212066,,,,,,,,,,,,s212_10032023,001,2023-10-03_16h13.35.613,test_typingtask_norepeats,2020.2.10,59.979223197076976,
vanru,vanru,,,,,0,5,5,5,,,,,,,,1124.4289972000001,None,"['v', 'a', 'n', 'r', 'u']",1,"[0.8721205000001646, 0.9760897999999543, 1.112349400000312, 1.2483977000001687, 1.3761125000000902]",1124.4289972000001,None,1124.42463255,1124.5238816,,,,,,,,,,,,s212_10032023,001,2023-10-03_16h13.35.613,test_typingtask_norepeats,2020.2.10,59.979223197076976,
cooed,cooed,,,,,0,6,6,6,,,,,,,,1129.9307247000002,None,"['c', 'o', 'o', 'e', 'd']",1,"[0.7784166999999798, 1.0265220999999656, 1.1943321999997352, 1.3064207999996142, 1.5304143999996995]",1129.9307247000002,None,1129.9301421499997,1130.0325358,,,,,,,,,,,,s212_10032023,001,2023-10-03_16h13.35.613,test_typingtask_norepeats,2020.2.10,59.979223197076976,
would,would,,,,,0,7,7,7,,,,,,,,1135.4395294,None,"['w', 'o', 'u', 'l', 'd']",1,"[0.8776846999999179, 1.0295170999997936, 1.197582699999657, 1.3895935999998983, 1.517565199999808]",1135.4395294,None,1135.4356195499997,1135.5426271000001,,,,,,,,,,,,s212_10032023,001,2023-10-03_16h13.35.613,test_typingtask_norepeats,2020.2.10,59.979223197076976,
heond,heond,,,,,0,8,8,8,,,,,,,,1140.9403988,None,"['h', 'e', 'o', 'n', 'd']",1,"[0.832841300000382, 0.9604128000000856, 1.1046806000003926, 1.2804184000001442, 1.400726300000315]",1140.9403988,None,1140.94114715,1141.0420705000001,,,,,,,,,,,,s212_10032023,001,2023-10-03_16h13.35.613,test_typingtask_norepeats,2020.2.10,59.979223197076976,
puppy,puppy,,,,,0,9,9,9,,,,,,,,1146.4470115999998,None,"['o', 'u', 'p', 'p', 'y']",0,"[0.8297183999998197, 1.2540592000000288, 1.8219772000002195, 1.990059199999905, 2.125835199999983]",1146.4470115999998,None,1146.44663715,1146.5529013,,,,,,,,,,,,s212_10032023,001,2023-10-03_16h13.35.613,test_typingtask_norepeats,2020.2.10,59.979223197076976,
heond,heond,,,,,0,10,10,10,,,,,,,,1151.9512893,None,"['h', 'e', 'o', 'n', 'd']",1,"[1.0295733999996628, 1.1498105000000578, 1.3022596999999223, 1.4938155999998344, 1.6214720999996644]",1151.9512893,None,1151.9521435499998,1152.0525487,,,,,,,,,,,,s212_10032023,001,2023-10-03_16h13.35.613,test_typingtask_norepeats,2020.2.10,59.979223197076976,
tithe,tithe,,,,,0,11,11,11,,,,,,,,1157.4567846999998,None,"['t', 'i', 't', 'h', 'e']",1,"[0.8520226999999068, 0.9644622999999228, 1.1163072999997894, 1.2522942999999032, 1.4123442999998588]",1157.4567846999998,None,1157.4577586499997,1157.5624588,,,,,,,,,,,,s212_10032023,001,2023-10-03_16h13.35.613,test_typingtask_norepeats,2020.2.10,59.979223197076976,
there,there,,,,,0,12,12,12,,,,,,,,1162.9623204999998,None,"['t', 'h', 'e', 'r', 'e']",1,"[0.7069010999998682, 0.8188614000000598, 0.9793057000001681, 1.130742100000134, 1.3067729999997937]",1162.9623204999998,None,1162.96314285,1163.0622991,,,,,,,,,,,,s212_10032023,001,2023-10-03_16h13.35.613,test_typingtask_norepeats,2020.2.10,59.979223197076976,
kremp,kremp,,,,,0,13,13,13,,,,,,,,1168.4676512,None,"['k', 'r', 'e', 'm', 'p']",1,"[1.0654081000002407, 1.1611845000002177, 1.330135700000028, 1.489452700000129, 1.6813492000001133]",1168.4676512,None,1168.46863005,1168.5723588,,,,,,,,,,,,s212_10032023,001,2023-10-03_16h13.35.613,test_typingtask_norepeats,2020.2.10,59.979223197076976,
vodka,vodka,,,,,0,14,14,14,,,,,,,,1173.9742916999999,None,"['v', 'o', 'd', 'k', 'a']",1,"[0.9108071999999083, 1.4705503000000135, 1.6548110999997334, 1.814831199999844, 2.1668064999998933]",1173.9742916999999,None,1173.9741322499997,1174.0731514,,,,,,,,,,,,s212_10032023,001,2023-10-03_16h13.35.613,test_typingtask_norepeats,2020.2.10,59.979223197076976,
tithe,tithe,,,,,0,15,15,15,,,,,,,,1179.4784218,None,"['t', 'i', 't', 'h', 'e']",1,"[0.8304925999996158, 0.9426825000000463, 1.0703601999998682, 1.2066587999997864, 1.374802699999691]",1179.4784218,None,1179.47930415,1179.5810271999999,,,,,,,,,,,,s212_10032023,001,2023-10-03_16h13.35.613,test_typingtask_norepeats,2020.2.10,59.979223197076976,
heond,heond,,,,,0,16,16,16,,,,,,,,1184.9840751000002,None,"['h', 'e', 'o', 'n', 'd']",1,"[0.8057996000002277, 0.9410493999998835, 1.0610071000000971, 1.2450042999998914, 1.365030200000092]",1184.9840751000002,None,1184.9849270499997,1185.0920437999998,,,,,,,,,,,,s212_10032023,001,2023-10-03_16h13.35.613,test_typingtask_norepeats,2020.2.10,59.979223197076976,
haole,haole,,,,,0,17,17,17,,,,,,,,1190.4903424,None,"['h', 'a', 'o', 'l', 'e']",1,"[0.7307614000001195, 0.8586008000002039, 1.018714700000146, 1.2028336000003037, 1.3146534000002248]",1190.4903424,None,1190.4906283499997,1190.5919319999998,,,,,,,,,,,,s212_10032023,001,2023-10-03_16h13.35.613,test_typingtask_norepeats,2020.2.10,59.979223197076976,
zibja,zibja,,,,,0,18,18,18,,,,,,,,1196.0038826999998,None,"['z', 'i', 'b', 'j', 'a']",1,"[1.0412266999996973, 1.1932394000000386, 1.4492390000000341, 1.6651939999997012, 1.7932157999998708]",1196.0038826999998,None,1196.0128035999996,1196.112154,,,,,,,,,,,,s212_10032023,001,2023-10-03_16h13.35.613,test_typingtask_norepeats,2020.2.10,59.979223197076976,
haole,haole,,,,,0,19,19,19,,,,,,,,1201.5008265000001,None,"['h', 'a', 'o', 'l', 'e']",1,"[0.848008899999968, 0.9522483999999167, 1.1282185999998546, 1.3201951000000918, 1.4402533000002222]",1201.5008265000001,None,1201.5016768499997,1201.6025682999998,,,,,,,,,,,,s212_10032023,001,2023-10-03_16h13.35.613,test_typingtask_norepeats,2020.2.10,59.979223197076976,
cooed,cooed,,,,,0,20,20,20,,,,,,,,1207.0085937999997,None,"['c', 'o', 'o', 'e', 'd']",1,"[0.7002541000001656, 0.9084762000002229, 1.0683225000002494, 1.1804925000001276, 1.3882566000002043]",1207.0085937999997,None,1207.0072101499998,1207.1125315,,,,,,,,,,,,s212_10032023,001,2023-10-03_16h13.35.613,test_typingtask_norepeats,2020.2.10,59.979223197076976,
buddy,buddy,,,,,0,21,21,21,,,,,,,,1212.5129120000001,None,"['b', 'u', 'd', 'd', 'y']",1,"[0.8201249999997344, 1.0282813999997416, 1.2442114000000402, 1.4441744999999173, 1.5404696000000513]",1212.5129120000001,None,1212.51262045,1212.6125254999997,,,,,,,,,,,,s212_10032023,001,2023-10-03_16h13.35.613,test_typingtask_norepeats,2020.2.10,59.979223197076976,
therm,therm,,,,,0,22,22,22,,,,,,,,1218.0172134999998,None,"['t', 'h', 'e', 'r', 'm']",1,"[0.7238012000002527, 0.8278493000002527, 0.9958324000003813, 1.1479057999999895, 1.2998658999999861]",1218.0172134999998,None,1218.01812185,None,,,,,,,,,,,,s212_10032023,001,2023-10-03_16h13.35.613,test_typingtask_norepeats,2020.2.10,59.979223197076976,
lucky,lucky,,,,,0,23,23,23,,,,,,,,1223.5237524999998,None,"['l', 'u', 'c', 'k', 'y']",1,"[0.7210136000003331, 0.9373342000003504, 1.1133794000002126, 1.2974710000003142, 1.4733341999999539]",1223.5237524999998,None,1223.5236174499998,1223.6229095999997,,,,,,,,,,,,s212_10032023,001,2023-10-03_16h13.35.613,test_typingtask_norepeats,2020.2.10,59.979223197076976,
vodka,vodka,,,,,0,24,24,24,,,,,,,,1229.0298432,None,"['v', 'o', 'd', 'k', 'a']",1,"[0.86326710000003, 1.0152609000001576, 1.2072127000001274, 1.3512523999997939, 1.5192109999998138]",1229.0298432,None,1229.02912395,1229.1322261,,,,,,,,,,,,s212_10032023,001,2023-10-03_16h13.35.613,test_typingtask_norepeats,2020.2.10,59.979223197076976,
puppy,puppy,,,,,0,25,25,25,,,,,,,,1234.5336584000001,None,"['p', 'u', 'p', 'p', 'y']",1,"[0.7351048000000446, 1.0471592999997483, 1.2955164999998487, 1.4234361999997418, 1.6392111000000114]",1234.5336584000001,None,1234.5343625499997,1234.6339468,,,,,,,,,,,,s212_10032023,001,2023-10-03_16h13.35.613,test_typingtask_norepeats,2020.2.10,59.979223197076976,
theme,theme,,,,,0,26,26,26,,,,,,,,1240.0408500999997,None,"['t', 'h', 'e', 'm', 'e']",1,"[0.6922236000000339, 0.7961983000000146, 0.9559633000003487, 1.084199300000364, 1.196185400000104]",1240.0408500999997,None,1240.0401121499997,1240.1423073,,,,,,,,,,,,s212_10032023,001,2023-10-03_16h13.35.613,test_typingtask_norepeats,2020.2.10,59.979223197076976,
zibja,zibja,,,,,0,27,27,27,,,,,,,,1245.5446274,None,"['z', 'i', 'b', 'j', 'a']",1,"[1.0766240000002654, 1.228595800000221, 1.4687503000000106, 1.70857419999993, 1.8364323000000695]",1245.5446274,None,1245.54560715,None,,,,,,,,,,,,s212_10032023,001,2023-10-03_16h13.35.613,test_typingtask_norepeats,2020.2.10,59.979223197076976,
heond,heond,,,,,0,28,28,28,,,,,,,,1251.0499992999999,None,"['h', 'e', 'o', 'n', 'd']",1,"[0.8918649000002006, 1.035286900000301, 1.1633335000001352, 1.3230373999999756, 1.4910474000002978]",1251.0499992999999,None,1251.05084255,1251.1520557999997,,,,,,,,,,,,s212_10032023,001,2023-10-03_16h13.35.613,test_typingtask_norepeats,2020.2.10,59.979223197076976,
therm,therm,,,,,0,29,29,29,,,,,,,,1256.5557977999997,None,"['t', 'h', 'e', 'r', 'm']",1,"[0.7289574999999786, 0.8172653999999966, 0.9852286999998796, 1.129203299999972, 1.265230199999678]",1256.5557977999997,None,1256.5565388499997,None,,,,,,,,,,,,s212_10032023,001,2023-10-03_16h13.35.613,test_typingtask_norepeats,2020.2.10,59.979223197076976,
druze,druze,,,,,0,30,30,30,,,,,,,,1262.0609633,None,"['d', 'r', 'u', 'z', 'e']",1,"[0.9521572000003289, 1.1441878000000543, 1.280204700000013, 1.544290600000295, 1.7681666000003133]",1262.0609633,None,1262.06215005,1262.1623537,,,,,,,,,,,,s212_10032023,001,2023-10-03_16h13.35.613,test_typingtask_norepeats,2020.2.10,59.979223197076976,
vanru,vanru,,,,,0,31,31,31,,,,,,,,1267.5682695,None,"['v', 'a', 'n', 'r', 'u']",1,"[0.9408401000000595, 1.1007746999998744, 1.244730200000049, 1.412870600000133, 1.541158600000017]",1267.5682695,None,1267.5676090499999,1267.6720599,,,,,,,,,,,,s212_10032023,001,2023-10-03_16h13.35.613,test_typingtask_norepeats,2020.2.10,59.979223197076976,
vodka,vodka,,,,,0,32,32,32,,,,,,,,1273.0733526,None,"['v', 'o', 'd', 'k', 'a']",1,"[0.8277186000000256, 0.9796734999999899, 1.1554813000002468, 1.33184940000001, 1.4837350000002516]",1273.0733526,None,1273.0731132499998,None,,,,,,,,,,,,s212_10032023,001,2023-10-03_16h13.35.613,test_typingtask_norepeats,2020.2.10,59.979223197076976,
kremp,kremp,,,,,0,33,33,33,,,,,,,,1278.5799094999998,None,"['k', 'r', 'e', 'm', 'p']",1,"[0.8892141000001175, 1.0008504000002176, 1.1770950000000084, 1.3054484000003868, 1.4810177000003932]",1278.5799094999998,None,1278.5786330499998,1278.6826434,,,,,,,,,,,,s212_10032023,001,2023-10-03_16h13.35.613,test_typingtask_norepeats,2020.2.10,59.979223197076976,
cheer,cheer,,,,,0,34,34,34,,,,,,,,1284.0840832999997,None,"['c', 'h', 'e', 'e', 'r']",1,"[0.7210191999997733, 0.8650995999996667, 1.0726823999998487, 1.2649962999998934, 1.440957299999809]",1284.0840832999997,None,1284.0841343499999,1284.1833501,,,,,,,,,,,,s212_10032023,001,2023-10-03_16h13.35.613,test_typingtask_norepeats,2020.2.10,59.979223197076976,
buddy,buddy,,,,,0,35,35,35,,,,,,,,1289.5886772999997,None,"['b', 'u', 'd', 'd', 'y']",1,"[0.8326738999999179, 1.0404088999998748, 1.2564996000000974, 1.4403572000001077, 1.5606606000001193]",1289.5886772999997,None,1289.5896195499997,1289.692337,,,,,,,,,,,,s212_10032023,001,2023-10-03_16h13.35.613,test_typingtask_norepeats,2020.2.10,59.979223197076976,
belly,belly,,,,,0,36,36,36,,,,,,,,1295.0955709999998,None,"['b', 'e', 'l', 'l', 'y']",1,"[0.7256088999997701, 0.8696073999999498, 1.0052734999999302, 1.1895254999999452, 1.3174850999998853]",1295.0955709999998,None,1295.09511945,1295.2021618999997,,,,,,,,,,,,s212_10032023,001,2023-10-03_16h13.35.613,test_typingtask_norepeats,2020.2.10,59.979223197076976,
puppy,puppy,,,,,0,37,37,37,,,,,,,,1300.6011015999998,None,"['p', 'u', 'p', 'p', 'y']",1,"[0.7640168000002632, 1.139973800000007, 1.436101900000267, 1.587908299999981, 1.7879879000001893]",1300.6011015999998,None,1300.60061355,1300.7024250999998,,,,,,,,,,,,s212_10032023,001,2023-10-03_16h13.35.613,test_typingtask_norepeats,2020.2.10,59.979223197076976,
therm,therm,,,,,0,38,38,38,,,,,,,,1306.1050818999997,None,"['t', 'h', 'e', 'r', 'm']",1,"[0.7159112999997888, 1.2040672999996787, 1.3961406999997052, 1.5956496999997398, 1.7398150999997597]",1306.1050818999997,None,1306.10613365,None,,,,,,,,,,,,s212_10032023,001,2023-10-03_16h13.35.613,test_typingtask_norepeats,2020.2.10,59.979223197076976,
theme,theme,,,,,0,39,39,39,,,,,,,,1311.613288,None,"['t', 'h', 'e', 'm', 'e']",1,"[0.7115800999999919, 0.8240991000002396, 0.9757921000000351, 1.0877709999999752, 1.1915131000000656]",1311.613288,None,1311.6116250499997,1311.7123298000001,,,,,,,,,,,,s212_10032023,001,2023-10-03_16h13.35.613,test_typingtask_norepeats,2020.2.10,59.979223197076976,
edthe,edthe,,,,,0,40,40,40,,,,,,,,1317.1162356999998,None,"['e', 'd', 't', 'h', 'e']",1,"[0.7929009999998016, 0.9928380000001198, 1.2330456999998205, 1.3124573000000055, 1.432832099999814]",1317.1162356999998,None,1317.11717135,1317.2223407000001,,,,,,,,,,,,s212_10032023,001,2023-10-03_16h13.35.613,test_typingtask_norepeats,2020.2.10,59.979223197076976,
champ,champ,,,,,0,41,41,41,,,,,,,,1322.6241587,None,"['c', 'h', 'a', 'm', 'p']",1,"[0.6846956000003956, 0.7969365000003563, 0.9085753000003933, 1.0687077000002319, 1.2369768000003205]",1322.6241587,None,1322.6227251499997,1322.7229342,,,,,,,,,,,,s212_10032023,001,2023-10-03_16h13.35.613,test_typingtask_norepeats,2020.2.10,59.979223197076976,
haole,haole,,,,,0,42,42,42,,,,,,,,1328.1273195999997,None,"['h', 'a', 'l', 'o', 'l', 'e']",0,"[0.8218276999996306, 0.9337539999996807, 1.0696957000000111, 1.789714499999718, 1.9818695999997544, 2.093495399999938]",1328.1273195999997,None,1328.12816465,1328.2316161999997,,,,,,,,,,,,s212_10032023,001,2023-10-03_16h13.35.613,test_typingtask_norepeats,2020.2.10,59.979223197076976,
cooed,cooed,,,,,0,43,43,43,,,,,,,,1333.6326451,None,"['c', 'o', 'o', 'e', 'd']",1,"[0.804434499999843, 1.0044431999999688, 1.1725048999996943, 1.284429799999998, 1.50852789999999]",1333.6326451,None,1333.63356095,1333.7327176999997,,,,,,,,,,,,s212_10032023,001,2023-10-03_16h13.35.613,test_typingtask_norepeats,2020.2.10,59.979223197076976,
buddy,buddy,,,,,0,44,44,44,,,,,,,,1339.139505,None,"['b', 'u', 'd', 'd', 'y']",1,"[0.8416143999997985, 1.0179975999999442, 1.21753869999975, 1.4092266999996355, 1.5211998999998286]",1339.139505,None,1339.1391414499997,1339.2419666,,,,,,,,,,,,s212_10032023,001,2023-10-03_16h13.35.613,test_typingtask_norepeats,2020.2.10,59.979223197076976,
lucky,lucky,,,,,0,45,45,45,,,,,,,,1344.6434233999998,None,"['l', 'u', 'c', 'k', 'y']",1,"[0.6333874000001742, 0.857336800000212, 0.9773439999999027, 1.1453276000002006, 1.337340900000072]",1344.6434233999998,None,1344.64430225,1344.7434990000002,,,,,,,,,,,,s212_10032023,001,2023-10-03_16h13.35.613,test_typingtask_norepeats,2020.2.10,59.979223197076976,
think,think,,,,,0,46,46,46,,,,,,,,1350.1493305,None,"['t', 'h', 'i', 'n', 'k']",1,"[0.6558209999998326, 0.7680396999999175, 0.9597598000000289, 1.127723099999912, 1.3195958999999675]",1350.1493305,None,1350.14996005,1350.2507336999997,,,,,,,,,,,,s212_10032023,001,2023-10-03_16h13.35.613,test_typingtask_norepeats,2020.2.10,59.979223197076976,
faqir,faqir,,,,,0,47,47,47,,,,,,,,1355.6580356,None,"['f', 'a', 'q', 'w', 'i', 'r']",0,"[0.8110596999999871, 0.9869960000000901, 1.523201599999993, 1.5310107000000244, 2.5552175000002535, 2.707002800000282]",1355.6580356,None,1355.65567695,1355.7624427,,,,,,,,,,,,s212_10032023,001,2023-10-03_16h13.35.613,test_typingtask_norepeats,2020.2.10,59.979223197076976,
vanru,vanru,,,,,0,48,48,48,,,,,,,,1361.1618433999997,None,"['v', 'a', 'n', 'r', 'u']",1,"[0.8672443000000385, 0.9631460000000516, 1.1075653000002603, 1.2835751000002347, 1.4111949000002824]",1361.1618433999997,None,1361.16112735,None,,,,,,,,,,,,s212_10032023,001,2023-10-03_16h13.35.613,test_typingtask_norepeats,2020.2.10,59.979223197076976,
tithe,tithe,,,,,0,49,49,49,,,,,,,,1366.6675636999998,None,"['t', 'i', 't', 'h', 'e']",1,"[0.8015029000002869, 0.9135025000000496, 1.0574114000000918, 1.1852005999999164, 1.3371830000000955]",1366.6675636999998,None,1366.66671355,1366.7728324999998,,,,,,,,,,,,s212_10032023,001,2023-10-03_16h13.35.613,test_typingtask_norepeats,2020.2.10,59.979223197076976,
champ,champ,,,,,0,50,50,50,,,,,,,,1372.1712803,None,"['c', 'h', 'a', 'm', 'p']",1,"[0.7537987999999132, 0.8739070000001448, 1.0257698000000346, 1.145774099999926, 1.3218265999998948]",1372.1712803,None,1372.1721336499998,1372.2714978999998,,,,,,,,,,,,s212_10032023,001,2023-10-03_16h13.35.613,test_typingtask_norepeats,2020.2.10,59.979223197076976,
cooed,cooed,,,,,0,51,51,51,,,,,,,,1377.6773107999998,None,"['c', 'o', 'o', 'e', 'd']",1,"[0.6235368999996354, 0.8397332999998071, 1.0077401999997164, 1.1437885000000279, 1.3597921999999016]",1377.6773107999998,None,1377.6776875499997,1377.7809561999998,,,,,,,,,,,,s212_10032023,001,2023-10-03_16h13.35.613,test_typingtask_norepeats,2020.2.10,59.979223197076976,
champ,champ,,,,,0,52,52,52,,,,,,,,1383.183677,None,"['c', 'h', 'a', 'm', 'p']",1,"[0.6293911000002481, 0.7333250000001499, 0.9173558000002231, 1.02135380000027, 1.1973556000002645]",1383.183677,None,1383.18312155,1383.2821850999999,,,,,,,,,,,,s212_10032023,001,2023-10-03_16h13.35.613,test_typingtask_norepeats,2020.2.10,59.979223197076976,
there,there,,,,,0,53,53,53,,,,,,,,1388.6887532,None,"['t', 'h', 'e', 'r', 'e']",1,"[0.6680906999999934, 0.7643273999997291, 0.9328277999998136, 1.132282000000032, 1.3003215999997337]",1388.6887532,None,1388.6886098499997,1388.7923213999998,,,,,,,,,,,,s212_10032023,001,2023-10-03_16h13.35.613,test_typingtask_norepeats,2020.2.10,59.979223197076976,
about,about,,,,,0,54,54,54,,,,,,,,1394.1945565,None,"['a', 'b', 'o', 'u', 't']",1,"[0.7465105000001131, 0.8669448999999076, 1.0906496000002335, 1.1945497000001524, 1.378361699999914]",1394.1945565,None,1394.19413525,1394.2932267,,,,,,,,,,,,s212_10032023,001,2023-10-03_16h13.35.613,test_typingtask_norepeats,2020.2.10,59.979223197076976,
think,think,,,,,0,55,55,55,,,,,,,,1399.6986634999998,None,"['t', 'h', 'i', 'n', 'k']",1,"[0.7861754000000474, 0.9385086000002048, 1.1144874999999956, 1.2503747000000658, 1.4344492999998693]",1399.6986634999998,None,1399.6996856499998,1399.8026753999998,,,,,,,,,,,,s212_10032023,001,2023-10-03_16h13.35.613,test_typingtask_norepeats,2020.2.10,59.979223197076976,
cheer,cheer,,,,,0,56,56,56,,,,,,,,1405.2052067999998,None,"['c', 'h', 'e', 'e', 'r']",1,"[0.7038339999999152, 0.8317901999998867, 1.0158430999999837, 1.2239266999999927, 1.4638190999999097]",1405.2052067999998,None,1405.20510855,1405.3041644999998,,,,,,,,,,,,s212_10032023,001,2023-10-03_16h13.35.613,test_typingtask_norepeats,2020.2.10,59.979223197076976,
edthe,edthe,,,,,0,57,57,57,,,,,,,,1410.7097456000001,None,"['e', 'd', 't', 'h', 'e']",1,"[0.7433072999997421, 1.2153112999999394, 1.4473329999996167, 1.5592408999996223, 1.703409699999611]",1410.7097456000001,None,1410.7106051499998,1410.8122961999998,,,,,,,,,,,,s212_10032023,001,2023-10-03_16h13.35.613,test_typingtask_norepeats,2020.2.10,59.979223197076976,
theme,theme,,,,,0,58,58,58,,,,,,,,1416.2149742000001,None,"['t', 'h', 'e', 'm', 'e']",1,"[0.7183138999998846, 0.8140592999998262, 0.9663409999998294, 1.0545395999997709, 1.1658595999997488]",1416.2149742000001,None,1416.21583335,1416.3212454,,,,,,,,,,,,s212_10032023,001,2023-10-03_16h13.35.613,test_typingtask_norepeats,2020.2.10,59.979223197076976,
about,about,,,,,0,59,59,59,,,,,,,,1421.7221564000001,None,"['a', 'b', 'o', 'u', 't']",1,"[0.8667959999997947, 0.9949004999998579, 1.1706746999998359, 1.306880000000092, 1.4749032999998235]",1421.7221564000001,None,1421.72161665,1421.8220655,,,,,,,,,,,,s212_10032023,001,2023-10-03_16h13.35.613,test_typingtask_norepeats,2020.2.10,59.979223197076976,
would,would,,,,,0,60,60,60,,,,,,,,1427.2259485999998,None,"['w', 'o', 'u', 'l', 'd']",1,"[0.7871715000001132, 0.9311038999999255, 1.1071050999998988, 1.3792365999997855, 1.5231309999999212]",1427.2259485999998,None,1427.2271501499997,1427.3311168999999,,,,,,,,,,,,s212_10032023,001,2023-10-03_16h13.35.613,test_typingtask_norepeats,2020.2.10,59.979223197076976,
edthe,edthe,,,,,0,61,61,61,,,,,,,,1432.7315853,None,"['e', 'd', 't', 'h', 'e']",1,"[0.7614812999995593, 1.033485599999949, 1.3372639999997773, 1.4494642999998177, 1.5857547999999042]",1432.7315853,None,1432.73268975,1432.8323252999999,,,,,,,,,,,,s212_10032023,001,2023-10-03_16h13.35.613,test_typingtask_norepeats,2020.2.10,59.979223197076976,
think,think,,,,,0,62,62,62,,,,,,,,1438.2391343999998,None,"['t', 'h', 'i', 'n', 'k']",1,"[0.7579663999999866, 0.8619008999999096, 1.02207640000006, 1.1817086000000927, 1.3500957000001108]",1438.2391343999998,None,1438.2381611499998,None,,,,,,,,,,,,s212_10032023,001,2023-10-03_16h13.35.613,test_typingtask_norepeats,2020.2.10,59.979223197076976,
cheer,cheer,,,,,0,63,63,63,,,,,,,,1443.7459082,None,"['c', 'h', 'e', 'e', 'r']",1,"[0.8192635000000337, 0.9471545999999762, 1.059061500000098, 1.259160300000076, 1.4432259000000158]",1443.7459082,None,1443.7436564499997,1443.8428755,,,,,,,,,,,,s212_10032023,001,2023-10-03_16h13.35.613,test_typingtask_norepeats,2020.2.10,59.979223197076976,
cooed,cooed,,,,,0,64,64,64,,,,,,,,1449.2479558999999,None,"['c', 'o', 'o', 'e', 'd']",1,"[0.6851473000001533, 0.8771898999998484, 1.0535851999998158, 1.164846900000157, 1.6209132999997564]",1449.2479558999999,None,1449.2491086499997,1449.3513143999999,,,,,,,,,,,,s212_10032023,001,2023-10-03_16h13.35.613,test_typingtask_norepeats,2020.2.10,59.979223197076976,
heond,heond,,,,,0,65,65,65,,,,,,,,1454.7538851,None,"['h', 'e', 'o', 'n', 'd']",1,"[0.8591636999999537, 0.9708620000001247, 1.123121600000104, 1.2588756000000103, 1.4029375999998592]",1454.7538851,None,1454.7546793499998,1454.8538353,,,,,,,,,,,,s212_10032023,001,2023-10-03_16h13.35.613,test_typingtask_norepeats,2020.2.10,59.979223197076976,
haole,haole,,,,,0,66,66,66,,,,,,,,1460.2593074000001,None,"['h', 'a', 'o', 'l', 'e']",1,"[0.834195500000078, 0.9137138999999479, 1.0974778999998307, 1.297672700000021, 1.4337678000001688]",1460.2593074000001,None,1460.26010075,1460.3617407000002,,,,,,,,,,,,s212_10032023,001,2023-10-03_16h13.35.613,test_typingtask_norepeats,2020.2.10,59.979223197076976,
buddy,buddy,,,,,0,67,67,67,,,,,,,,1465.7646826999999,None,"['b', 'u', 'd', 'd', 'y']",1,"[0.7771566000001258, 0.9683964999999262, 1.2083708999998635, 1.384321699999873, 1.4884068999999727]",1465.7646826999999,None,1465.76566195,None,,,,,,,,,,,,s212_10032023,001,2023-10-03_16h13.35.613,test_typingtask_norepeats,2020.2.10,59.979223197076976,
pykka,pykka,,,,,0,68,68,68,,,,,,,,1471.2717269999998,None,"['p', 'y', 'k', 'k', 'a']",1,"[1.213332199999968, 1.757369700000254, 2.1253271000000495, 2.30133990000013, 2.4853250000001026]",1471.2717269999998,None,1471.27112105,1471.3725593999998,,,,,,,,,,,,s212_10032023,001,2023-10-03_16h13.35.613,test_typingtask_norepeats,2020.2.10,59.979223197076976,
would,would,,,,,0,69,69,69,,,,,,,,1476.7766871999997,None,"['w', 'o', 'u', 'l', 'd']",1,"[0.7404548999998042, 0.8603923999999097, 1.0203480999998646, 1.1885360999999648, 1.3007999000001291]",1476.7766871999997,None,1476.77666875,1476.8825917,,,,,,,,,,,,s212_10032023,001,2023-10-03_16h13.35.613,test_typingtask_norepeats,2020.2.10,59.979223197076976,
vanru,vanru,,,,,0,70,70,70,,,,,,,,1482.2824762,None,"['v', 'b', 'a', 'n', 'r', 'u']",0,"[0.8747478000000228, 0.8825652999998965, 0.9862496999999166, 1.1625207000001865, 1.3225413000000117, 1.4586143000001357]",1482.2824762,None,1482.2821165499997,1482.3821739,,,,,,,,,,,,s212_10032023,001,2023-10-03_16h13.35.613,test_typingtask_norepeats,2020.2.10,59.979223197076976,
belly,belly,,,,,0,71,71,71,,,,,,,,1487.7880826,None,"['b', 'e', 'l', 'l', 'y']",1,"[0.7690898000000743, 0.8729812000001402, 1.0408674000000246, 1.2249907000000348, 1.344720099999904]",1487.7880826,None,1487.7876599499998,1487.8921162000001,,,,,,,,,,,,s212_10032023,001,2023-10-03_16h13.35.613,test_typingtask_norepeats,2020.2.10,59.979223197076976,
pykka,pykka,,,,,0,72,72,72,,,,,,,,1493.2921909000002,None,"['p', 'y', 'k', 'k', 'a']",1,"[1.0812796999998682, 1.304831799999647, 1.6088550999998006, 1.7767830999996477, 1.8888096999999107]",1493.2921909000002,None,1493.2930040499998,1493.3924917,,,,,,,,,,,,s212_10032023,001,2023-10-03_16h13.35.613,test_typingtask_norepeats,2020.2.10,59.979223197076976,
champ,champ,,,,,0,73,73,73,,,,,,,,1498.7980632999997,None,"['c', 'h', 'a', 'm', 'p']",1,"[0.7430929000001925, 0.846987800000079, 1.030746100000215, 1.1269910000000891, 1.319040700000187]",1498.7980632999997,None,1498.7985970499997,1498.9025603999999,,,,,,,,,,,,s212_10032023,001,2023-10-03_16h13.35.613,test_typingtask_norepeats,2020.2.10,59.979223197076976,
cheer,cheer,,,,,0,74,74,74,,,,,,,,1504.3029435999997,None,"['c', 'h', 'e', 'e', 'r']",1,"[0.7100948999996035, 0.8461294999997335, 1.014053899999908, 1.2301040999996076, 1.4300944999999956]",1504.3029435999997,None,1504.3038599499998,1504.4032877,,,,,,,,,,,,s212_10032023,001,2023-10-03_16h13.35.613,test_typingtask_norepeats,2020.2.10,59.979223197076976,
faqir,faqir,,,,,0,75,75,75,,,,,,,,1509.8109064,None,"['f', 'a', 'q', 'u', 'r']",0,"[1.0098402999997234, 1.2898150999999416, 1.6018295999997463, 1.9138371999997617, 2.7698271999997814]",1509.8109064,None,1509.80962415,None,,,,,,,,,,,,s212_10032023,001,2023-10-03_16h13.35.613,test_typingtask_norepeats,2020.2.10,59.979223197076976,
lucky,lucky,,,,,0,76,76,76,,,,,,,,1515.3142595,None,"['l', 'u', 'c', 'k', 'y']",1,"[0.898873900000126, 1.0828135000001566, 1.2192172000000028, 1.3468226999998478, 1.5708180999999968]",1515.3142595,None,1515.31486715,1515.4143251,,,,,,,,,,,,s212_10032023,001,2023-10-03_16h13.35.613,test_typingtask_norepeats,2020.2.10,59.979223197076976,
champ,champ,,,,,0,77,77,77,,,,,,,,1520.8213621999998,None,"['c', 'h', 'a', 'm', 'p']",1,"[0.711614499999996, 0.7997350999999071, 0.9677372999999534, 1.1274395000000368, 1.2956482999998116]",1520.8213621999998,None,1520.8205779499997,1520.9222999999997,,,,,,,,,,,,s212_10032023,001,2023-10-03_16h13.35.613,test_typingtask_norepeats,2020.2.10,59.979223197076976,
would,would,,,,,0,78,78,78,,,,,,,,1526.3253233,None,"['w', 'o', 'u', 'l', 'd']",1,"[0.7198629999998047, 0.8557492999998431, 1.0395297000000028, 1.2314769999998134, 1.3756478000000243]",1526.3253233,None,1526.32602755,None,,,,,,,,,,,,s212_10032023,001,2023-10-03_16h13.35.613,test_typingtask_norepeats,2020.2.10,59.979223197076976,
think,think,,,,,0,79,79,79,,,,,,,,1531.8315580999997,None,"['t', 'h', 'i', 'n', 'k']",1,"[0.6935171000000082, 0.8055723000002217, 0.9974986000001991, 1.1654655000002094, 1.3254905000003419]",1531.8315580999997,None,1531.8316666499998,1531.9314473999998,,,,,,,,,,,,s212_10032023,001,2023-10-03_16h13.35.613,test_typingtask_norepeats,2020.2.10,59.979223197076976,
druze,druze,,,,,0,80,80,80,,,,,,,,1537.3363291,None,"['d', 'r', 'u', 'z', 'e']",1,"[0.9083669999999984, 1.1327290000003813, 1.3007007000001067, 1.540855300000203, 1.7966856000002736]",1537.3363291,None,1537.3370094499999,None,,,,,,,,,,,,s212_10032023,001,2023-10-03_16h13.35.613,test_typingtask_norepeats,2020.2.10,59.979223197076976,
zibja,zibja,,,,,0,81,81,81,,,,,,,,1542.8428507999997,None,"['z', 'i', 'b', 'j', 'a']",1,"[1.1382806000001437, 1.2822147000001678, 1.4741319000004296, 1.6499679000003198, 1.8101680000004308]",1542.8428507999997,None,1542.8426847499998,1542.9420618999998,,,,,,,,,,,,s212_10032023,001,2023-10-03_16h13.35.613,test_typingtask_norepeats,2020.2.10,59.979223197076976,
druze,druze,,,,,0,82,82,82,,,,,,,,1548.3471107999999,None,"['d', 'r', 'u', 'z', 'e']",1,"[0.9857376999998451, 1.2339539999998124, 1.4258798999999271, 1.6498430000001463, 1.8975789000000987]",1548.3471107999999,None,1548.3478894499997,None,,,,,,,,,,,,s212_10032023,001,2023-10-03_16h13.35.613,test_typingtask_norepeats,2020.2.10,59.979223197076976,
kremp,kremp,,,,,0,83,83,83,,,,,,,,1553.8539904,None,"['k', 'r', 'e', 'm', 'p']",1,"[0.887101199999961, 1.0390309999997953, 1.1990442999999686, 1.3114160000000084, 1.4950094000000718]",1553.8539904,None,1553.85362715,1553.9528771999999,,,,,,,,,,,,s212_10032023,001,2023-10-03_16h13.35.613,test_typingtask_norepeats,2020.2.10,59.979223197076976,
vodka,vodka,,,,,0,84,84,84,,,,,,,,1559.3583466,None,"['v', 'o', 'd', 'k', 'a']",1,"[0.8627424999999675, 0.990387599999849, 1.1668659999995725, 1.3186742999996568, 1.4785955999996077]",1559.3583466,None,1559.3590840499999,1559.4629851,,,,,,,,,,,,s212_10032023,001,2023-10-03_16h13.35.613,test_typingtask_norepeats,2020.2.10,59.979223197076976,
tithe,tithe,,,,,0,85,85,85,,,,,,,,1564.8651013999997,None,"['t', 'i', 't', 'h', 'e']",1,"[0.8439886999999544, 0.9321136999997179, 1.0923620999997183, 1.2439674999995987, 1.3959614999998848]",1564.8651013999997,None,1564.8646020499998,1564.9638086999998,,,,,,,,,,,,s212_10032023,001,2023-10-03_16h13.35.613,test_typingtask_norepeats,2020.2.10,59.979223197076976,
pykka,pykka,,,,,0,86,86,86,,,,,,,,1570.3692695999998,None,"['p', 'y', 'k', 'k', 'a']",1,"[0.8687699000001885, 1.1717291999998452, 1.5155198000002201, 1.6837586999999985, 1.835721100000228]",1570.3692695999998,None,1570.3700548499999,1570.4723561,,,,,,,,,,,,s212_10032023,001,2023-10-03_16h13.35.613,test_typingtask_norepeats,2020.2.10,59.979223197076976,
about,about,,,,,0,87,87,87,,,,,,,,1575.8763568,None,"['a', 'b', 'o', 'u', 't']",1,"[0.7126145000001998, 0.848715600000105, 1.048699999999826, 1.17667449999999, 1.3367253000001256]",1575.8763568,None,1575.87561825,1575.9823305999998,,,,,,,,,,,,s212_10032023,001,2023-10-03_16h13.35.613,test_typingtask_norepeats,2020.2.10,59.979223197076976,
faqir,faqir,,,,,0,88,88,88,,,,,,,,1581.3801479999997,None,"['f', 'a', 'q', 'i', 'r']",1,"[0.8249369999998635, 1.0489760999998907, 1.520911999999953, 1.6408684999996694, 1.8488996999999472]",1581.3801479999997,None,1581.3810819499997,1581.4812839,,,,,,,,,,,,s212_10032023,001,2023-10-03_16h13.35.613,test_typingtask_norepeats,2020.2.10,59.979223197076976,
vodka,vodka,,,,,0,89,89,89,,,,,,,,1586.8877032999999,None,"['v', 'o', 'd', 'k', 'a']",1,"[0.8133840999998938, 0.941350600000078, 1.1093141000001197, 1.2533481999998912, 1.4053084000001945]",1586.8877032999999,None,1586.8866223499997,1586.9927149,,,,,,,,,,,,s212_10032023,001,2023-10-03_16h13.35.613,test_typingtask_norepeats,2020.2.10,59.979223197076976,
therm,therm,,,,,0,90,90,90,,,,,,,,1592.3910671999997,None,"['t', 'h', 'e', 'r', 'm']",1,"[0.6697310999998081, 0.7660953999998128, 0.909707299999809, 1.0697395999995933, 1.2057224000000133]",1592.3910671999997,None,1592.39218215,1592.4924615999998,,,,,,,,,,,,s212_10032023,001,2023-10-03_16h13.35.613,test_typingtask_norepeats,2020.2.10,59.979223197076976,
faqir,faqir,,,,,0,91,91,91,,,,,,,,1597.8988375999998,None,"['f', 'a', 'q', 'u', 'r']",0,"[0.834721300000183, 1.0339951999999357, 1.3783328999998048, 1.5386293999999907, 1.9219647999998415]",1597.8988375999998,None,1597.89763285,1598.0028334999997,,,,,,,,,,,,s212_10032023,001,2023-10-03_16h13.35.613,test_typingtask_norepeats,2020.2.10,59.979223197076976,
zibja,zibja,,,,,0,92,92,92,,,,,,,,1603.4020462999997,None,"['z', 'i', 'b', 'j', 'a']",1,"[1.1706183000001147, 1.2990391000003, 1.5868094000002202, 1.7627716000001783, 1.8908292000000984]",1603.4020462999997,None,1603.40296955,None,,,,,,,,,,,,s212_10032023,001,2023-10-03_16h13.35.613,test_typingtask_norepeats,2020.2.10,59.979223197076976,
druze,druze,,,,,0,93,93,93,,,,,,,,1608.9074433,None,"['d', 'r', 'u', 'z', 'e']",1,"[0.9374496000000363, 1.121268599999894, 1.3133945999998105, 1.5381609000000935, 1.7693476999997984]",1608.9074433,None,1608.90845985,1609.0115981999998,,,,,,,,,,,,s212_10032023,001,2023-10-03_16h13.35.613,test_typingtask_norepeats,2020.2.10,59.979223197076976,
about,about,,,,,0,94,94,94,,,,,,,,1614.4131029999999,None,"['a', 'b', 'o', 'u', 't']",1,"[0.7117874999999003, 0.8397743000000446, 1.0161133000001428, 1.1677862999999888, 1.2956082000000606]",1614.4131029999999,None,1614.4141104499997,1614.5133489,,,,,,,,,,,,s212_10032023,001,2023-10-03_16h13.35.613,test_typingtask_norepeats,2020.2.10,59.979223197076976,
there,there,,,,,0,95,95,95,,,,,,,,1619.9186012,None,"['t', 'h', 'e', 'r', 'e']",1,"[0.6862743000001501, 0.8140671000001021, 0.9742228000000068, 1.1502667999998266, 1.3262454000000616]",1619.9186012,None,1619.9193657499998,1620.0206558,,,,,,,,,,,,s212_10032023,001,2023-10-03_16h13.35.613,test_typingtask_norepeats,2020.2.10,59.979223197076976,
belly,belly,,,,,0,96,96,96,,,,,,,,1625.4239131999998,None,"['b', 'e', 'l', 'l', 'y']",1,"[0.820795999999973, 0.9488013999998657, 1.1250706999999238, 1.2932052000001022, 1.3891702000000805]",1625.4239131999998,None,1625.4247937499997,1625.5241342999998,,,,,,,,,,,,s212_10032023,001,2023-10-03_16h13.35.613,test_typingtask_norepeats,2020.2.10,59.979223197076976,
there,there,,,,,0,97,97,97,,,,,,,,1630.9293982999998,None,"['t', 'h', 'e', 'r', 'e']",1,"[0.7154301999999007, 0.8592916999996305, 1.003331199999593, 1.1472955999997794, 1.3473477999996248]",1630.9293982999998,None,1630.93025805,1631.0306774,,,,,,,,,,,,s212_10032023,001,2023-10-03_16h13.35.613,test_typingtask_norepeats,2020.2.10,59.979223197076976,
think,think,,,,,0,98,98,98,,,,,,,,1636.4352420999999,None,"['t', 'h', 'i', 'n', 'k']",1,"[0.6898046000001159, 0.825930900000003, 0.9934905000000072, 1.153801200000089, 1.3455877999999757]",1636.4352420999999,None,1636.43613355,None,,,,,,,,,,,,s212_10032023,001,2023-10-03_16h13.35.613,test_typingtask_norepeats,2020.2.10,59.979223197076976,
zibja,zibja,,,,,0,99,99,99,,,,,,,,1641.9405237,None,"['z', 'i', 'b', 'j', 'a']",1,"[1.0566157000002931, 1.1845485000003464, 1.3765551999999843, 1.5525415000001885, 1.6724581000003127]",1641.9405237,None,1641.9416022499997,1642.0423043,,,,,,,,,,,,s212_10032023,001,2023-10-03_16h13.35.613,test_typingtask_norepeats,2020.2.10,59.979223197076976,
tithe,tithe,,,,,0,100,100,100,,,,,,,,1647.4460169,None,"['t', 'i', 't', 'h', 'e']",1,"[0.8468268999999964, 0.9831402999998318, 1.10303870000007, 1.2227861999999732, 1.3750430000000051]",1647.4460169,None,1647.4471493499998,None,,,,,,,,,,,,s212_10032023,001,2023-10-03_16h13.35.613,test_typingtask_norepeats,2020.2.10,59.979223197076976,
vanru,vanru,,,,,0,101,101,101,,,,,,,,1652.9516419000001,None,"['v', 'a', 'n', 'r', 'u']",1,"[0.7331361999999899, 0.9251781000002666, 1.0452264000000469, 1.2054486000001816, 1.3734788000001572]",1652.9516419000001,None,1652.9523918499997,1653.0515424,,,,,,,,,,,,s212_10032023,001,2023-10-03_16h13.35.613,test_typingtask_norepeats,2020.2.10,59.979223197076976,
buddy,buddy,,,,,0,102,102,102,,,,,,,,1658.4570983999997,None,"['b', 'u', 'd', 'd', 'y']",1,"[0.7798370000000432, 0.9476659000001746, 1.2038753000001634, 1.3797505000002275, 1.4919459000002462]",1658.4570983999997,None,1658.4581210499998,1658.5623084,,,,,,,,,,,,s212_10032023,001,2023-10-03_16h13.35.613,test_typingtask_norepeats,2020.2.10,59.979223197076976,
puppy,puppy,,,,,0,103,103,103,,,,,,,,1663.9625797999997,None,"['p', 'u', 'p', 'p', 'y']",1,"[0.7862543000001097, 1.0103086999997686, 1.258523200000127, 1.410250200000064, 1.6022259999999733]",1663.9625797999997,None,1663.9635933499997,1664.0628038999998,,,,,,,,,,,,s212_10032023,001,2023-10-03_16h13.35.613,test_typingtask_norepeats,2020.2.10,59.979223197076976,
about,about,,,,,0,104,104,104,,,,,,,,1669.4679960999997,None,"['a', 'b', 'o', 'u', 't']",1,"[0.7049024999996618, 0.7849340999996457, 0.9767508999998427, 1.120863499999814, 1.280862299999626]",1669.4679960999997,None,1669.46881715,1669.5707905999998,,,,,,,,,,,,s212_10032023,001,2023-10-03_16h13.35.613,test_typingtask_norepeats,2020.2.10,59.979223197076976,
therm,therm,,,,,0,105,105,105,,,,,,,,1674.9735231999998,None,"['t', 'h', 'e', 'r', 'm']",1,"[0.6635595000002468, 0.7352777999999489, 0.8794639000002462, 1.3595786000000771, 1.4873195000000123]",1674.9735231999998,None,1674.9745223499997,1675.0738093,,,,,,,,,,,,s212_10032023,001,2023-10-03_16h13.35.613,test_typingtask_norepeats,2020.2.10,59.979223197076976,
pykka,pykka,,,,,0,106,106,106,,,,,,,,1680.4789903,None,"['p', 'u', 'k', 'k', 'a']",0,"[0.7739231000000473, 1.0296610000000328, 1.6617352000002938, 1.837713200000053, 1.957703400000355]",1680.4789903,None,1680.4801370499997,None,,,,,,,,,,,,s212_10032023,001,2023-10-03_16h13.35.613,test_typingtask_norepeats,2020.2.10,59.979223197076976,
theme,theme,,,,,0,107,107,107,,,,,,,,1685.9846079999998,None,"['t', 'h', 'e', 'm', 'e']",1,"[0.6604400000001078, 0.7564689000000726, 0.9083716000000095, 1.0444886999998744, 1.1404881999997087]",1685.9846079999998,None,1685.98560255,None,,,,,,,,,,,,s212_10032023,001,2023-10-03_16h13.35.613,test_typingtask_norepeats,2020.2.10,59.979223197076976,
faqir,faqir,,,,,0,108,108,108,,,,,,,,1691.4922610999997,None,"['f', 'a', 'q', 'i', 'r']",1,"[0.904850300000362, 1.120861600000353, 1.3844738000002508, 1.5128357000003234, 1.7127194000004238]",1691.4922610999997,None,1691.49111075,1691.5926368,,,,,,,,,,,,s212_10032023,001,2023-10-03_16h13.35.613,test_typingtask_norepeats,2020.2.10,59.979223197076976,
edthe,edthe,,,,,0,109,109,109,,,,,,,,1696.9957575999997,None,"['e', 'd', 't', 'h', 'e']",1,"[0.9853638999998111, 1.1932905999997274, 1.4173992999999427, 1.529288099999576, 1.6652196999998523]",1696.9957575999997,None,1696.99664065,1697.1024933999997,,,,,,,,,,,,s212_10032023,001,2023-10-03_16h13.35.613,test_typingtask_norepeats,2020.2.10,59.979223197076976,
theme,theme,,,,,0,110,110,110,,,,,,,,1702.5011679999998,None,"['t', 'h', 'e', 'm', 'e']",1,"[0.6718955999999707, 0.7675322000000051, 0.9039017999998578, 1.0478937000002588, 1.1196653000001788]",1702.5011679999998,None,1702.50194825,1702.6026422,,,,,,,,,,,,s212_10032023,001,2023-10-03_16h13.35.613,test_typingtask_norepeats,2020.2.10,59.979223197076976,
puppy,puppy,,,,,0,111,111,111,,,,,,,,1708.0066154,None,"['p', 'u', 'p', 'p', 'y']",1,"[0.7424886000003426, 1.0304313999999977, 1.2704572000002372, 1.4144469000002573, 1.5504934000000503]",1708.0066154,None,1708.00751835,None,,,,,,,,,,,,s212_10032023,001,2023-10-03_16h13.35.613,test_typingtask_norepeats,2020.2.10,59.979223197076976,
cheer,cheer,,,,,0,112,112,112,,,,,,,,1713.5120229,None,"['c', 'h', 'e', 'e', 'r']",1,"[0.8767891000002237, 0.9977445000004082, 1.1731567000001633, 1.3650612000001274, 1.5568565000003218]",1713.5120229,None,1713.51311615,1713.612294,,,,,,,,,,,,s212_10032023,001,2023-10-03_16h13.35.613,test_typingtask_norepeats,2020.2.10,59.979223197076976,
druze,druze,,,,,0,113,113,113,,,,,,,,1719.0175169999998,None,"['d', 'r', 'u', 'z', 'e']",1,"[0.8515847999997277, 1.0755577999998422, 1.2274320999999873, 1.419516399999793, 1.6516415000000961]",1719.0175169999998,None,1719.01846585,1719.1224002999998,,,,,,,,,,,,s212_10032023,001,2023-10-03_16h13.35.613,test_typingtask_norepeats,2020.2.10,59.979223197076976,
kremp,kremp,,,,,0,114,114,114,,,,,,,,1724.5248028,None,"['k', 'r', 'e', 'm', 'p']",1,"[1.0002409000003354, 1.1118838000002143, 1.2559708000003411, 1.4079736000003322, 1.5846482000001743]",1724.5248028,None,1724.5241059499997,1724.6233456,,,,,,,,,,,,s212_10032023,001,2023-10-03_16h13.35.613,test_typingtask_norepeats,2020.2.10,59.979223197076976,
there,there,,,,,0,115,115,115,,,,,,,,1730.0290461999998,None,"['t', 'h', 'e', 'r', 'e']",1,"[0.7521505999998226, 0.8880042000000685, 1.0159951999999066, 1.1919253000000936, 1.3676885999998376]",1730.0290461999998,None,1730.0296278499998,1730.1326633999997,,,,,,,,,,,,s212_10032023,001,2023-10-03_16h13.35.613,test_typingtask_norepeats,2020.2.10,59.979223197076976,
belly,belly,,,,,0,116,116,116,,,,,,,,1735.5340680999998,None,"['b', 'e', 'l', 'l', 'y']",1,"[0.7827849000000242, 0.910757200000262, 1.0787595000001602, 1.262816400000247, 1.4147539999999026]",1735.5340680999998,None,1735.53499695,1735.6342876999997,,,,,,,,,,,,s212_10032023,001,2023-10-03_16h13.35.613,test_typingtask_norepeats,2020.2.10,59.979223197076976,
would,would,,,,,0,117,117,117,,,,,,,,1741.0394345,None,"['w', 'o', 'u', 'l', 'd']",1,"[0.7572374999999738, 0.8695878999997149, 1.0377125999998498, 1.2615584999998646, 1.4053219999996145]",1741.0394345,None,1741.0402628499999,1741.1426197,,,,,,,,,,,,s212_10032023,001,2023-10-03_16h13.35.613,test_typingtask_norepeats,2020.2.10,59.979223197076976,
lucky,lucky,,,,,0,118,118,118,,,,,,,,1746.5469558999998,None,"['l', 'u', 'c', 'k', 'y']",1,"[0.641873100000339, 0.8577715000001263, 0.9857025000001158, 1.1057699000002685, 1.3057741000002352]",1746.5469558999998,None,1746.5461838499998,1746.6510494,,,,,,,,,,,,s212_10032023,001,2023-10-03_16h13.35.613,test_typingtask_norepeats,2020.2.10,59.979223197076976,
kremp,kremp,,,,,0,119,119,119,,,,,,,,1752.0504342999998,None,"['k', 'r', 'e', 'm', 'p']",1,"[0.8823124000000462, 0.9943661000002066, 1.162301600000319, 1.3142895000000863, 1.4984092000004239]",1752.0504342999998,None,1752.05132265,1752.1509762,,,,,,,,,,,,s212_10032023,001,2023-10-03_16h13.35.613,test_typingtask_norepeats,2020.2.10,59.979223197076976,
vanru,vanru,,,,,,,,,0,0,0,0,,,,,,,,,,,,,1757.5564961999999,None,1780.7590341,None,"['v', 'a', 'n', 'r', 'u']",1,"[1.4141018000000258, 1.5340477999998257, 1.6783948999996028, 1.8384880999997222, 1.9500204999999369]",1780.7590341,None,1780.7633784,1780.8627041999998,s212_10032023,001,2023-10-03_16h13.35.613,test_typingtask_norepeats,2020.2.10,59.979223197076976,
about,about,,,,,,,,,0,1,1,1,,,,,,,,,,,,,,,1786.2679122,None,"['a', 'b', 'o', 'u', 't']",1,"[0.7368939000002683, 0.8331307000003108, 1.008836599999995, 1.1369892000002437, 1.3051107000001139]",1786.2679122,None,1786.26875395,1786.3708581,s212_10032023,001,2023-10-03_16h13.35.613,test_typingtask_norepeats,2020.2.10,59.979223197076976,
therm,therm,,,,,,,,,0,2,2,2,,,,,,,,,,,,,,,1791.7757277,None,"['t', 'h', 'e', 'r', 'r', 'm']",0,"[0.693355899999915, 0.7813725000000886, 0.9413257999999587, 1.0693425999997999, 1.1653089999999793, 1.2212666999998874]",1791.7757277,None,1791.77462245,1791.8739338999999,s212_10032023,001,2023-10-03_16h13.35.613,test_typingtask_norepeats,2020.2.10,59.979223197076976,
cooed,cooed,,,,,,,,,0,3,3,3,,,,,,,,,,,,,,,1797.2803405999998,None,"['c', 'o', 'o', 'e', 'd']",1,"[0.7175458000001527, 0.9007759000000988, 1.076452899999822, 1.1968351999998958, 1.3967133000001013]",1797.2803405999998,None,1797.2801097499998,1797.3821675999998,s212_10032023,001,2023-10-03_16h13.35.613,test_typingtask_norepeats,2020.2.10,59.979223197076976,
lucky,lucky,,,,,,,,,0,4,4,4,,,,,,,,,,,,,,,1802.7856567,None,"['l', 'u', 'c', 'k', 'y']",1,"[0.6754483999998229, 0.8994206999996095, 0.931338699999742, 1.2433359999999993, 1.3553675999996813]",1802.7856567,None,1802.78562455,None,s212_10032023,001,2023-10-03_16h13.35.613,test_typingtask_norepeats,2020.2.10,59.979223197076976,
puppy,puppy,,,,,,,,,0,5,5,5,,,,,,,,,,,,,,,1808.2899208,None,"['p', 'u', 'p', 'p', 'y']",1,"[0.6352127999998629, 0.8591341000001194, 1.0748302000001786, 1.2117272999998931, 1.3869085000001178]",1808.2899208,None,1808.29104515,1808.3926624,s212_10032023,001,2023-10-03_16h13.35.613,test_typingtask_norepeats,2020.2.10,59.979223197076976,
belly,belly,,,,,,,,,0,6,6,6,,,,,,,,,,,,,,,1813.7972507,None,"['b', 'e', 'l', 'l', 'y']",1,"[0.7357653999997638, 0.8238372000000709, 0.9837704000001395, 1.1520611000000827, 1.2476149999997688]",1813.7972507,None,1813.7966096499997,1813.9024771,s212_10032023,001,2023-10-03_16h13.35.613,test_typingtask_norepeats,2020.2.10,59.979223197076976,
lucky,lucky,,,,,,,,,0,7,7,7,,,,,,,,,,,,,,,1819.3010897,None,"['l', 'u', 'c', 'k', 'y']",1,"[0.6159156999997322, 0.8240815999997722, 0.9599398999998812, 1.0796777999998994, 1.304026100000101]",1819.3010897,None,1819.30209585,1819.4023508999999,s212_10032023,001,2023-10-03_16h13.35.613,test_typingtask_norepeats,2020.2.10,59.979223197076976,
tithe,tithe,,,,,,,,,0,8,8,8,,,,,,,,,,,,,,,1824.8085714,None,"['t', 'i', 't', 'h', 'e']",1,"[0.9884812000000238, 1.1084559999999328, 1.2924846000000798, 1.4689209000002847, 1.5800278000001526]",1824.8085714,None,1824.80759775,1824.9123059999997,s212_10032023,001,2023-10-03_16h13.35.613,test_typingtask_norepeats,2020.2.10,59.979223197076976,
about,about,,,,,,,,,0,9,9,9,,,,,,,,,,,,,,,1830.3140312,None,"['a', 'b', 'o', 'u', 't']",1,"[0.9069844999999077, 1.0186577999998008, 1.2269854000001033, 1.3709625999999844, 1.530958499999997]",1830.3140312,None,1830.3131210499998,1830.4122796000001,s212_10032023,001,2023-10-03_16h13.35.613,test_typingtask_norepeats,2020.2.10,59.979223197076976,
cheer,cheer,,,,,,,,,0,10,10,10,,,,,,,,,,,,,,,1835.8193092000001,None,"['c', 'h', 'e', 'e', 'r']",1,"[0.8256834000003437, 0.9697069000003466, 1.1937987999999677, 1.3542532000001302, 1.569824300000164]",1835.8193092000001,None,1835.8186258499998,1835.9223094,s212_10032023,001,2023-10-03_16h13.35.613,test_typingtask_norepeats,2020.2.10,59.979223197076976,
kremp,kremp,,,,,,,,,0,11,11,11,,,,,,,,,,,,,,,1841.3242698,None,"['k', 'r', 'e', 'm', 'p']",1,"[0.976420799999687, 1.1047496999999566, 1.2967933999998422, 1.4248079999997572, 1.6247843999999532]",1841.3242698,None,1841.3241026499998,1841.4233049999998,s212_10032023,001,2023-10-03_16h13.35.613,test_typingtask_norepeats,2020.2.10,59.979223197076976,
tithe,tithe,,,,,,,,,0,12,12,12,,,,,,,,,,,,,,,1846.8287463000001,None,"['t', 'i', 't', 'h', 'e']",1,"[0.8483186000003116, 0.9681251000001794, 1.0882682999999815, 1.2562529000001632, 1.400213100000201]",1846.8287463000001,None,1846.82961055,1846.9326224000001,s212_10032023,001,2023-10-03_16h13.35.613,test_typingtask_norepeats,2020.2.10,59.979223197076976,
belly,belly,,,,,,,,,0,13,13,13,,,,,,,,,,,,,,,1852.3339032999997,None,"['b', 'e', 'l', 'l', 'y']",1,"[0.7191552000003867, 0.8468649000001278, 1.02319690000013, 1.1992168000001584, 1.2951845000002322]",1852.3339032999997,None,1852.33493605,1852.4342646999999,s212_10032023,001,2023-10-03_16h13.35.613,test_typingtask_norepeats,2020.2.10,59.979223197076976,
tithe,tithe,,,,,,,,,0,14,14,14,,,,,,,,,,,,,,,1857.8432537999997,None,"['t', 'i', 't', 'h', 'e']",1,"[0.7618522000002486, 0.9058014000002004, 1.0417867000001024, 1.1777446999999484, 1.3217439999998533]",1857.8432537999997,None,1857.8406454499998,1857.9425809,s212_10032023,001,2023-10-03_16h13.35.613,test_typingtask_norepeats,2020.2.10,59.979223197076976,
theme,theme,,,,,,,,,0,15,15,15,,,,,,,,,,,,,,,1863.3449655,None,"['t', 'h', 'e', 'm', 'e']",1,"[0.7158044999996491, 0.828341399999772, 0.9958378999999695, 1.1160541999997804, 1.2200754999998935]",1863.3449655,None,1863.34578235,None,s212_10032023,001,2023-10-03_16h13.35.613,test_typingtask_norepeats,2020.2.10,59.979223197076976,
edthe,edthe,,,,,,,,,0,16,16,16,,,,,,,,,,,,,,,1868.8508346999997,None,"['e', 'd', 't', 'h', 'e']",1,"[1.0180952000000616, 1.234193199999936, 1.4742334000002302, 1.6261374999999134, 1.778201099999933]",1868.8508346999997,None,1868.85159975,1868.9522904,s212_10032023,001,2023-10-03_16h13.35.613,test_typingtask_norepeats,2020.2.10,59.979223197076976,
think,think,,,,,,,,,0,17,17,17,,,,,,,,,,,,,,,1874.356284,None,"['t', 'h', 'i', 'n', 'k']",1,"[0.7447369999999864, 0.8968185999997331, 1.128607799999827, 1.2884261999997761, 1.4807538999998542]",1874.356284,None,1874.35697495,None,s212_10032023,001,2023-10-03_16h13.35.613,test_typingtask_norepeats,2020.2.10,59.979223197076976,
theme,theme,,,,,,,,,0,18,18,18,,,,,,,,,,,,,,,1879.8616065,None,"['t', 'h', 'e', 'm', 'e']",1,"[0.6874425999999403, 0.8234827999999652, 0.9834279000001516, 1.095430800000031, 1.215157999999974]",1879.8616065,None,1879.86258875,1879.9624725999997,s212_10032023,001,2023-10-03_16h13.35.613,test_typingtask_norepeats,2020.2.10,59.979223197076976,
think,think,,,,,,,,,0,19,19,19,,,,,,,,,,,,,,,1885.3670898999999,None,"['t', 'h', 'i', 'n', 'k']",1,"[0.9977028999996946, 1.1100679999999556, 1.3418871999997464, 1.5022417999998652, 1.645703499999854]",1885.3670898999999,None,1885.3679959499998,None,s212_10032023,001,2023-10-03_16h13.35.613,test_typingtask_norepeats,2020.2.10,59.979223197076976,
belly,belly,,,,,,,,,0,20,20,20,,,,,,,,,,,,,,,1890.8742383,None,"['b', 'e', 'l', 'l', 'y']",1,"[0.698962500000107, 0.7867791000003308, 0.9547861000000921, 1.130804100000205, 1.251274900000226]",1890.8742383,None,1890.87362715,1890.9728108,s212_10032023,001,2023-10-03_16h13.35.613,test_typingtask_norepeats,2020.2.10,59.979223197076976,
therm,therm,,,,,,,,,0,21,21,21,,,,,,,,,,,,,,,1896.3783653,None,"['t', 'h', 'e', 'r', 'm']",1,"[0.6988384999999653, 0.8030047000002014, 0.954324600000291, 1.1224074000001565, 1.2828373000002102]",1896.3783653,None,1896.3788395499998,1896.4824442999998,s212_10032023,001,2023-10-03_16h13.35.613,test_typingtask_norepeats,2020.2.10,59.979223197076976,
heond,heond,,,,,,,,,0,22,22,22,,,,,,,,,,,,,,,1901.8838707999998,None,"['h', 'e', 'o', 'n', 'd']",1,"[0.7695745999999417, 0.856851700000334, 1.0092254999999568, 1.144882200000211, 1.2651488999999856]",1901.8838707999998,None,1901.88460535,1901.9838108999998,s212_10032023,001,2023-10-03_16h13.35.613,test_typingtask_norepeats,2020.2.10,59.979223197076976,
puppy,puppy,,,,,,,,,0,23,23,23,,,,,,,,,,,,,,,1907.3891343,None,"['p', 'u', 'p', 'p', 'y']",1,"[0.7843330999999125, 0.9839399000002231, 1.199927000000116, 1.3439554999999928, 1.5359565000003386]",1907.3891343,None,1907.3899597499997,1907.4923307,s212_10032023,001,2023-10-03_16h13.35.613,test_typingtask_norepeats,2020.2.10,59.979223197076976,
think,think,,,,,,,,,0,24,24,24,,,,,,,,,,,,,,,1912.8945269,None,"['t', 'h', 'i', 'n', 'k']",1,"[0.6464969999997265, 0.7665766999998596, 0.9585001999998894, 1.1745246999998926, 1.3345329999997375]",1912.8945269,None,1912.8955458499997,1913.0026712,s212_10032023,001,2023-10-03_16h13.35.613,test_typingtask_norepeats,2020.2.10,59.979223197076976,
about,about,,,,,,,,,0,25,25,25,,,,,,,,,,,,,,,1918.4000928,None,"['a', 'b', 'p', 'u', 't']",0,"[0.9247298999998748, 1.0449840000001132, 1.3816609999998946, 1.6690377999998418, 1.8049599000000853]",1918.4000928,None,1918.40094045,1918.5025067000001,s212_10032023,001,2023-10-03_16h13.35.613,test_typingtask_norepeats,2020.2.10,59.979223197076976,
puppy,puppy,,,,,,,,,0,26,26,26,,,,,,,,,,,,,,,1923.90575,None,"['p', 'u', 'p', 'p', 'y']",1,"[0.7872634999998809, 1.0033070999998017, 1.2350793999999041, 1.387249499999598, 1.5959770999998]",1923.90575,None,1923.90659355,None,s212_10032023,001,2023-10-03_16h13.35.613,test_typingtask_norepeats,2020.2.10,59.979223197076976,
edthe,edthe,,,,,,,,,0,27,27,27,,,,,,,,,,,,,,,1929.4110774,None,"['e', 'd', 't', 'h', 'e']",1,"[0.9377002999999604, 1.161972699999751, 1.449907599999733, 1.554494099999829, 1.6900128999996014]",1929.4110774,None,1929.41193425,1929.5119338999998,s212_10032023,001,2023-10-03_16h13.35.613,test_typingtask_norepeats,2020.2.10,59.979223197076976,
cooed,cooed,,,,,,,,,0,28,28,28,,,,,,,,,,,,,,,1934.9184962999998,None,"['c', 'o', 'o', 'e', 'd']",1,"[0.8705476999998609, 1.062472600000092, 1.2304579000001468, 1.3344993999999133, 1.5190691000002516]",1934.9184962999998,None,1934.91760495,1935.0222257,s212_10032023,001,2023-10-03_16h13.35.613,test_typingtask_norepeats,2020.2.10,59.979223197076976,
tithe,tithe,,,,,,,,,0,29,29,29,,,,,,,,,,,,,,,1940.4221268000001,None,"['t', 'i', 't', 'h', 'e']",1,"[0.8149261000003207, 0.9265353000000687, 1.0706257000001642, 1.2149375000003602, 1.3588323000003584]",1940.4221268000001,None,1940.4230714499997,1940.5227747,s212_10032023,001,2023-10-03_16h13.35.613,test_typingtask_norepeats,2020.2.10,59.979223197076976,
champ,champ,,,,,,,,,0,30,30,30,,,,,,,,,,,,,,,1945.9276005000002,None,"['c', 'h', 'a', 'm', 'p']",1,"[0.7414444000000913, 0.8533946000002288, 0.9891760000000431, 1.1255665000003319, 1.2933955000003152]",1945.9276005000002,None,1945.9284877499997,1946.0322941,s212_10032023,001,2023-10-03_16h13.35.613,test_typingtask_norepeats,2020.2.10,59.979223197076976,
cheer,cheer,,,,,,,,,0,31,31,31,,,,,,,,,,,,,,,1951.4331072999998,None,"['c', 'h', 'e', 'e', 'r']",1,"[0.8917043999999805, 1.027951299999586, 1.1959772000000157, 1.3878901999996742, 1.5639744999998584]",1951.4331072999998,None,1951.43405995,1951.5333522,s212_10032023,001,2023-10-03_16h13.35.613,test_typingtask_norepeats,2020.2.10,59.979223197076976,
vanru,vanru,,,,,,,,,0,32,32,32,,,,,,,,,,,,,,,1956.9385764999997,None,"['v', 'a', 'n', 'r', 'u']",1,"[0.9786749999998392, 1.0983977999999297, 1.2421693000001142, 1.4103826999999, 1.5629383999998936]",1956.9385764999997,None,1956.93957665,1957.0420531,s212_10032023,001,2023-10-03_16h13.35.613,test_typingtask_norepeats,2020.2.10,59.979223197076976,
heond,heond,,,,,,,,,0,33,33,33,,,,,,,,,,,,,,,1962.4440918,None,"['h', 'e', 'o', 'n', 'd']",1,"[0.7928186999997706, 0.9205659999997806, 1.080960799999957, 1.208932399999867, 1.3769101999996565]",1962.4440918,None,1962.44509585,1962.5443107,s212_10032023,001,2023-10-03_16h13.35.613,test_typingtask_norepeats,2020.2.10,59.979223197076976,
vodka,vodka,,,,,,,,,0,34,34,34,,,,,,,,,,,,,,,1967.9514513999998,None,"['v', 'o', 'd', 'k', 'a']",1,"[0.7415879000000132, 0.8855494999997973, 1.0455167999998594, 1.2052558000000317, 1.3495739999998477]",1967.9514513999998,None,1967.95059385,1968.05213,s212_10032023,001,2023-10-03_16h13.35.613,test_typingtask_norepeats,2020.2.10,59.979223197076976,
faqir,faqir,,,,,,,,,0,35,35,35,,,,,,,,,,,,,,,1973.4580938999998,None,"['f', 'a', 'q', 'i', 'r']",1,"[0.8106689999999617, 1.1310555999998542, 1.7228930999999648, 1.851171599999816, 2.0429211999999097]",1973.4580938999998,None,1973.45614245,1973.562238,s212_10032023,001,2023-10-03_16h13.35.613,test_typingtask_norepeats,2020.2.10,59.979223197076976,
there,there,,,,,,,,,0,36,36,36,,,,,,,,,,,,,,,1978.9611329,None,"['t', 'h', 'e', 'r', 'e']",1,"[0.6918891000000258, 0.819876000000022, 0.9799720999999408, 1.1637768999999025, 1.331822000000102]",1978.9611329,None,1978.9615546499997,1979.0624956000001,s212_10032023,001,2023-10-03_16h13.35.613,test_typingtask_norepeats,2020.2.10,59.979223197076976,
about,about,,,,,,,,,0,37,37,37,,,,,,,,,,,,,,,1984.4663114999998,None,"['a', 'b', 'o', 'u', 't']",1,"[0.7147232000002077, 0.83438440000009, 1.0268255999999383, 1.154724299999998, 1.290711199999805]",1984.4663114999998,None,1984.4671005499997,None,s212_10032023,001,2023-10-03_16h13.35.613,test_typingtask_norepeats,2020.2.10,59.979223197076976,
haole,haole,,,,,,,,,0,38,38,38,,,,,,,,,,,,,,,1989.9717643999998,None,"['h', 'a', 'o', 'l', 'e']",1,"[0.8812511000000995, 1.0092169999998077, 1.3293091000000459, 1.5452187000000777, 1.6652136000002429]",1989.9717643999998,None,1989.9725957499998,1990.0723315,s212_10032023,001,2023-10-03_16h13.35.613,test_typingtask_norepeats,2020.2.10,59.979223197076976,
faqir,faqir,,,,,,,,,0,39,39,39,,,,,,,,,,,,,,,1995.480207,None,"['f', 'a', 'q', 'i', 'r']",1,"[0.9406326999996963, 1.2526545999999144, 1.6287815999999111, 1.7487819999996645, 1.9327956999995877]",1995.480207,None,1995.47811655,1995.5811168999999,s212_10032023,001,2023-10-03_16h13.35.613,test_typingtask_norepeats,2020.2.10,59.979223197076976,
puppy,puppy,,,,,,,,,0,40,40,40,,,,,,,,,,,,,,,2000.9825861999998,None,"['p', 'u', 'p', 'p', 'y']",1,"[0.710464900000261, 0.9423305000000255, 1.1823261000004095, 1.3344103000003997, 1.4784574000000248]",2000.9825861999998,None,2000.9835908499997,2001.0828883,s212_10032023,001,2023-10-03_16h13.35.613,test_typingtask_norepeats,2020.2.10,59.979223197076976,
there,there,,,,,,,,,0,41,41,41,,,,,,,,,,,,,,,2006.4878638,None,"['t', 'h', 'e', 'r', 'e']",1,"[0.6288344000004145, 0.7248218000004272, 0.8687925000003816, 1.0294207000001734, 1.2211904000000686]",2006.4878638,None,2006.4887800499998,2006.5909410999998,s212_10032023,001,2023-10-03_16h13.35.613,test_typingtask_norepeats,2020.2.10,59.979223197076976,
pykka,pykka,,,,,,,,,0,42,42,42,,,,,,,,,,,,,,,2011.9937544,None,"['p', 'k', 'k', 'a']",0,"[0.7879831000000195, 1.7313246000003346, 1.899297000000388, 2.0192439000002196]",2011.9937544,None,2011.9945929499997,2012.0938511999998,s212_10032023,001,2023-10-03_16h13.35.613,test_typingtask_norepeats,2020.2.10,59.979223197076976,
tithe,tithe,,,,,,,,,0,43,43,43,,,,,,,,,,,,,,,2017.4989468999997,None,"['t', 'i', 't', 'h', 'e']",1,"[0.8258587000000261, 0.9704053999998905, 1.1058469999998124, 1.234095299999808, 1.3860138999998526]",2017.4989468999997,None,2017.49981615,2017.6005888,s212_10032023,001,2023-10-03_16h13.35.613,test_typingtask_norepeats,2020.2.10,59.979223197076976,
there,there,,,,,,,,,0,44,44,44,,,,,,,,,,,,,,,2023.0047866,None,"['t', 'h', 'e', 'r', 'e']",1,"[0.6560628000001998, 0.767892700000175, 0.9122375000001739, 1.0722429000002194, 1.264220700000351]",2023.0047866,None,2023.0055723499997,2023.1121048999998,s212_10032023,001,2023-10-03_16h13.35.613,test_typingtask_norepeats,2020.2.10,59.979223197076976,
think,think,,,,,,,,,0,45,45,45,,,,,,,,,,,,,,,2028.5107027,None,"['t', 'h', 'i', 'n', 'k']",1,"[0.7503798000002462, 0.8699884000002385, 1.078325400000267, 1.2703225000000202, 1.4463700999999674]",2028.5107027,None,2028.51110495,2028.6126,s212_10032023,001,2023-10-03_16h13.35.613,test_typingtask_norepeats,2020.2.10,59.979223197076976,
heond,heond,,,,,,,,,0,46,46,46,,,,,,,,,,,,,,,2034.0157450000002,None,"['h', 'e', 'o', 'n', 'd']",1,"[0.8372647999999572, 0.9813335999997435, 1.149394399999892, 1.4132848999997805, 1.6132625999998709]",2034.0157450000002,None,2034.0166060499998,2034.1223089999999,s212_10032023,001,2023-10-03_16h13.35.613,test_typingtask_norepeats,2020.2.10,59.979223197076976,
about,about,,,,,,,,,0,47,47,47,,,,,,,,,,,,,,,2039.5229033,None,"['a', 'b', 'o', 'u', 't']",1,"[0.6342632000000776, 0.7617471000003206, 0.9461544000000686, 1.0820889999999963, 1.2741588000003503]",2039.5229033,None,2039.5220933499997,2039.6228209,s212_10032023,001,2023-10-03_16h13.35.613,test_typingtask_norepeats,2020.2.10,59.979223197076976,
therm,therm,,,,,,,,,0,48,48,48,,,,,,,,,,,,,,,2045.0264797999998,None,"['t', 'h', 'e', 'r', 'm']",1,"[0.6745405000001483, 0.7944317999999839, 0.9465387000000192, 1.1225153999998838, 1.29827830000022]",2045.0264797999998,None,2045.0275974499998,None,s212_10032023,001,2023-10-03_16h13.35.613,test_typingtask_norepeats,2020.2.10,59.979223197076976,
haole,haole,,,,,,,,,0,49,49,49,,,,,,,,,,,,,,,2050.5327143,None,"['h', 'a', 'o', 'l', 'e']",1,"[0.7919689999998809, 0.9044936999998754, 1.0643753999997898, 1.272038799999791, 1.392326199999843]",2050.5327143,None,2050.53308925,2050.632448,s212_10032023,001,2023-10-03_16h13.35.613,test_typingtask_norepeats,2020.2.10,59.979223197076976,
there,there,,,,,,,,,0,50,50,50,,,,,,,,,,,,,,,2056.0377146,None,"['t', 'h', 'e', 'r', 'e']",1,"[0.7195721999996749, 0.847291199999745, 0.9913145000000441, 1.1913212999997995, 1.3673721000000114]",2056.0377146,None,2056.03858705,2056.1421332,s212_10032023,001,2023-10-03_16h13.35.613,test_typingtask_norepeats,2020.2.10,59.979223197076976,
druze,druze,,,,,,,,,0,51,51,51,,,,,,,,,,,,,,,2061.543081,None,"['d', 'r', 'u', 'z', 'e']",1,"[0.8946012999999766, 1.093984300000102, 1.4780307999999422, 1.5977441999998518, 1.8460481000001892]",2061.543081,None,2061.54402845,2061.6430901999997,s212_10032023,001,2023-10-03_16h13.35.613,test_typingtask_norepeats,2020.2.10,59.979223197076976,
zibja,zibja,,,,,,,,,0,52,52,52,,,,,,,,,,,,,,,2067.0501562,None,"['z', 'i', 'b', 'j', 'a']",1,"[0.9227855999997701, 1.0508428999996795, 1.2428233999999065, 1.410889700000098, 1.579475199999706]",2067.0501562,None,2067.04957885,2067.1522691,s212_10032023,001,2023-10-03_16h13.35.613,test_typingtask_norepeats,2020.2.10,59.979223197076976,
heond,heond,,,,,,,,,0,53,53,53,,,,,,,,,,,,,,,2072.5541802,None,"['h', 'e', 'o', 'n', 'd']",1,"[0.7705326000000241, 0.8985250000000633, 1.0265247000002091, 1.2025125000000116, 1.3465106000003289]",2072.5541802,None,2072.55508805,2072.6543379,s212_10032023,001,2023-10-03_16h13.35.613,test_typingtask_norepeats,2020.2.10,59.979223197076976,
buddy,buddy,,,,,,,,,0,54,54,54,,,,,,,,,,,,,,,2078.0617398,None,"['b', 'u', 'd', 'd', 'y']",1,"[0.7675223000001097, 0.9515511999998125, 1.1593874000000142, 1.3754383999998936, 1.551273200000196]",2078.0617398,None,2078.06060135,None,s212_10032023,001,2023-10-03_16h13.35.613,test_typingtask_norepeats,2020.2.10,59.979223197076976,
faqir,faqir,,,,,,,,,0,55,55,55,,,,,,,,,,,,,,,2083.5652261,None,"['f', 'a', 'q', 'i', 'r']",1,"[0.9517762999998922, 1.1438859999998385, 1.4398276000001715, 1.583745800000088, 1.7758115999999973]",2083.5652261,None,2083.56615795,None,s212_10032023,001,2023-10-03_16h13.35.613,test_typingtask_norepeats,2020.2.10,59.979223197076976,
there,there,,,,,,,,,0,56,56,56,,,,,,,,,,,,,,,2089.07075,None,"['t', 'h', 'e', 'r', 'e']",1,"[0.6945741999998063, 0.8222633999998834, 0.9502960999998322, 1.0782490999999936, 1.2622238999997535]",2089.07075,None,2089.07146405,2089.1709987,s212_10032023,001,2023-10-03_16h13.35.613,test_typingtask_norepeats,2020.2.10,59.979223197076976,
lucky,lucky,,,,,,,,,0,57,57,57,,,,,,,,,,,,,,,2094.5762535,None,"['l', 'u', 'c', 'k', 'y']",1,"[0.6847480000001269, 0.8927872999997817, 1.0127247999998872, 1.1484910999997737, 1.3647611000001234]",2094.5762535,None,2094.5770779500003,None,s212_10032023,001,2023-10-03_16h13.35.613,test_typingtask_norepeats,2020.2.10,59.979223197076976,
faqir,faqir,,,,,,,,,0,58,58,58,,,,,,,,,,,,,,,2100.0848548999998,None,"['f', 'a', 'q', 'i', 'r']",1,"[0.9525916999996298, 1.144149099999595, 1.4238980999998603, 1.5442188999995778, 1.6963217999996232]",2100.0848548999998,None,2100.08259045,2100.1823157999997,s212_10032023,001,2023-10-03_16h13.35.613,test_typingtask_norepeats,2020.2.10,59.979223197076976,
kremp,kremp,,,,,,,,,0,59,59,59,,,,,,,,,,,,,,,2105.5886754,None,"['k', 'r', 'e', 'm', 'p']",1,"[0.9121203999998215, 1.0483171999999286, 1.2245371999997587, 1.3362923999998202, 1.5444487999998273]",2105.5886754,None,2105.58816475,2105.6921096,s212_10032023,001,2023-10-03_16h13.35.613,test_typingtask_norepeats,2020.2.10,59.979223197076976,
zibja,zibja,,,,,,,,,0,60,60,60,,,,,,,,,,,,,,,2111.0939591,None,"['z', 'i', 'b', 'j', 'a']",1,"[1.0948069000000942, 1.2150042999996913, 1.4152398000001085, 1.5749350999999479, 1.710823999999775]",2111.0939591,None,2111.09357585,2111.1927941999998,s212_10032023,001,2023-10-03_16h13.35.613,test_typingtask_norepeats,2020.2.10,59.979223197076976,
druze,druze,,,,,,,,,0,61,61,61,,,,,,,,,,,,,,,2116.5981183999997,None,"['d', 'r', 'u', 'z', 'e']",1,"[0.8868910000001051, 1.1352536999997938, 1.3188851999998406, 1.510914099999809, 1.7750299999997878]",2116.5981183999997,None,2116.5988635500003,2116.702485,s212_10032023,001,2023-10-03_16h13.35.613,test_typingtask_norepeats,2020.2.10,59.979223197076976,
would,would,,,,,,,,,0,62,62,62,,,,,,,,,,,,,,,2122.1035502,None,"['w', 'o', 'u', 'l', 'd']",1,"[0.8451577999999245, 1.3015152999996644, 1.4537003000000368, 1.6134573999997883, 1.7574338999997963]",2122.1035502,None,2122.10461805,2122.2038595999998,s212_10032023,001,2023-10-03_16h13.35.613,test_typingtask_norepeats,2020.2.10,59.979223197076976,
therm,therm,,,,,,,,,0,63,63,63,,,,,,,,,,,,,,,2127.6112672,None,"['t', 'h', 'e', 'r', 'm']",1,"[0.6893783999998959, 0.8262399000000187, 0.9546314999997776, 1.08973560000004, 1.665760599999885]",2127.6112672,None,2127.61005865,2127.7126396999997,s212_10032023,001,2023-10-03_16h13.35.613,test_typingtask_norepeats,2020.2.10,59.979223197076976,
vanru,vanru,,,,,,,,,0,64,64,64,,,,,,,,,,,,,,,2133.1154936,None,"['v', 'a', 'n', 'r', 'u']",1,"[0.7695725000003222, 1.0095420000002377, 1.137574400000176, 1.3051823999999215, 1.4657035000000178]",2133.1154936,None,2133.11559285,2133.2220872,s212_10032023,001,2023-10-03_16h13.35.613,test_typingtask_norepeats,2020.2.10,59.979223197076976,
pykka,pykka,,,,,,,,,0,65,65,65,,,,,,,,,,,,,,,2138.6214425,None,"['p', 'y', 'k', 'k', 'a']",1,"[0.7433428999997886, 1.3114465999997265, 1.599566799999593, 1.7515440999995917, 1.887544700000035]",2138.6214425,None,2138.62108325,2138.7226184,s212_10032023,001,2023-10-03_16h13.35.613,test_typingtask_norepeats,2020.2.10,59.979223197076976,
zibja,zibja,,,,,,,,,0,66,66,66,,,,,,,,,,,,,,,2144.1255605,None,"['z', 'i', 'b', 'j', 'a']",1,"[1.1835774000001038, 1.3036055000002307, 1.647484400000394, 1.8231809000003523, 1.967268200000035]",2144.1255605,None,2144.12658625,None,s212_10032023,001,2023-10-03_16h13.35.613,test_typingtask_norepeats,2020.2.10,59.979223197076976,
buddy,buddy,,,,,,,,,0,67,67,67,,,,,,,,,,,,,,,2149.631089,None,"['b', 'u', 'd', 'd', 'y']",1,"[0.9099223999996866, 1.0939143000000513, 1.3339210999997704, 1.5339546000000155, 1.6536859999996523]",2149.631089,None,2149.6320803500003,2149.7326101999997,s212_10032023,001,2023-10-03_16h13.35.613,test_typingtask_norepeats,2020.2.10,59.979223197076976,
haole,haole,,,,,,,,,0,68,68,68,,,,,,,,,,,,,,,2155.1367878,None,"['h', 'a', 'o', 'l', 'e']",1,"[0.8042528999999377, 0.9567941999998766, 1.0842641999997795, 1.2922303999998803, 1.4282248999998046]",2155.1367878,None,2155.13755355,2155.2420826,s212_10032023,001,2023-10-03_16h13.35.613,test_typingtask_norepeats,2020.2.10,59.979223197076976,
vodka,vodka,,,,,,,,,0,69,69,69,,,,,,,,,,,,,,,2160.6420362,None,"['v', 'o', 'd', 'k', 'a']",1,"[0.7790259999997033, 0.9469648999997844, 1.0749421999998958, 1.2189430999997057, 1.3870951999997487]",2160.6420362,None,2160.64298735,2160.7421831,s212_10032023,001,2023-10-03_16h13.35.613,test_typingtask_norepeats,2020.2.10,59.979223197076976,
cheer,cheer,,,,,,,,,0,70,70,70,,,,,,,,,,,,,,,2166.1479019999997,None,"['c', 'h', 'e', 'e', 'r']",1,"[0.7371296000001166, 0.8731202999997549, 1.057099300000118, 1.2331482999998116, 1.4248248999997486]",2166.1479019999997,None,2166.1485850500003,2166.2521391,s212_10032023,001,2023-10-03_16h13.35.613,test_typingtask_norepeats,2020.2.10,59.979223197076976,
vodka,vodka,,,,,,,,,0,71,71,71,,,,,,,,,,,,,,,2171.6552748999998,None,"['v', 'o', 'd', 'k', 'a']",1,"[0.8774883999999474, 0.9977312999999413, 1.14203550000002, 1.3498764999999366, 1.525546999999733]",2171.6552748999998,None,2171.6540821500002,2171.7533619,s212_10032023,001,2023-10-03_16h13.35.613,test_typingtask_norepeats,2020.2.10,59.979223197076976,
cheer,cheer,,,,,,,,,0,72,72,72,,,,,,,,,,,,,,,2177.1618973,None,"['c', 'h', 'e', 'e', 'r']",1,"[0.7631770000002689, 0.907119700000294, 1.075086100000135, 1.2831946999999673, 1.5310764000000745]",2177.1618973,None,2177.15959315,2177.2609044,s212_10032023,001,2023-10-03_16h13.35.613,test_typingtask_norepeats,2020.2.10,59.979223197076976,
heond,heond,,,,,,,,,0,73,73,73,,,,,,,,,,,,,,,2182.66425,None,"['h', 'e', 'o', 'n', 'd']",1,"[0.7327603000003364, 0.8687635999999657, 1.0524905000002036, 1.2525721000001795, 1.3807820000001811]",2182.66425,None,2182.66507825,2182.7719905,s212_10032023,001,2023-10-03_16h13.35.613,test_typingtask_norepeats,2020.2.10,59.979223197076976,
lucky,lucky,,,,,,,,,0,74,74,74,,,,,,,,,,,,,,,2188.1697756999997,None,"['l', 'u', 'c', 'k', 'y']",1,"[0.65116689999968, 0.8592220000000452, 0.9948510999997779, 1.1152241999998296, 1.3392104999998082]",2188.1697756999997,None,2188.17058735,2188.2719011,s212_10032023,001,2023-10-03_16h13.35.613,test_typingtask_norepeats,2020.2.10,59.979223197076976,
cooed,cooed,,,,,,,,,0,75,75,75,,,,,,,,,,,,,,,2193.675281,None,"['c', 'o', 'o', 'e', 'd']",1,"[0.7214829999998074, 0.8976990999999543, 1.0737081000002036, 1.20948159999989, 1.4177441000001636]",2193.675281,None,2193.67608725,None,s212_10032023,001,2023-10-03_16h13.35.613,test_typingtask_norepeats,2020.2.10,59.979223197076976,
puppy,puppy,,,,,,,,,0,76,76,76,,,,,,,,,,,,,,,2199.1824687,None,"['p', 'u', 'p', 'p', 'y']",1,"[1.0705477999999857, 1.3265320999998949, 1.5665575000002718, 1.71021810000002, 1.9185990000000857]",2199.1824687,None,2199.1815868500003,None,s212_10032023,001,2023-10-03_16h13.35.613,test_typingtask_norepeats,2020.2.10,59.979223197076976,
theme,theme,,,,,,,,,0,77,77,77,,,,,,,,,,,,,,,2204.6887825,None,"['t', 'h', 'e', 'm', 'e']",1,"[0.7882202999999208, 0.8922070999997231, 1.0439849999997932, 1.1561338999999862, 1.2601558999999725]",2204.6887825,None,2204.68706505,2204.7922575,s212_10032023,001,2023-10-03_16h13.35.613,test_typingtask_norepeats,2020.2.10,59.979223197076976,
edthe,edthe,,,,,,,,,0,78,78,78,,,,,,,,,,,,,,,2210.1915814,None,"['e', 'd', 't', 'h', 'e']",1,"[0.7815931000000091, 1.0055325000002995, 1.245937799999865, 1.3893996000001607, 1.5254046000000017]",2210.1915814,None,2210.1925751500003,2210.2915003,s212_10032023,001,2023-10-03_16h13.35.613,test_typingtask_norepeats,2020.2.10,59.979223197076976,
faqir,faqir,,,,,,,,,0,79,79,79,,,,,,,,,,,,,,,2215.7008094,None,"['f', 'a', 'q', 'i', 'r']",1,"[0.7764017999998032, 0.9922151999999187, 1.4723463000000265, 1.5682103999997707, 1.7521904000000177]",2215.7008094,None,2215.69807485,2215.802587,s212_10032023,001,2023-10-03_16h13.35.613,test_typingtask_norepeats,2020.2.10,59.979223197076976,
buddy,buddy,,,,,,,,,0,80,80,80,,,,,,,,,,,,,,,2221.2042057,None,"['b', 'u', 'd', 'd', 'y']",1,"[1.120775799999592, 1.3128133999998681, 1.4807584000000134, 1.6568194999999832, 1.7930751999997483]",2221.2042057,None,2221.20363145,None,s212_10032023,001,2023-10-03_16h13.35.613,test_typingtask_norepeats,2020.2.10,59.979223197076976,
lucky,lucky,,,,,,,,,0,81,81,81,,,,,,,,,,,,,,,2226.7081044,None,"['l', 'u', 'c', 'k', 'y']",1,"[0.7849374000002172, 0.9768516000003729, 1.112934800000403, 1.2169505000001664, 1.464853100000255]",2226.7081044,None,2226.70907165,2226.8110463,s212_10032023,001,2023-10-03_16h13.35.613,test_typingtask_norepeats,2020.2.10,59.979223197076976,
edthe,edthe,,,,,,,,,0,82,82,82,,,,,,,,,,,,,,,2232.2134858,None,"['e', 'd', 't', 'h', 'e']",1,"[0.8635208000000603, 1.0874582999999802, 1.3114848000000165, 1.4236369999998715, 1.5514932999999473]",2232.2134858,None,2232.21458665,None,s212_10032023,001,2023-10-03_16h13.35.613,test_typingtask_norepeats,2020.2.10,59.979223197076976,
buddy,buddy,,,,,,,,,0,83,83,83,,,,,,,,,,,,,,,2237.7192225,None,"['b', 'u', 'd', 'd', 'y']",1,"[1.0297707999998238, 1.2140128000000914, 1.3658833999998024, 1.5338032999998177, 1.6857522999998764]",2237.7192225,None,2237.72007175,2237.8225595,s212_10032023,001,2023-10-03_16h13.35.613,test_typingtask_norepeats,2020.2.10,59.979223197076976,
haole,haole,,,,,,,,,0,84,84,84,,,,,,,,,,,,,,,2243.2246562,None,"['h', 'a', 'o', 'l', 'e']",1,"[0.8043628000000353, 0.9164644000002227, 1.0683654000004026, 1.268635500000073, 1.4123602000004212]",2243.2246562,None,2243.22557305,None,s212_10032023,001,2023-10-03_16h13.35.613,test_typingtask_norepeats,2020.2.10,59.979223197076976,
kremp,kremp,,,,,,,,,0,85,85,85,,,,,,,,,,,,,,,2248.7310775,None,"['k', 'r', 'e', 'm', 'p']",1,"[0.8980416999997942, 1.0343675999997686, 1.1861277999996673, 1.3139421000000766, 1.4977685999997448]",2248.7310775,None,2248.73106645,2248.832252,s212_10032023,001,2023-10-03_16h13.35.613,test_typingtask_norepeats,2020.2.10,59.979223197076976,
druze,druze,,,,,,,,,0,86,86,86,,,,,,,,,,,,,,,2254.2383167,None,"['d', 'r', 'u', 'z', 'e']",1,"[0.8706587000001491, 1.0944297000000915, 1.2546355999998013, 1.4467051999999967, 1.7424566999998206]",2254.2383167,None,2254.2365839500003,None,s212_10032023,001,2023-10-03_16h13.35.613,test_typingtask_norepeats,2020.2.10,59.979223197076976,
champ,champ,,,,,,,,,0,87,87,87,,,,,,,,,,,,,,,2259.7424705999997,None,"['c', 'h', 'a', 'm', 'p']",1,"[0.8942896999997174, 0.9825917999996818, 1.134577299999819, 1.2464974999998049, 1.4225240000000667]",2259.7424705999997,None,2259.74205475,2259.8427334,s212_10032023,001,2023-10-03_16h13.35.613,test_typingtask_norepeats,2020.2.10,59.979223197076976,
pykka,pykka,,,,,,,,,0,88,88,88,,,,,,,,,,,,,,,2265.2478840999997,None,"['p', 'u', 'backspace', 'y', 'k', 'k', 'a']",0,"[0.7729682999997749, 1.0370840999999018, 1.5252427000000353, 1.9329103000000032, 2.3811313999999584, 2.549089300000105, 2.6451210999998693]",2265.2478840999997,None,2265.24757575,2265.3512155999997,s212_10032023,001,2023-10-03_16h13.35.613,test_typingtask_norepeats,2020.2.10,59.979223197076976,
vodka,vodka,,,,,,,,,0,89,89,89,,,,,,,,,,,,,,,2270.7532485,None,"['v', 'o', 'd', 'k', 'a']",1,"[0.979823099999976, 1.0917786999998498, 1.2677531999997882, 1.4277351999999155, 1.5957343999998557]",2270.7532485,None,2270.75307005,2270.8526045999997,s212_10032023,001,2023-10-03_16h13.35.613,test_typingtask_norepeats,2020.2.10,59.979223197076976,
kremp,kremp,,,,,,,,,0,90,90,90,,,,,,,,,,,,,,,2276.2573982,None,"['k', 'r', 'e', 'm', 'p']",1,"[0.9873747000001458, 1.0915752999999313, 1.275418499999887, 1.387674699999934, 1.563613400000122]",2276.2573982,None,2276.25858505,2276.3608102,s212_10032023,001,2023-10-03_16h13.35.613,test_typingtask_norepeats,2020.2.10,59.979223197076976,
vanru,vanru,,,,,,,,,0,91,91,91,,,,,,,,,,,,,,,2281.7649047,None,"['v', 'a', 'n', 'r', 'u']",1,"[0.8241195999999036, 0.9678776000000653, 1.1040715999997701, 1.240048300000126, 1.3760369999999966]",2281.7649047,None,2281.76406855,2281.8632878,s212_10032023,001,2023-10-03_16h13.35.613,test_typingtask_norepeats,2020.2.10,59.979223197076976,
cheer,cheer,,,,,,,,,0,92,92,92,,,,,,,,,,,,,,,2287.2684863,None,"['c', 'v', 'h', 'e', 'e', 'r']",0,"[0.8725408000000243, 0.8805560000000696, 1.2725726999997278, 1.440498999999818, 1.6564946999997119, 1.8564848000000893]",2287.2684863,None,2287.26949955,2287.372645,s212_10032023,001,2023-10-03_16h13.35.613,test_typingtask_norepeats,2020.2.10,59.979223197076976,
buddy,buddy,,,,,,,,,0,93,93,93,,,,,,,,,,,,,,,2292.7740393999998,None,"['b', 'u', 'd', 'd', 'y']",1,"[1.214803099999699, 1.3909710999996605, 1.5669431999999688, 1.7269630999999208, 1.8631129999998848]",2292.7740393999998,None,2292.77504955,2292.8742902,s212_10032023,001,2023-10-03_16h13.35.613,test_typingtask_norepeats,2020.2.10,59.979223197076976,
druze,druze,,,,,,,,,0,94,94,94,,,,,,,,,,,,,,,2298.2797170999997,None,"['d', 'r', 'u', 'z', 'e']",1,"[1.0129533999997875, 1.2535284000000502, 1.413024999999834, 1.7012718999999379, 1.9493714999998701]",2298.2797170999997,None,2298.28041085,2298.38224,s212_10032023,001,2023-10-03_16h13.35.613,test_typingtask_norepeats,2020.2.10,59.979223197076976,
pykka,pykka,,,,,,,,,0,95,95,95,,,,,,,,,,,,,,,2303.785291,None,"['p', 'y', 'k', 'k', 'a']",1,"[0.7958175999997366, 1.131673999999748, 1.4036934999999175, 1.5636670999997477, 1.7236831000000166]",2303.785291,None,2303.78607475,None,s212_10032023,001,2023-10-03_16h13.35.613,test_typingtask_norepeats,2020.2.10,59.979223197076976,
belly,belly,,,,,,,,,0,96,96,96,,,,,,,,,,,,,,,2309.2918378,None,"['b', 'e', 'l', 'l', 'y']",1,"[0.7931665999999495, 0.9051331000000573, 1.0408478999997897, 1.2251805000000786, 1.4331723000000238]",2309.2918378,None,2309.29153235,2309.3930202,s212_10032023,001,2023-10-03_16h13.35.613,test_typingtask_norepeats,2020.2.10,59.979223197076976,
therm,therm,,,,,,,,,0,97,97,97,,,,,,,,,,,,,,,2314.7960851,None,"['t', 'h', 'e', 'r', 'm']",1,"[0.7049201999998331, 0.8089057000001958, 0.9449657000000116, 1.0888970000000882, 1.2411385999998856]",2314.7960851,None,2314.79697815,None,s212_10032023,001,2023-10-03_16h13.35.613,test_typingtask_norepeats,2020.2.10,59.979223197076976,
zibja,zibja,,,,,,,,,0,98,98,98,,,,,,,,,,,,,,,2320.3034543999997,None,"['z', 'i', 'b', 'j', 'a']",1,"[1.213310999999976, 1.421552199999951, 1.6214872999998988, 1.789281200000005, 1.909527799999978]",2320.3034543999997,None,2320.30256495,2320.4024566,s212_10032023,001,2023-10-03_16h13.35.613,test_typingtask_norepeats,2020.2.10,59.979223197076976,
champ,champ,,,,,,,,,0,99,99,99,,,,,,,,,,,,,,,2325.8070656,None,"['c', 'h', 'a', 'm', 'p']",1,"[0.6622717000000193, 0.7899529999999686, 0.9100092999997287, 1.029937599999812, 1.1819269999996322]",2325.8070656,None,2325.80789335,None,s212_10032023,001,2023-10-03_16h13.35.613,test_typingtask_norepeats,2020.2.10,59.979223197076976,
vanru,vanru,,,,,,,,,0,100,100,100,,,,,,,,,,,,,,,2331.3146143999998,None,"['v', 'a', 'n', 'r', 'u']",1,"[0.8903822000002037, 1.1703992000002472, 1.4583995000002687, 1.6824980000001233, 1.8664028000002872]",2331.3146143999998,None,2331.31354335,2331.4127448,s212_10032023,001,2023-10-03_16h13.35.613,test_typingtask_norepeats,2020.2.10,59.979223197076976,
champ,champ,,,,,,,,,0,101,101,101,,,,,,,,,,,,,,,2336.8193519,None,"['c', 'h', 'a', 'm', 'p']",1,"[0.7214325999998437, 0.833743499999855, 0.9536061999997401, 1.0976055999999517, 1.2736219999997047]",2336.8193519,None,2336.81906925,2336.9223592,s212_10032023,001,2023-10-03_16h13.35.613,test_typingtask_norepeats,2020.2.10,59.979223197076976,
would,would,,,,,,,,,0,102,102,102,,,,,,,,,,,,,,,2342.3254753,None,"['w', 'o', 'u', 'l', 'd']",1,"[0.823567500000081, 0.9433552000000418, 1.1274568000003455, 1.3355282000002262, 1.4634903999999551]",2342.3254753,None,2342.3245638500002,2342.4238321,s212_10032023,001,2023-10-03_16h13.35.613,test_typingtask_norepeats,2020.2.10,59.979223197076976,
cooed,cooed,,,,,,,,,0,103,103,103,,,,,,,,,,,,,,,2347.8306385,None,"['c', 'o', 'o', 'e', 'd']",1,"[0.7424725000000763, 0.9583572999999888, 1.1342776999999842, 1.2303128000003198, 1.4543321000001015]",2347.8306385,None,2347.8301063500003,2347.9321007999997,s212_10032023,001,2023-10-03_16h13.35.613,test_typingtask_norepeats,2020.2.10,59.979223197076976,
belly,belly,,,,,,,,,0,104,104,104,,,,,,,,,,,,,,,2353.3358355,None,"['b', 'e', 'l', 'l', 'y']",1,"[0.9968002999999044, 1.076890800000001, 1.2371297999998205, 1.413174700000127, 1.5253990000001068]",2353.3358355,None,2353.3355591500003,2353.4421432999998,s212_10032023,001,2023-10-03_16h13.35.613,test_typingtask_norepeats,2020.2.10,59.979223197076976,
theme,theme,,,,,,,,,0,105,105,105,,,,,,,,,,,,,,,2358.8417821,None,"['t', 'h', 'e', 'm', 'e']",1,"[0.7390358000002379, 0.8352135000000089, 0.9951872999999978, 1.099196099999972, 1.195190299999922]",2358.8417821,None,2358.84106385,None,s212_10032023,001,2023-10-03_16h13.35.613,test_typingtask_norepeats,2020.2.10,59.979223197076976,
zibja,zibja,,,,,,,,,0,106,106,106,,,,,,,,,,,,,,,2364.3485691,None,"['z', 'i', 'b', 'j', 'a']",1,"[0.8804156999999577, 1.4164408000001458, 1.6082727000002706, 1.9201938999999584, 2.0322046999999657]",2364.3485691,None,2364.34659915,2364.4523971,s212_10032023,001,2023-10-03_16h13.35.613,test_typingtask_norepeats,2020.2.10,59.979223197076976,
kremp,kremp,,,,,,,,,0,107,107,107,,,,,,,,,,,,,,,2369.8516643,None,"['k', 'r', 'e', 'm', 'p']",1,"[0.8733253000000332, 0.9932687000000442, 1.1853833000000122, 1.3213346000002275, 1.5053502999999182]",2369.8516643,None,2369.85203735,2369.9523811,s212_10032023,001,2023-10-03_16h13.35.613,test_typingtask_norepeats,2020.2.10,59.979223197076976,
pykka,pykka,,,,,,,,,0,108,108,108,,,,,,,,,,,,,,,2375.3578109,None,"['p', 'y', 'k', 'k', 'a']",1,"[1.679200000000037, 1.9031786000000466, 2.190969600000244, 2.3431758000001537, 2.48722110000017]",2375.3578109,None,2375.3575594500003,2375.4625436,s212_10032023,001,2023-10-03_16h13.35.613,test_typingtask_norepeats,2020.2.10,59.979223197076976,
think,think,,,,,,,,,0,109,109,109,,,,,,,,,,,,,,,2380.8631317,None,"['t', 'h', 'i', 'n', 'k']",1,"[0.8457923000000847, 0.9738542000000052, 1.2058938999998645, 1.397828699999991, 1.5417630000001736]",2380.8631317,None,2380.86304615,2380.9623725,s212_10032023,001,2023-10-03_16h13.35.613,test_typingtask_norepeats,2020.2.10,59.979223197076976,
would,would,,,,,,,,,0,110,110,110,,,,,,,,,,,,,,,2386.3675567,None,"['w', 'o', 'u', 'l', 'd']",1,"[0.6295125999999982, 0.7737178000002132, 0.9411091000001761, 1.1496885000001384, 1.309524600000259]",2386.3675567,None,2386.36855335,2386.4722564999997,s212_10032023,001,2023-10-03_16h13.35.613,test_typingtask_norepeats,2020.2.10,59.979223197076976,
edthe,edthe,,,,,,,,,0,111,111,111,,,,,,,,,,,,,,,2391.8729928,None,"['e', 'd', 't', 'h', 'e']",1,"[0.7400815999999395, 0.9800302999997257, 1.2040503999996872, 1.331998399999975, 1.4356723999999303]",2391.8729928,None,2391.87392945,2391.9732891,s212_10032023,001,2023-10-03_16h13.35.613,test_typingtask_norepeats,2020.2.10,59.979223197076976,
vodka,vodka,,,,,,,,,0,112,112,112,,,,,,,,,,,,,,,2397.3783688,None,"['v', 'o', 'd', 'k', 'a']",1,"[0.9066645999996581, 0.9947118999998565, 1.1626145999998698, 1.3226181999998516, 1.4743878999997833]",2397.3783688,None,2397.37925065,2397.4809528,s212_10032023,001,2023-10-03_16h13.35.613,test_typingtask_norepeats,2020.2.10,59.979223197076976,
druze,druze,,,,,,,,,0,113,113,113,,,,,,,,,,,,,,,2402.8859554,None,"['d', 'r', 'u', 'z', 'e']",1,"[0.8391263000003164, 1.0470712000001186, 1.2149974000003567, 1.3670083000001796, 1.5990532000000712]",2402.8859554,None,2402.8851234500003,2402.9842849,s212_10032023,001,2023-10-03_16h13.35.613,test_typingtask_norepeats,2020.2.10,59.979223197076976,
haole,haole,,,,,,,,,0,114,114,114,,,,,,,,,,,,,,,2408.389709,None,"['h', 'a', 'o', 'l', 'e']",1,"[0.9750248000000283, 1.0792535999999018, 1.279192299999977, 1.4872582000002694, 1.6149817999998959]",2408.389709,None,2408.3905489500003,2408.4920895,s212_10032023,001,2023-10-03_16h13.35.613,test_typingtask_norepeats,2020.2.10,59.979223197076976,
would,would,,,,,,,,,0,115,115,115,,,,,,,,,,,,,,,2413.89587,None,"['w', 'o', 'u', 'l', 'd']",1,"[1.061227499999859, 1.2051133999998456, 1.3570456000002196, 1.5332026000000951, 1.6690619999999399]",2413.89587,None,2413.89605015,2414.0025163,s212_10032023,001,2023-10-03_16h13.35.613,test_typingtask_norepeats,2020.2.10,59.979223197076976,
theme,theme,,,,,,,,,0,116,116,116,,,,,,,,,,,,,,,2419.4027920999997,None,"['t', 'h', 'e', 'm', 'e']",1,"[0.6580392000000757, 0.7542106999999305, 0.897966500000166, 1.0099991000001864, 1.1062446000000818]",2419.4027920999997,None,2419.40160225,2419.5025154,s212_10032023,001,2023-10-03_16h13.35.613,test_typingtask_norepeats,2020.2.10,59.979223197076976,
cooed,cooed,,,,,,,,,0,117,117,117,,,,,,,,,,,,,,,2424.9073061999998,None,"['c', 'o', 'o', 'e', 'd']",1,"[0.7857232999999724, 0.9697055999999975, 1.1296526999999514, 1.2416385000001355, 1.44973600000003]",2424.9073061999998,None,2424.90705955,2425.0125451999997,s212_10032023,001,2023-10-03_16h13.35.613,test_typingtask_norepeats,2020.2.10,59.979223197076976,
would,would,,,,,,,,,0,118,118,118,,,,,,,,,,,,,,,2430.4115819999997,None,"['w', 'o', 'u', 'l', 'd']",1,"[0.7214283000002979, 0.8730576000002657, 1.0574735000000146, 1.2575125000003027, 1.3855603000001793]",2430.4115819999997,None,2430.41244945,2430.5118761999997,s212_10032023,001,2023-10-03_16h13.35.613,test_typingtask_norepeats,2020.2.10,59.979223197076976,
champ,champ,,,,,,,,,0,119,119,119,,,,,,,,,,,,,,,2435.9184221,None,"['c', 'h', 'a', 'm', 'p']",1,"[0.8223444999998719, 0.9186181000000033, 1.0465541999997185, 1.1586455999999998, 1.3665175000001]",2435.9184221,None,2435.91807265,2436.0220951,s212_10032023,001,2023-10-03_16h13.35.613,test_typingtask_norepeats,2020.2.10,59.979223197076976,
