string,corrAns,practice_trials.thisRepN,practice_trials.thisTrialN,practice_trials.thisN,practice_trials.thisIndex,trials_1.thisRepN,trials_1.thisTrialN,trials_1.thisN,trials_1.thisIndex,trials_2.thisRepN,trials_2.thisTrialN,trials_2.thisN,trials_2.thisIndex,key_resp_0.keys,key_resp_0.corr,key_resp_0.rt,text_1.started,text_1.stopped,key_resp_1.keys,key_resp_1.corr,key_resp_1.rt,key_resp_1.started,key_resp_1.stopped,sound_1A_1.started,sound_1A_1.stopped,break_time.started,break_time.stopped,text_2.started,text_2.stopped,key_resp_2.keys,key_resp_2.corr,key_resp_2.rt,key_resp_2.started,key_resp_2.stopped,sound_1A_2.started,sound_1A_2.stopped,participant,session,date,expName,psychopyVersion,frameRate,
fresh,fresh,0,0,0,0,,,,,,,,,"['f', 'r', 'e', 's', 'h']",1,"[1.508122687228024, 1.6440723948180676, 1.7801536619663239, 2.0040467409417033, 2.108099462930113]",,,,,,,,,,,,,,,,,,,,,s212,001,2023_Mar_22_1430,test_typingtask_norepeats,2020.2.10,59.964272860612105,
dream,dream,0,1,1,1,,,,,,,,,"['d', 'r', 'e', 'a', 'n']",0,"[1.2641665991395712, 1.4722790140658617, 1.584153139963746, 1.7601491739042103, 1.9042876288294792]",,,,,,,,,,,,,,,,,,,,,s212,001,2023_Mar_22_1430,test_typingtask_norepeats,2020.2.10,59.964272860612105,
slime,slime,0,2,2,2,,,,,,,,,"['s', 'l', 'i', 'm', 'e']",1,"[0.9234086279757321, 1.0355066396296024, 1.2035278296098113, 1.3555097659118474, 1.4513718206435442]",,,,,,,,,,,,,,,,,,,,,s212,001,2023_Mar_22_1430,test_typingtask_norepeats,2020.2.10,59.964272860612105,
theme,theme,,,,,0,0,0,0,,,,,,,,79.84851823095232,None,"['t', 'h', 'e', 'm', 'e']",1,"[1.0233346042223275, 1.0954597699455917, 1.24738316424191, 1.3833992332220078, 1.503420194145292]",79.84851823095232,None,79.84080627732911,79.94078209716827,,,,,,,,,,,,s212,001,2023_Mar_22_1430,test_typingtask_norepeats,2020.2.10,59.964272860612105,
puppy,puppy,,,,,0,1,1,1,,,,,,,,85.34032751107588,None,"['p', 'u', 'p', 'p', 'y']",1,"[1.011618149932474, 1.299629958346486, 1.531584168318659, 1.691643173340708, 1.7956972722895443]",85.34032751107588,None,85.34071604241618,85.44058316806331,,,,,,,,,,,,s212,001,2023_Mar_22_1430,test_typingtask_norepeats,2020.2.10,59.964272860612105,
lucky,lucky,,,,,0,2,2,2,,,,,,,,90.84038912318647,None,"['l', 'u', 'c', 'k', 'y']",1,"[0.8635305017232895, 1.095540465787053, 1.303587831556797, 1.447510935831815, 1.6555494386702776]",90.84038912318647,None,90.84043433829211,90.9408720843494,,,,,,,,,,,,s212,001,2023_Mar_22_1430,test_typingtask_norepeats,2020.2.10,59.964272860612105,
about,about,,,,,0,3,3,3,,,,,,,,96.34056566515937,None,"['a', 'b', 'o', 'u', 't']",1,"[0.77934659877792, 0.9232816137373447, 1.107348816934973, 1.2833487018942833, 1.4272750858217478]",96.34056566515937,None,96.3405366613064,96.44054806604981,,,,,,,,,,,,s212,001,2023_Mar_22_1430,test_typingtask_norepeats,2020.2.10,59.964272860612105,
there,there,,,,,0,4,4,4,,,,,,,,101.84051360795274,None,"['t', 'h', 'e', 'r', 'e']",1,"[0.8634989387355745, 0.999424003995955, 1.111412941943854, 1.2713323920033872, 1.431345340795815]",101.84051360795274,None,101.84051259732806,101.94052199600264,,,,,,,,,,,,s212,001,2023_Mar_22_1430,test_typingtask_norepeats,2020.2.10,59.964272860612105,
lucky,lucky,,,,,0,5,5,5,,,,,,,,107.3406221140176,None,"['l', 'u', 'c', 'k', 'y']",1,"[0.7712925099767745, 0.9792356821708381, 1.0754127679392695, 1.219353285152465, 1.427232779096812]",107.3406221140176,None,107.34040954927914,107.44060522923246,,,,,,,,,,,,s212,001,2023_Mar_22_1430,test_typingtask_norepeats,2020.2.10,59.964272860612105,
puppy,puppy,,,,,0,6,6,6,,,,,,,,112.84058153396472,None,"['p', 'u', 'p', 'p', 'y']",1,"[1.2473270958289504, 1.543257197830826, 1.799370912835002, 1.951270590070635, 2.063319351989776]",112.84058153396472,None,112.8404296472203,112.94074727408588,,,,,,,,,,,,s212,001,2023_Mar_22_1430,test_typingtask_norepeats,2020.2.10,59.964272860612105,
druze,druze,,,,,0,7,7,7,,,,,,,,118.34060188103467,None,"['d', 'r', 'u', 'x', 'z', 'e']",0,"[1.075299996882677, 1.4272805009968579, 1.5312520531006157, 1.9473518677987158, 1.9554075468331575, 2.5233119088225067]",118.34060188103467,None,118.34064136338421,118.44042276637629,,,,,,,,,,,,s212,001,2023_Mar_22_1430,test_typingtask_norepeats,2020.2.10,59.964272860612105,
heond,heond,,,,,0,8,8,8,,,,,,,,123.84065246814862,None,"['h', 'e', 'o', 'n', 'd']",1,"[1.0713050249032676, 1.2392200762405992, 1.3913114978931844, 1.6792219998314977, 1.8472886220552027]",123.84065246814862,None,123.840634254599,123.94068054715171,,,,,,,,,,,,s212,001,2023_Mar_22_1430,test_typingtask_norepeats,2020.2.10,59.964272860612105,
buddy,buddy,,,,,0,9,9,9,,,,,,,,129.3406217172742,None,"['b', 'u', 'd', 'd', 'y']",1,"[1.115331212989986, 1.347335949074477, 1.6272238190285861, 1.8272220147773623, 1.98732930701226]",129.3406217172742,None,129.34070490053855,129.44046553131193,,,,,,,,,,,,s212,001,2023_Mar_22_1430,test_typingtask_norepeats,2020.2.10,59.964272860612105,
about,about,,,,,0,10,10,10,,,,,,,,134.84078555414453,None,"['a', 'b', 'o', 'u', 't']",1,"[0.9031958044506609, 1.0311303921043873, 1.2390875122509897, 1.3751649344339967, 1.5032628532499075]",134.84078555414453,None,134.8406840314623,134.94091728935018,,,,,,,,,,,,s212,001,2023_Mar_22_1430,test_typingtask_norepeats,2020.2.10,59.964272860612105,
would,would,,,,,0,11,11,11,,,,,,,,140.34092835197225,None,"['w', 'o', 'u', 'l', 'd']",1,"[0.8509172149933875, 0.9950055601075292, 1.1710001579485834, 1.3470252831466496, 1.4589211591519415]",140.34092835197225,None,140.34061341439374,140.44082798901945,,,,,,,,,,,,s212,001,2023_Mar_22_1430,test_typingtask_norepeats,2020.2.10,59.964272860612105,
think,think,,,,,0,12,12,12,,,,,,,,145.84058297192678,None,"['t', 'h', 'i', 'n', 'k']",1,"[0.7193427300080657, 0.8312883549369872, 1.0313093699514866, 1.1833690209314227, 1.3672519349493086]",145.84058297192678,None,145.84057059357875,145.9404990109615,,,,,,,,,,,,s212,001,2023_Mar_22_1430,test_typingtask_norepeats,2020.2.10,59.964272860612105,
therm,therm,,,,,0,13,13,13,,,,,,,,151.34046685695648,None,"['t', 'h', 'e', 'r', 'm']",1,"[0.8114456562325358, 0.9474749253131449, 1.1074900110252202, 1.2754216673783958, 1.4273717179894447]",151.34046685695648,None,151.3406228142325,151.44060382200405,,,,,,,,,,,,s212,001,2023_Mar_22_1430,test_typingtask_norepeats,2020.2.10,59.964272860612105,
vodka,vodka,,,,,0,14,14,14,,,,,,,,156.8409697203897,None,"['v', 'o', 'd', 'k', 'a']",1,"[1.2229970498010516, 1.3909047567285597, 1.5989263718947768, 1.7189448988065124, 1.8872221987694502]",156.8409697203897,None,156.84067522021942,156.9406331209466,,,,,,,,,,,,s212,001,2023_Mar_22_1430,test_typingtask_norepeats,2020.2.10,59.964272860612105,
therm,therm,,,,,0,15,15,15,,,,,,,,162.34060414507985,None,"['t', 'h', 'e', 'r', 'm']",1,"[0.8352366448380053, 0.9393434980884194, 1.123259746003896, 1.2593081891536713, 1.4193594930693507]",162.34060414507985,None,162.3406739913393,162.440719419159,,,,,,,,,,,,s212,001,2023_Mar_22_1430,test_typingtask_norepeats,2020.2.10,59.964272860612105,
cheer,cheer,,,,,0,16,16,16,,,,,,,,167.84046555310488,None,"['c', 'h', 'e', 'e', 'r']",1,"[0.7755371541716158, 0.92742181988433, 1.0794094111770391, 1.3274649530649185, 1.5593897961080074]",167.84046555310488,None,167.84068603753113,167.94063454307616,,,,,,,,,,,,s212,001,2023_Mar_22_1430,test_typingtask_norepeats,2020.2.10,59.964272860612105,
edthe,edthe,,,,,0,17,17,17,,,,,,,,173.34072316717356,None,"['e', 'd', 't', 'h', 'e']",1,"[1.0912061240524054, 1.299227376934141, 1.5072463741526008, 1.635296600870788, 1.8111934219487011]",173.34072316717356,None,173.3406133654993,173.44077832438052,,,,,,,,,,,,s212,001,2023_Mar_22_1430,test_typingtask_norepeats,2020.2.10,59.964272860612105,
lucky,lucky,,,,,0,18,18,18,,,,,,,,178.84067607624456,None,"['l', 'u', 'c', 'k', 'y']",1,"[0.7591625959612429, 0.9832795541733503, 1.0953287482261658, 1.2153585869818926, 1.399276473093778]",178.84067607624456,None,178.84057428720408,178.9405875899829,,,,,,,,,,,,s212,001,2023_Mar_22_1430,test_typingtask_norepeats,2020.2.10,59.964272860612105,
vanru,vanru,,,,,0,19,19,19,,,,,,,,184.34089231304824,None,"['v', 'a', 'n', 'r', 'u']",1,"[1.0031216642819345, 1.1390813272446394, 1.2749594850465655, 1.4509542449377477, 1.6269677560776472]",184.34089231304824,None,184.3405932982918,184.44084494700655,,,,,,,,,,,,s212,001,2023_Mar_22_1430,test_typingtask_norepeats,2020.2.10,59.964272860612105,
buddy,buddy,,,,,0,20,20,20,,,,,,,,189.84078795695677,None,"['b', 'u', 'd', 'd', 'y']",1,"[0.8151673022657633, 1.0631129713729024, 1.3031853423453867, 1.4791091810911894, 1.5911361272446811]",189.84078795695677,None,189.84062388525345,189.94096279516816,,,,,,,,,,,,s212,001,2023_Mar_22_1430,test_typingtask_norepeats,2020.2.10,59.964272860612105,
about,about,,,,,0,21,21,21,,,,,,,,195.34055386437103,None,"['a', 'b', 'o', 'u', 't']",1,"[0.6993789789266884, 0.8272994281724095, 1.0114247919991612, 1.1553576770238578, 1.2753770421259105]",195.34055386437103,None,195.34068836956286,195.44049094617367,,,,,,,,,,,,s212,001,2023_Mar_22_1430,test_typingtask_norepeats,2020.2.10,59.964272860612105,
heond,heond,,,,,0,22,22,22,,,,,,,,200.84076725924388,None,"['h', 'e', 'o', 'n', 'd']",1,"[1.703205092344433, 1.8231924450956285, 2.0231599560938776, 2.167070033028722, 2.30319903511554]",200.84076725924388,None,200.84081196025946,200.9405221142806,,,,,,,,,,,,s212,001,2023_Mar_22_1430,test_typingtask_norepeats,2020.2.10,59.964272860612105,
edthe,edthe,,,,,0,23,23,23,,,,,,,,206.34075479395688,None,"['e', 'd', 't', 'h', 'e']",1,"[1.0352180688641965, 1.235260535031557, 1.4670977056957781, 1.6192826479673386, 1.7631008909083903]",206.34075479395688,None,206.34060436240398,206.4407681999728,,,,,,,,,,,,s212,001,2023_Mar_22_1430,test_typingtask_norepeats,2020.2.10,59.964272860612105,
kremp,kremp,,,,,0,24,24,24,,,,,,,,211.84071594895795,None,"['k', 'r', 'e', 'm', 'p']",1,"[0.9671218390576541, 1.3192548211663961, 1.50326444581151, 1.6072477661073208, 1.7751949159428477]",211.84071594895795,None,211.84069714215585,211.94074075110257,,,,,,,,,,,,s212,001,2023_Mar_22_1430,test_typingtask_norepeats,2020.2.10,59.964272860612105,
cheer,cheer,,,,,0,25,25,25,,,,,,,,217.34069327637553,None,"['c', 'h', 'e', 'e', 'r']",1,"[0.7872751951217651, 0.9392639910802245, 1.2032365491613746, 1.3791535813361406, 1.5952375889755785]",217.34069327637553,None,217.34072104827501,217.44089216226712,,,,,,,,,,,,s212,001,2023_Mar_22_1430,test_typingtask_norepeats,2020.2.10,59.964272860612105,
kremp,kremp,,,,,0,26,26,26,,,,,,,,222.84058428136632,None,"['k', 'r', 'e', 'm', 'p']",1,"[0.895421733148396, 1.0153714548796415, 1.1833416409790516, 1.34326151618734, 1.535391562152654]",222.84058428136632,None,222.84078468740918,222.94078858429566,,,,,,,,,,,,s212,001,2023_Mar_22_1430,test_typingtask_norepeats,2020.2.10,59.964272860612105,
vanru,vanru,,,,,0,27,27,27,,,,,,,,228.3405125029385,None,"['v', 'a', 'n', 'r', 'u']",1,"[1.1154031562618911, 1.2354638860560954, 1.371315031312406, 1.5154362469911575, 1.6194597813300788]",228.3405125029385,None,228.3407784685027,228.44063070835546,,,,,,,,,,,,s212,001,2023_Mar_22_1430,test_typingtask_norepeats,2020.2.10,59.964272860612105,
theme,theme,,,,,0,28,28,28,,,,,,,,233.84070069203153,None,"['t', 'h', 'e', 'm', 'e']",1,"[0.7192749669775367, 0.8072746233083308, 0.9511474859900773, 1.0551374442875385, 1.1511463192291558]",233.84070069203153,None,233.84066892447882,233.94108909228817,,,,,,,,,,,,s212,001,2023_Mar_22_1430,test_typingtask_norepeats,2020.2.10,59.964272860612105,
druze,druze,,,,,0,29,29,29,,,,,,,,239.3405889282003,None,"['d', 'r', 'u', 'z', 'e']",1,"[0.8833830608054996, 1.075273665599525, 1.2114413599483669, 1.5313071636483073, 1.739262812770903]",239.3405889282003,None,239.34063077657484,239.4407486403361,,,,,,,,,,,,s212,001,2023_Mar_22_1430,test_typingtask_norepeats,2020.2.10,59.964272860612105,
belly,belly,,,,,0,30,30,30,,,,,,,,244.8407920789905,None,"['b', 'e', 'l', 'l', 'y']",1,"[0.7751294830814004, 0.8790759900584817, 1.039139102678746, 1.1991652897559106, 1.2870846521109343]",244.8407920789905,None,244.84060804345646,244.94055958697572,,,,,,,,,,,,s212,001,2023_Mar_22_1430,test_typingtask_norepeats,2020.2.10,59.964272860612105,
faqir,faqir,,,,,0,31,31,31,,,,,,,,250.34138579806313,None,"['f', 'a', 'q', 'i', 'r']",1,"[0.9304733760654926, 1.1465751780197024, 1.8025914994068444, 2.930531037040055, 3.042454115115106]",250.34138579806313,None,250.34062423915603,250.44079231424257,,,,,,,,,,,,s212,001,2023_Mar_22_1430,test_typingtask_norepeats,2020.2.10,59.964272860612105,
tithe,tithe,,,,,0,32,32,32,,,,,,,,255.8408640511334,None,"['t', 'i', 't', 'h', 'e']",1,"[1.1669636061415076, 1.255103625357151, 1.3911074590869248, 1.519115811213851, 1.687088621314615]",255.8408640511334,None,255.840687492257,255.9407279691659,,,,,,,,,,,,s212,001,2023_Mar_22_1430,test_typingtask_norepeats,2020.2.10,59.964272860612105,
cooed,cooed,,,,,0,33,33,33,,,,,,,,261.34080798598006,None,"['c', 'o', 'o', 'e', 'd']",1,"[0.7790731568820775, 0.9951073783449829, 1.155162500217557, 1.2430510451085865, 1.45104106888175]",261.34080798598006,None,261.34062313414177,261.4406184889376,,,,,,,,,,,,s212,001,2023_Mar_22_1430,test_typingtask_norepeats,2020.2.10,59.964272860612105,
haole,haole,,,,,0,34,34,34,,,,,,,,266.84087690897286,None,"['h', 'a', 'o', 'l', 'e']",1,"[1.0150384055450559, 1.1189910229295492, 1.2789936466142535, 1.526966666802764, 1.631031719967723]",266.84087690897286,None,266.84134853524154,266.9405970601365,,,,,,,,,,,,s212,001,2023_Mar_22_1430,test_typingtask_norepeats,2020.2.10,59.964272860612105,
zibja,zibja,,,,,0,35,35,35,,,,,,,,272.34088479634374,None,"['z', 'i', 'b', 'j', 'a']",1,"[1.3870499623008072, 1.4750686548650265, 1.6750686601735651, 1.8429636200889945, 1.978956290986389]",272.34088479634374,None,272.34086992251684,272.44093894492835,,,,,,,,,,,,s212,001,2023_Mar_22_1430,test_typingtask_norepeats,2020.2.10,59.964272860612105,
tithe,tithe,,,,,0,36,36,36,,,,,,,,277.84095939807594,None,"['t', 'i', 't', 'h', 'e']",1,"[0.790984489955008, 0.886967146769166, 1.0309087689965963, 1.1508624949492514, 1.2949944967404008]",277.84095939807594,None,277.8408391995821,277.9411700591445,,,,,,,,,,,,s212,001,2023_Mar_22_1430,test_typingtask_norepeats,2020.2.10,59.964272860612105,
champ,champ,,,,,0,37,37,37,,,,,,,,283.3410420413129,None,"['c', 'h', 'a', 'm', 'p']",1,"[0.794871864374727, 0.91487154411152, 1.0029356232844293, 1.1628911751322448, 1.3788137203082442]",283.3410420413129,None,283.34070971640756,283.4408176592551,,,,,,,,,,,,s212,001,2023_Mar_22_1430,test_typingtask_norepeats,2020.2.10,59.964272860612105,
vanru,vanru,,,,,0,38,38,38,,,,,,,,288.84072915511206,None,"['v', 'a', 'n', 'r', 'u']",1,"[0.9912244249135256, 1.1271098712459207, 1.271190342027694, 1.4071982689201832, 1.543110195081681]",288.84072915511206,None,288.84071559957226,288.9411383890547,,,,,,,,,,,,s212,001,2023_Mar_22_1430,test_typingtask_norepeats,2020.2.10,59.964272860612105,
therm,therm,,,,,0,39,39,39,,,,,,,,294.3408085233532,None,"['t', 'h', 'e', 'r', 'm']",1,"[0.7150483299046755, 0.8270889925770462, 0.9791227108798921, 1.1231168457306921, 1.259071216918528]",294.3408085233532,None,294.3408159132581,294.44077804125845,,,,,,,,,,,,s212,001,2023_Mar_22_1430,test_typingtask_norepeats,2020.2.10,59.964272860612105,
lucky,lucky,,,,,0,40,40,40,,,,,,,,299.84075252804905,None,"['l', 'u', 'c', 'k', 'y']",1,"[0.7192315561696887, 0.9270896431989968, 1.0232066940516233, 1.1671328567899764, 1.375173264183104]",299.84075252804905,None,299.8408579075243,299.94076563231647,,,,,,,,,,,,s212,001,2023_Mar_22_1430,test_typingtask_norepeats,2020.2.10,59.964272860612105,
haole,haole,,,,,0,41,41,41,,,,,,,,305.3405994209461,None,"['h', 'a', 'o', 'l', 'e']",1,"[0.8432496385648847, 0.9792417888529599, 1.0833611385896802, 1.2833569357171655, 1.4033213355578482]",305.3405994209461,None,305.3407093503978,305.44080209126696,,,,,,,,,,,,s212,001,2023_Mar_22_1430,test_typingtask_norepeats,2020.2.10,59.964272860612105,
vanru,vanru,,,,,0,42,42,42,,,,,,,,310.84074963023886,None,"['v', 'a', 'n', 'r', 'u']",1,"[0.8791890447027981, 1.0311552956700325, 1.1510864738374949, 1.3191632949747145, 1.4232184579595923]",310.84074963023886,None,310.840907707205,310.9412971450947,,,,,,,,,,,,s212,001,2023_Mar_22_1430,test_typingtask_norepeats,2020.2.10,59.964272860612105,
there,there,,,,,0,43,43,43,,,,,,,,316.34069903427735,None,"['t', 'h', 'e', 'r', 'e']",1,"[0.7152514820918441, 0.8112019500695169, 0.9472627271898091, 1.0752722821198404, 1.2591439811512828]",316.34069903427735,None,316.340845327219,316.44090088503435,,,,,,,,,,,,s212,001,2023_Mar_22_1430,test_typingtask_norepeats,2020.2.10,59.964272860612105,
kremp,kremp,,,,,0,44,44,44,,,,,,,,321.8408918841742,None,"['k', 'r', 'e', 'm', 'p']",1,"[0.9110806412063539, 1.0070821200497448, 1.1669535841792822, 1.303026004228741, 1.510967274196446]",321.8408918841742,None,321.8408238355536,321.940754306037,,,,,,,,,,,,s212,001,2023_Mar_22_1430,test_typingtask_norepeats,2020.2.10,59.964272860612105,
about,about,,,,,0,45,45,45,,,,,,,,327.34097782103345,None,"['a', 'b', 'o', 'u', 't']",1,"[0.6508701327256858, 0.7949632541276515, 0.97100251307711, 1.1149562578648329, 1.2428800398483872]",327.34097782103345,None,327.34046157621776,327.4408362270333,,,,,,,,,,,,s212,001,2023_Mar_22_1430,test_typingtask_norepeats,2020.2.10,59.964272860612105,
there,there,,,,,0,46,46,46,,,,,,,,332.84093522513285,None,"['t', 'h', 'e', 'r', 'e']",1,"[0.6870386488735676, 0.8230351759120822, 0.9750193180516362, 1.103000178001821, 1.2789881601929665]",332.84093522513285,None,332.84076240458523,332.94082369236276,,,,,,,,,,,,s212,001,2023_Mar_22_1430,test_typingtask_norepeats,2020.2.10,59.964272860612105,
think,think,,,,,0,47,47,47,,,,,,,,338.34076543012634,None,"['t', 'h', 'i', 'n', 'k']",1,"[0.7311688531190157, 0.8751116381026804, 1.0670998259447515, 1.2430899320170283, 1.4031777568161488]",338.34076543012634,None,338.34097040849736,338.4409805452451,,,,,,,,,,,,s212,001,2023_Mar_22_1430,test_typingtask_norepeats,2020.2.10,59.964272860612105,
faqir,faqir,,,,,0,48,48,48,,,,,,,,343.84091421123594,None,"['f', 'a', 'q', 'i', 'r']",1,"[1.0470449458807707, 1.2550565698184073, 1.7909495937637985, 1.9590057847090065, 2.190936258994043]",343.84091421123594,None,343.84091055425813,343.9407443962991,,,,,,,,,,,,s212,001,2023_Mar_22_1430,test_typingtask_norepeats,2020.2.10,59.964272860612105,
theme,theme,,,,,0,49,49,49,,,,,,,,349.3409478580579,None,"['t', 'h', 'e', 'm', 'e']",1,"[0.7309748758561909, 0.8588893059641123, 1.01099520502612, 1.2509001959115267, 1.4030314777046442]",349.3409478580579,None,349.34089936022644,349.44089537113905,,,,,,,,,,,,s212,001,2023_Mar_22_1430,test_typingtask_norepeats,2020.2.10,59.964272860612105,
puppy,puppy,,,,,0,50,50,50,,,,,,,,354.8410970112309,None,"['p', 'u', 'p', 'p', 'y']",1,"[0.7988185696303844, 1.030791130848229, 1.2468008706346154, 1.414800667669624, 1.6228690748102963]",354.8410970112309,None,354.84081193138843,354.9409230700694,,,,,,,,,,,,s212,001,2023_Mar_22_1430,test_typingtask_norepeats,2020.2.10,59.964272860612105,
champ,champ,,,,,0,51,51,51,,,,,,,,360.3411933663301,None,"['c', 'h', 'a', 'm', 'p']",1,"[0.8747631870210171, 0.9626662177033722, 1.122776169795543, 1.2347394018433988, 1.3867448568344116]",360.3411933663301,None,360.3409373865928,360.4411525730975,,,,,,,,,,,,s212,001,2023_Mar_22_1430,test_typingtask_norepeats,2020.2.10,59.964272860612105,
vodka,vodka,,,,,0,52,52,52,,,,,,,,365.84077093331143,None,"['v', 'o', 'd', 'k', 'a']",1,"[0.8712028530426323, 1.0471860151737928, 1.4710786743089557, 1.5831759553402662, 1.73514703521505]",365.84077093331143,None,365.8408186112996,365.9407522380352,,,,,,,,,,,,s212,001,2023_Mar_22_1430,test_typingtask_norepeats,2020.2.10,59.964272860612105,
cheer,cheer,,,,,0,53,53,53,,,,,,,,371.3408560240641,None,"['c', 'h', 'e', 'e', 'r']",1,"[0.6590067818760872, 0.8111397251486778, 0.955112683121115, 1.1790521470829844, 1.3711359151639044]",371.3408560240641,None,371.34100160221567,371.44082332309335,,,,,,,,,,,,s212,001,2023_Mar_22_1430,test_typingtask_norepeats,2020.2.10,59.964272860612105,
champ,champ,,,,,0,54,54,54,,,,,,,,376.8412027871236,None,"['c', 'h', 'a', 'm', 'p']",1,"[0.678733745124191, 0.7907685530371964, 0.9266590429469943, 1.062774654943496, 1.270754598081112]",376.8412027871236,None,376.84095906545406,376.94084939500317,,,,,,,,,,,,s212,001,2023_Mar_22_1430,test_typingtask_norepeats,2020.2.10,59.964272860612105,
zibja,zibja,,,,,0,55,55,55,,,,,,,,382.34081792319193,None,"['z', 'i', 'b', 'j', 'a']",1,"[1.2751591908745468, 1.3790392512455583, 1.5711264829151332, 1.7710776599124074, 1.9551483439281583]",382.34081792319193,None,382.3408999693114,382.44099823897704,,,,,,,,,,,,s212,001,2023_Mar_22_1430,test_typingtask_norepeats,2020.2.10,59.964272860612105,
cooed,cooed,,,,,0,56,56,56,,,,,,,,387.8411360150203,None,"['c', 'o', 'o', 'e', 'd']",1,"[0.7667499734088778, 0.9748328542336822, 1.134788288269192, 1.2468251790851355, 1.4387733130715787]",387.8411360150203,None,387.8409769813064,387.9409433831461,,,,,,,,,,,,s212,001,2023_Mar_22_1430,test_typingtask_norepeats,2020.2.10,59.964272860612105,
vodka,vodka,,,,,0,57,57,57,,,,,,,,393.34091091621667,None,"['v', 'o', 'd', 'k', 'a']",1,"[1.0830182102508843, 1.2349275569431484, 1.4589505172334611, 1.6269407020881772, 1.7870379439555109]",393.34091091621667,None,393.3408787253778,393.4410783192143,,,,,,,,,,,,s212,001,2023_Mar_22_1430,test_typingtask_norepeats,2020.2.10,59.964272860612105,
haole,haole,,,,,0,58,58,58,,,,,,,,398.84103392995894,None,"['h', 'a', 'o', 'l', 'e']",1,"[0.9588201539590955, 1.0869409553706646, 1.2069234950467944, 1.3988864193670452, 1.5349146910011768]",398.84103392995894,None,398.84085231027564,398.9409573562443,,,,,,,,,,,,s212,001,2023_Mar_22_1430,test_typingtask_norepeats,2020.2.10,59.964272860612105,
would,would,,,,,0,59,59,59,,,,,,,,404.34102277224883,None,"['w', 'o', 'u', 'l', 'd']",1,"[1.0588509631343186, 1.178951843176037, 1.3469115472398698, 1.5709254993125796, 1.6909521301276982]",404.34102277224883,None,404.3408351641614,404.44100371096283,,,,,,,,,,,,s212,001,2023_Mar_22_1430,test_typingtask_norepeats,2020.2.10,59.964272860612105,
theme,theme,,,,,0,60,60,60,,,,,,,,409.84109369525686,None,"['t', 'h', 'e', 'm', 'e']",1,"[0.6708669411018491, 0.7667527431622148, 0.9108123281039298, 0.9988360349088907, 1.118884779047221]",409.84109369525686,None,409.8410310864914,409.9408571473323,,,,,,,,,,,,s212,001,2023_Mar_22_1430,test_typingtask_norepeats,2020.2.10,59.964272860612105,
cooed,cooed,,,,,0,61,61,61,,,,,,,,415.3410000889562,None,"['c', 'o', 'o', 'e', 'd']",1,"[0.6988956066779792, 0.9068634486757219, 1.0749631356447935, 1.1869230060838163, 1.394925250671804]",415.3410000889562,None,415.34107824633827,415.4409759803675,,,,,,,,,,,,s212,001,2023_Mar_22_1430,test_typingtask_norepeats,2020.2.10,59.964272860612105,
vanru,vanru,,,,,0,62,62,62,,,,,,,,420.8410719493404,None,"['v', 'a', 'n', 'r', 'u']",1,"[1.0548881492577493, 1.1748941633850336, 1.310888817999512, 1.5109327849932015, 1.6308337301015854]",420.8410719493404,None,420.8411534683313,420.9412470571697,,,,,,,,,,,,s212,001,2023_Mar_22_1430,test_typingtask_norepeats,2020.2.10,59.964272860612105,
buddy,buddy,,,,,0,63,63,63,,,,,,,,426.34114937298,None,"['b', 'u', 'd', 'd', 'y']",1,"[0.8587016239762306, 1.0427007800899446, 1.346761189866811, 1.5147694456391037, 1.6187812187708914]",426.34114937298,None,426.34101095129733,426.44110632734373,,,,,,,,,,,,s212,001,2023_Mar_22_1430,test_typingtask_norepeats,2020.2.10,59.964272860612105,
tithe,tithe,,,,,0,64,64,64,,,,,,,,431.84134530834854,None,"['t', 'i', 't', 'h', 'e']",1,"[0.8465734622441232, 0.9265442132018507, 1.0945897372439504, 1.2145921192131937, 1.4066261681728065]",431.84134530834854,None,431.84101365632375,431.94104198599234,,,,,,,,,,,,s212,001,2023_Mar_22_1430,test_typingtask_norepeats,2020.2.10,59.964272860612105,
about,about,,,,,0,65,65,65,,,,,,,,437.3409890010953,None,"['a', 'b', 'o', 'u', 't']",1,"[0.7789456471800804, 0.8909384268335998, 1.0909278611652553, 1.2348529710434377, 1.3469834048300982]",437.3409890010953,None,437.34098705635404,437.4412443651818,,,,,,,,,,,,s212,001,2023_Mar_22_1430,test_typingtask_norepeats,2020.2.10,59.964272860612105,
champ,champ,,,,,0,66,66,66,,,,,,,,442.84099345095456,None,"['c', 'h', 'a', 'm', 'p']",1,"[0.6709821568801999, 0.8389734760858119, 0.9749797009862959, 1.086984084919095, 1.2549217948690057]",442.84099345095456,None,442.8410697694402,442.9409293322824,,,,,,,,,,,,s212,001,2023_Mar_22_1430,test_typingtask_norepeats,2020.2.10,59.964272860612105,
heond,heond,,,,,0,67,67,67,,,,,,,,448.3409168482758,None,"['h', 'e', 'o', 'n', 'd']",1,"[0.8509255377575755, 1.0269606211222708, 1.1470282189548016, 1.322990344837308, 1.4910310227423906]",448.3409168482758,None,448.34099597330203,448.4411673480645,,,,,,,,,,,,s212,001,2023_Mar_22_1430,test_typingtask_norepeats,2020.2.10,59.964272860612105,
think,think,,,,,0,68,68,68,,,,,,,,453.8409375692718,None,"['t', 'h', 'i', 'n', 'k']",1,"[0.7509013148956001, 0.8390272818505764, 1.1190229295752943, 1.1750247878953815, 1.3349657086655498]",453.8409375692718,None,453.841043328261,453.94115367205814,,,,,,,,,,,,s212,001,2023_Mar_22_1430,test_typingtask_norepeats,2020.2.10,59.964272860612105,
would,would,,,,,0,69,69,69,,,,,,,,459.3409704663791,None,"['w', 'o', 'u', 'l', 'd']",1,"[0.7629514299333096, 0.8748937197960913, 1.0669751279056072, 1.242880626115948, 1.32299317792058]",459.3409704663791,None,459.34108278513884,459.44129310408607,,,,,,,,,,,,s212,001,2023_Mar_22_1430,test_typingtask_norepeats,2020.2.10,59.964272860612105,
theme,theme,,,,,0,70,70,70,,,,,,,,464.84105051122606,None,"['t', 'h', 'm', 'e']",0,"[0.6788789420388639, 0.766875381115824, 1.0308857271447778, 1.2229170673526824]",464.84105051122606,None,464.8410559881944,464.940894193016,,,,,,,,,,,,s212,001,2023_Mar_22_1430,test_typingtask_norepeats,2020.2.10,59.964272860612105,
zibja,zibja,,,,,0,71,71,71,,,,,,,,470.3411170123145,None,"['z', 'i', 'b', 'j', 'a']",1,"[1.2668112819083035, 1.3708628481253982, 1.5468571311794221, 1.7307473588734865, 1.8908402118831873]",470.3411170123145,None,470.3410165331792,470.44094533426687,,,,,,,,,,,,s212,001,2023_Mar_22_1430,test_typingtask_norepeats,2020.2.10,59.964272860612105,
edthe,edthe,,,,,0,72,72,72,,,,,,,,475.8409819812514,None,"['e', 'd', 't', 'h', 'e']",1,"[1.022871389053762, 1.2469814140349627, 1.4949532337486744, 1.6069787950254977, 1.7829805850051343]",475.8409819812514,None,475.84082740624433,475.94108380703256,,,,,,,,,,,,s212,001,2023_Mar_22_1430,test_typingtask_norepeats,2020.2.10,59.964272860612105,
belly,belly,,,,,0,73,73,73,,,,,,,,481.3409281503409,None,"['b', 'e', 'l', 'l', 'y']",1,"[0.7390403770841658, 0.8910295772366226, 1.018919738009572, 1.1870444440282881, 1.2990443599410355]",481.3409281503409,None,481.3410860284697,481.4409982273355,,,,,,,,,,,,s212,001,2023_Mar_22_1430,test_typingtask_norepeats,2020.2.10,59.964272860612105,
faqir,faqir,,,,,0,74,74,74,,,,,,,,486.84120831638575,None,"['f', 'a', 'q', 'i', 'r']",1,"[1.0227565108798444, 1.1907234508544207, 1.6707461620680988, 2.2867293981835246, 2.3986851600930095]",486.84120831638575,None,486.8410006084945,486.94085637899116,,,,,,,,,,,,s212,001,2023_Mar_22_1430,test_typingtask_norepeats,2020.2.10,59.964272860612105,
pykka,pykka,,,,,0,75,75,75,,,,,,,,492.341086267028,None,"['p', 'y', 'k', 'k', 'a']",1,"[0.8748797220177948, 1.178897044621408, 1.4668710487894714, 1.6507608406245708, 1.7868507159873843]",492.341086267028,None,492.34110246631315,492.44119023438543,,,,,,,,,,,,s212,001,2023_Mar_22_1430,test_typingtask_norepeats,2020.2.10,59.964272860612105,
there,there,,,,,0,76,76,76,,,,,,,,497.8412018720992,None,"['t', 'h', 'e', 'r', 'e']",1,"[0.6707394332624972, 0.8066705539822578, 0.9506485471501946, 1.1106566470116377, 1.2626563552767038]",497.8412018720992,None,497.8410916075576,497.94100683229044,,,,,,,,,,,,s212,001,2023_Mar_22_1430,test_typingtask_norepeats,2020.2.10,59.964272860612105,
druze,druze,,,,,0,77,77,77,,,,,,,,503.3410722850822,None,"['d', 'r', 'u', 'z', 'e']",1,"[0.9788715648464859, 1.1949001871980727, 1.3308440712280571, 1.6427629739046097, 1.8908766200765967]",503.3410722850822,None,503.3410785262007,503.44116876414046,,,,,,,,,,,,s212,001,2023_Mar_22_1430,test_typingtask_norepeats,2020.2.10,59.964272860612105,
zibja,zibja,,,,,0,78,78,78,,,,,,,,508.84106940729544,None,"['z', 'i', 'b', 'j', 'a']",1,"[1.4389042081311345, 1.574902273248881, 1.7588579612784088, 1.9108066633343697, 2.030895376112312]",508.84106940729544,None,508.84107190635984,508.94111549435183,,,,,,,,,,,,s212,001,2023_Mar_22_1430,test_typingtask_norepeats,2020.2.10,59.964272860612105,
therm,therm,,,,,0,79,79,79,,,,,,,,514.3410416492261,None,"['t', 'h', 'e', 'r', 'm']",1,"[0.770933564286679, 0.8908884390257299, 1.0268056374043226, 1.1709063262678683, 1.3228765320964158]",514.3410416492261,None,514.3412356351968,514.4410688332282,,,,,,,,,,,,s212,001,2023_Mar_22_1430,test_typingtask_norepeats,2020.2.10,59.964272860612105,
puppy,puppy,,,,,0,80,80,80,,,,,,,,519.841093712952,None,"['p', 'u', 'p', 'p', 'y']",1,"[1.0627619456499815, 1.3347611110657454, 1.5748624447733164, 1.742755735758692, 1.9028382417745888]",519.841093712952,None,519.8411367161665,519.9409480150789,,,,,,,,,,,,s212,001,2023_Mar_22_1430,test_typingtask_norepeats,2020.2.10,59.964272860612105,
zibja,zibja,,,,,0,81,81,81,,,,,,,,525.3409479409456,None,"['z', 'i', 'b', 'j', 'a']",1,"[1.0830081407912076, 1.194987618830055, 1.362913514021784, 1.5550122587010264, 1.691010836046189]",525.3409479409456,None,525.34118137029,525.4411394270137,,,,,,,,,,,,s212,001,2023_Mar_22_1430,test_typingtask_norepeats,2020.2.10,59.964272860612105,
belly,belly,,,,,0,82,82,82,,,,,,,,530.8411059970967,None,"['b', 'e', 'l', 'l', 'y']",1,"[0.8227418139576912, 1.0068693249486387, 1.1107483692467213, 1.2788065681234002, 1.4068511668592691]",530.8411059970967,None,530.8411394272465,530.9410710390657,,,,,,,,,,,,s212,001,2023_Mar_22_1430,test_typingtask_norepeats,2020.2.10,59.964272860612105,
heond,heond,,,,,0,83,83,83,,,,,,,,536.3409669762477,None,"['h', 'e', 'o', 'n', 'd']",1,"[0.9549496551044285, 1.0829579131677747, 1.2189786368981004, 1.3870077319443226, 1.5709411739371717]",536.3409669762477,None,536.3410842095967,536.4409034913406,,,,,,,,,,,,s212,001,2023_Mar_22_1430,test_typingtask_norepeats,2020.2.10,59.964272860612105,
think,think,,,,,0,84,84,84,,,,,,,,541.8412428223528,None,"['t', 'h', 'i', 'n', 'k']",1,"[0.8786714221350849, 0.9906084141694009, 1.1746836402453482, 1.35869409609586, 1.542603511363268]",541.8412428223528,None,541.8410605172161,541.9414780493826,,,,,,,,,,,,s212,001,2023_Mar_22_1430,test_typingtask_norepeats,2020.2.10,59.964272860612105,
pykka,pykka,,,,,0,85,85,85,,,,,,,,547.3412445513532,None,"['p', 'y', 'k', 'k', 'a']",1,"[0.8586855540052056, 1.1467027910985053, 1.4426070721819997, 1.6187261771410704, 1.7867277888581157]",547.3412445513532,None,547.3409942922648,547.4411570220254,,,,,,,,,,,,s212,001,2023_Mar_22_1430,test_typingtask_norepeats,2020.2.10,59.964272860612105,
vodka,vodka,,,,,0,86,86,86,,,,,,,,552.841269728262,None,"['v', 'o', 'd', 'k', 'a', 'a']",0,"[1.718665957916528, 1.9585857759229839, 2.4545839647762477, 2.6066880971193314, 2.8545995210297406, 2.950577742885798]",552.841269728262,None,552.8411859151441,552.9416247829795,,,,,,,,,,,,s212,001,2023_Mar_22_1430,test_typingtask_norepeats,2020.2.10,59.964272860612105,
therm,therm,,,,,0,87,87,87,,,,,,,,558.3411879311316,None,"['t', 'h', 'e', 'm', 'r']",0,"[0.7227684208191931, 0.8027459396980703, 0.9867833806201816, 1.1546496907249093, 1.1626916630193591]",558.3411879311316,None,558.341184826428,558.4411491323262,,,,,,,,,,,,s212,001,2023_Mar_22_1430,test_typingtask_norepeats,2020.2.10,59.964272860612105,
would,would,,,,,0,88,88,88,,,,,,,,563.8412996111438,None,"['w', 'o', 'u', 'l', 'd']",1,"[0.8306537820026278, 0.9265788220800459, 1.0946273691952229, 1.2707173530943692, 1.390601612161845]",563.8412996111438,None,563.8415874292608,563.9409964890219,,,,,,,,,,,,s212,001,2023_Mar_22_1430,test_typingtask_norepeats,2020.2.10,59.964272860612105,
cooed,cooed,,,,,0,89,89,89,,,,,,,,569.341291775927,None,"['c', 'o', 'o', 'e', 'd']",1,"[0.7706930129788816, 0.9625658630393445, 1.1306469892151654, 1.2425521230325103, 1.466681052930653]",569.341291775927,None,569.3413083612453,569.4411890022457,,,,,,,,,,,,s212,001,2023_Mar_22_1430,test_typingtask_norepeats,2020.2.10,59.964272860612105,
faqir,faqir,,,,,0,90,90,90,,,,,,,,574.8413933250122,None,"['f', 'a', 'q', 'i', 'e']",0,"[0.9585761623457074, 1.1264714673161507, 1.5985445831902325, 1.7745879562571645, 1.926458468195051]",574.8413933250122,None,574.8412562933285,574.9412817233242,,,,,,,,,,,,s212,001,2023_Mar_22_1430,test_typingtask_norepeats,2020.2.10,59.964272860612105,
kremp,kremp,,,,,0,91,91,91,,,,,,,,580.3411209122278,None,"['k', 'r', 'e', 'm', 'p']",1,"[1.0668540759943426, 1.1548520820215344, 1.3228516271337867, 1.4507317692041397, 1.6427286020480096]",580.3411209122278,None,580.3411469625775,580.4412047853693,,,,,,,,,,,,s212,001,2023_Mar_22_1430,test_typingtask_norepeats,2020.2.10,59.964272860612105,
lucky,lucky,,,,,0,92,92,92,,,,,,,,585.8412478151731,None,"['l', 'u', 'c', 'k', 'y']",1,"[0.8146089729852974, 1.0306960055604577, 1.1666857269592583, 1.2866828148253262, 1.5346036329865456]",585.8412478151731,None,585.841288446309,585.9414545153268,,,,,,,,,,,,s212,001,2023_Mar_22_1430,test_typingtask_norepeats,2020.2.10,59.964272860612105,
heond,heond,,,,,0,93,93,93,,,,,,,,591.3410771042109,None,"['h', 'e', 'o', 'n', 'd']",1,"[0.8028958970680833, 0.9388118293136358, 1.0347614893689752, 1.178851949982345, 1.3148394310846925]",591.3410771042109,None,591.3412954954896,591.441300411243,,,,,,,,,,,,s212,001,2023_Mar_22_1430,test_typingtask_norepeats,2020.2.10,59.964272860612105,
belly,belly,,,,,0,94,94,94,,,,,,,,596.8411601670086,None,"['b', 'e', 'l', 'l', 'y']",1,"[0.766773612704128, 0.9028061986900866, 1.0467500416561961, 1.2228023395873606, 1.358771983999759]",596.8411601670086,None,596.841392639419,596.9414394521154,,,,,,,,,,,,s212,001,2023_Mar_22_1430,test_typingtask_norepeats,2020.2.10,59.964272860612105,
faqir,faqir,,,,,0,95,95,95,,,,,,,,602.341119620949,None,"['f', 'a', 'q', 'i', 'r']",1,"[0.8987986920401454, 1.0748552549630404, 1.4107467299327254, 1.9468429638072848, 2.090859190095216]",602.341119620949,None,602.3412653653417,602.4412642139941,,,,,,,,,,,,s212,001,2023_Mar_22_1430,test_typingtask_norepeats,2020.2.10,59.964272860612105,
pykka,pykka,,,,,0,96,96,96,,,,,,,,607.8410832001828,None,"['p', 'y', 'k', 'k', 'a']",1,"[1.2147609633393586, 1.6148297470062971, 1.934764584992081, 2.126757580321282, 2.3347674473188818]",607.8410832001828,None,607.8412324514705,607.9414816000499,,,,,,,,,,,,s212,001,2023_Mar_22_1430,test_typingtask_norepeats,2020.2.10,59.964272860612105,
edthe,edthe,,,,,0,97,97,97,,,,,,,,613.3413784671575,None,"['e', 'd', 't', 'h', 'e']",1,"[1.0825602770783007, 1.2985307928174734, 1.5624943347647786, 1.6586097809486091, 1.794595438055694]",613.3413784671575,None,613.341251567332,613.4414694011211,,,,,,,,,,,,s212,001,2023_Mar_22_1430,test_typingtask_norepeats,2020.2.10,59.964272860612105,
think,think,,,,,0,98,98,98,,,,,,,,618.8413581470959,None,"['t', 'h', 'i', 'n', 'k']",1,"[0.7985639730468392, 0.8706224299967289, 1.0706146559678018, 1.190492691937834, 1.342488331720233]",618.8413581470959,None,618.8411577961873,618.9413304962218,,,,,,,,,,,,s212,001,2023_Mar_22_1430,test_typingtask_norepeats,2020.2.10,59.964272860612105,
puppy,puppy,,,,,0,99,99,99,,,,,,,,624.3578035240062,None,"['p', 'u', 'p', 'p', 'y']",1,"[0.7381560229696333, 1.0340468757785857, 1.2740562451072037, 1.4340725908987224, 1.6260443041101098]",624.3578035240062,None,624.3575734261889,624.4577136309817,,,,,,,,,,,,s212,001,2023_Mar_22_1430,test_typingtask_norepeats,2020.2.10,59.964272860612105,
would,would,,,,,0,100,100,100,,,,,,,,629.8581739659421,None,"['w', 'o', 'u', 'l', 'd']",1,"[0.9256796166300774, 1.0377502758055925, 1.197683630976826, 1.4057992296293378, 1.5176709168590605]",629.8581739659421,None,629.8579351644497,629.958016182296,,,,,,,,,,,,s212,001,2023_Mar_22_1430,test_typingtask_norepeats,2020.2.10,59.964272860612105,
buddy,buddy,,,,,0,101,101,101,,,,,,,,635.3580634742975,None,"['b', 'u', 'd', 'd', 'y']",1,"[0.8417876050807536, 1.0258848769590259, 1.3378563080914319, 1.545845943968743, 1.6978204231709242]",635.3580634742975,None,635.3579964701552,635.4581063352525,,,,,,,,,,,,s212,001,2023_Mar_22_1430,test_typingtask_norepeats,2020.2.10,59.964272860612105,
tithe,tithe,,,,,0,102,102,102,,,,,,,,640.85782342311,None,"['i', 't', 'h', 'e']",0,"[0.8220289312303066, 0.9661321481689811, 1.1821541972458363, 1.4141213148832321]",640.85782342311,None,640.8581742624286,640.9579480052926,,,,,,,,,,,,s212,001,2023_Mar_22_1430,test_typingtask_norepeats,2020.2.10,59.964272860612105,
edthe,edthe,,,,,0,103,103,103,,,,,,,,646.3747569122352,None,"['e', 'd', 't', 'h', 'e']",1,"[0.9451854228973389, 1.1532248347066343, 1.4090976426377892, 1.5770801976323128, 1.7372029866091907]",646.3747569122352,None,646.3745917303953,646.4745859699324,,,,,,,,,,,,s212,001,2023_Mar_22_1430,test_typingtask_norepeats,2020.2.10,59.964272860612105,
buddy,buddy,,,,,0,104,104,104,,,,,,,,651.874691516161,None,"['b', 'u', 'd', 'd', 'y']",1,"[1.2931546890176833, 1.485277274157852, 1.6612468222156167, 1.853306584060192, 2.013219312299043]",651.874691516161,None,651.8745859142858,651.9750431650318,,,,,,,,,,,,s212,001,2023_Mar_22_1430,test_typingtask_norepeats,2020.2.10,59.964272860612105,
druze,druze,,,,,0,105,105,105,,,,,,,,657.374581546057,None,"['d', 'r', 'u', 'z', 'e']",1,"[1.1772630936466157, 1.3772655287757516, 1.5292909820564091, 1.8252667370252311, 2.0892643509432673]",657.374581546057,None,657.3744550224859,657.4748751791194,,,,,,,,,,,,s212,001,2023_Mar_22_1430,test_typingtask_norepeats,2020.2.10,59.964272860612105,
cheer,cheer,,,,,0,106,106,106,,,,,,,,662.8742381641641,None,"['c', 'h', 'e', 'e', 'r']",1,"[0.8296592691913247, 0.9977014320902526, 1.2457126141525805, 1.4537701439112425, 1.6617359882220626]",662.8742381641641,None,662.8743417853024,662.9743666760623,,,,,,,,,,,,s212,001,2023_Mar_22_1430,test_typingtask_norepeats,2020.2.10,59.964272860612105,
vodka,vodka,,,,,0,107,107,107,,,,,,,,668.374680059962,None,"['v', 'o', 'd', 'k', 'a']",1,"[0.8652938022278249, 1.0332872802391648, 1.2253419449552894, 1.3851681179367006, 1.513283203355968]",668.374680059962,None,668.3747151003685,668.4745803400874,,,,,,,,,,,,s212,001,2023_Mar_22_1430,test_typingtask_norepeats,2020.2.10,59.964272860612105,
haole,haole,,,,,0,108,108,108,,,,,,,,673.8747431831434,None,"['h', 'a', 'o', 'l', 'e']",1,"[1.0770844328217208, 1.2052283389493823, 1.3732054396532476, 1.6051721470430493, 1.733216396998614]",673.8747431831434,None,673.874672115175,673.9746119421907,,,,,,,,,,,,s212,001,2023_Mar_22_1430,test_typingtask_norepeats,2020.2.10,59.964272860612105,
cheer,cheer,,,,,0,109,109,109,,,,,,,,679.3747750991024,None,"['c', 'h', 'e', 'e', 'r']",1,"[0.7050852468237281, 0.8491409067064524, 1.0170775959268212, 1.2170781739987433, 1.4250818537548184]",679.3747750991024,None,679.3746947495732,679.4746106923558,,,,,,,,,,,,s212,001,2023_Mar_22_1430,test_typingtask_norepeats,2020.2.10,59.964272860612105,
pykka,pykka,,,,,0,110,110,110,,,,,,,,684.8763112481683,None,"['p', 'y', 'k', 'k', 'a']",1,"[0.8196120401844382, 1.363616629038006, 1.6755450069904327, 1.8516094530932605, 1.987652676180005]",684.8763112481683,None,684.8756680175196,684.9751558913849,,,,,,,,,,,,s212,001,2023_Mar_22_1430,test_typingtask_norepeats,2020.2.10,59.964272860612105,
champ,champ,,,,,0,111,111,111,,,,,,,,690.3751853671856,None,"['c', 'h', 'a', 'm', 'p']",1,"[0.7207726230844855, 0.8407816961407661, 1.0407113223336637, 1.1766725992783904, 1.3367939591407776]",690.3751853671856,None,690.3747659384738,690.4748922763392,,,,,,,,,,,,s212,001,2023_Mar_22_1430,test_typingtask_norepeats,2020.2.10,59.964272860612105,
belly,belly,,,,,0,112,112,112,,,,,,,,695.8747236942872,None,"['b', 'e', 'l', 'l', 'y']",1,"[0.7412334019318223, 0.8771173730492592, 1.0372688909992576, 1.2132342960685492, 1.3651954759843647]",695.8747236942872,None,695.8747340313624,695.9746031081304,,,,,,,,,,,,s212,001,2023_Mar_22_1430,test_typingtask_norepeats,2020.2.10,59.964272860612105,
kremp,kremp,,,,,0,113,113,113,,,,,,,,701.3746368191205,None,"['k', 'r', 'e', 'm', 'p']",1,"[1.041328830178827, 1.105338177178055, 1.2893467182293534, 1.3772736703976989, 1.561308031436056]",701.3746368191205,None,701.3747360234614,701.4746458590962,,,,,,,,,,,,s212,001,2023_Mar_22_1430,test_typingtask_norepeats,2020.2.10,59.964272860612105,
druze,druze,,,,,0,114,114,114,,,,,,,,706.8747158641927,None,"['d', 'r', 'u', 'z', 'e']",1,"[0.9732494871132076, 1.197197520174086, 1.3572417432442307, 1.6132319709286094, 1.9011459141038358]",706.8747158641927,None,706.8747453483287,706.9749976112507,,,,,,,,,,,,s212,001,2023_Mar_22_1430,test_typingtask_norepeats,2020.2.10,59.964272860612105,
tithe,tithe,,,,,0,115,115,115,,,,,,,,712.3746159691364,None,"['t', 'i', 't', 'h', 'e']",1,"[1.0652271788567305, 1.2093221307732165, 1.5052990028634667, 1.657271847128868, 1.8254157551564276]",712.3746159691364,None,712.3747510484885,712.4747155811638,,,,,,,,,,,,s212,001,2023_Mar_22_1430,test_typingtask_norepeats,2020.2.10,59.964272860612105,
haole,haole,,,,,0,116,116,116,,,,,,,,717.8746093153022,None,"['h', 'o', 'a', 'l', 'e']",0,"[0.9412409998476505, 1.2533617671579123, 1.349343508016318, 1.7413676171563566, 1.933358277194202]",717.8746093153022,None,717.8747684041504,717.9746438949369,,,,,,,,,,,,s212,001,2023_Mar_22_1430,test_typingtask_norepeats,2020.2.10,59.964272860612105,
pykka,pykka,,,,,0,117,117,117,,,,,,,,723.3914050669409,None,"['p', 'y', 'k', 'k', 'a']",1,"[0.904505074955523, 1.2004655529744923, 1.5205502388998866, 1.7124489438720047, 1.8804856189526618]",723.3914050669409,None,723.3914715613704,723.4911745269783,,,,,,,,,,,,s212,001,2023_Mar_22_1430,test_typingtask_norepeats,2020.2.10,59.964272860612105,
cooed,cooed,,,,,0,118,118,118,,,,,,,,728.8915195483714,None,"['c', 'o', 'o', 'e', 'd']",1,"[0.804418696090579, 1.0204219841398299, 1.2043762453831732, 1.3244639751501381, 1.5324072469957173]",728.8915195483714,None,728.8914178124163,728.9913972900249,,,,,,,,,,,,s212,001,2023_Mar_22_1430,test_typingtask_norepeats,2020.2.10,59.964272860612105,
there,there,,,,,0,119,119,119,,,,,,,,734.3915298259817,None,"['t', 'h', 'e', 'r', 'e']",1,"[0.6483906111679971, 0.7763249999843538, 0.9284175741486251, 1.1123231360688806, 1.2964745089411736]",734.3915298259817,None,734.3914738864172,734.4918227512389,,,,,,,,,,,,s212,001,2023_Mar_22_1430,test_typingtask_norepeats,2020.2.10,59.964272860612105,
vanru,vanru,,,,,,,,,0,0,0,0,,,,,,,,,,,,,739.8925365400501,None,754.1819525663741,None,"['v', 'a', 'n', 'r', 'u']",1,"[1.065898742992431, 1.177895818836987, 1.3299914319068193, 1.5460079298354685, 1.6259658699855208]",754.1819525663741,None,754.1751734924968,754.2749323472381,s212,001,2023_Mar_22_1430,test_typingtask_norepeats,2020.2.10,59.964272860612105,
haole,haole,,,,,,,,,0,1,1,1,,,,,,,,,,,,,,,759.6912520909682,None,"['h', 'a', 'o', 'l', 'e']",1,"[0.8845945103093982, 0.9966280101798475, 1.116701651364565, 1.3087273333221674, 1.41259492514655]",759.6912520909682,None,759.6913845542352,759.7917794901878,s212,001,2023_Mar_22_1430,test_typingtask_norepeats,2020.2.10,59.964272860612105,
champ,champ,,,,,,,,,0,2,2,2,,,,,,,,,,,,,,,765.1913509932347,None,"['c', 'h', 'a', 'm', 'p']",1,"[0.7765005072578788, 0.8806693889200687, 1.0084922881796956, 1.1447090050205588, 1.3286271253600717]",765.1913509932347,None,765.1914625431876,765.2915668273345,s212,001,2023_Mar_22_1430,test_typingtask_norepeats,2020.2.10,59.964272860612105,
druze,druze,,,,,,,,,0,3,3,3,,,,,,,,,,,,,,,770.6916309799999,None,"['d', 'r', 'u', 'z', 'e']",1,"[0.8042666520923376, 1.0602059541270137, 1.2043445617891848, 1.5083604650571942, 1.732281421776861]",770.6916309799999,None,770.6914917685557,770.7919683922082,s212,001,2023_Mar_22_1430,test_typingtask_norepeats,2020.2.10,59.964272860612105,
puppy,puppy,,,,,,,,,0,4,4,4,,,,,,,,,,,,,,,776.1914224401116,None,"['p', 'u', 'p', 'p', 'y']",1,"[1.1445517549291253, 1.3844308801926672, 1.632551257032901, 1.800411547999829, 1.9365544188767672]",776.1914224401116,None,776.1912785701919,776.2915304000489,s212,001,2023_Mar_22_1430,test_typingtask_norepeats,2020.2.10,59.964272860612105,
theme,theme,,,,,,,,,0,5,5,5,,,,,,,,,,,,,,,781.6914016180672,None,"['t', 'h', 'e', 'm', 'e']",1,"[0.7484565069898963, 0.8764461618848145, 1.0444902922026813, 1.1805202919058502, 1.3165624872781336]",781.6914016180672,None,781.691391325416,781.7917578201741,s212,001,2023_Mar_22_1430,test_typingtask_norepeats,2020.2.10,59.964272860612105,
tithe,tithe,,,,,,,,,0,6,6,6,,,,,,,,,,,,,,,787.1915400363505,None,"['t', 'i', 't', 'h', 'e']",1,"[0.8083643540740013, 0.9763135691173375, 1.1923087663017213, 1.3444815683178604, 1.5122922672890127]",787.1915400363505,None,787.1914058852475,787.2917029643431,s212,001,2023_Mar_22_1430,test_typingtask_norepeats,2020.2.10,59.964272860612105,
therm,therm,,,,,,,,,0,7,7,7,,,,,,,,,,,,,,,792.6915437621064,None,"['t', 'h', 'e', 'r', 'm']",1,"[0.7244306062348187, 0.8364425450563431, 0.9884271291084588, 1.1403254461474717, 1.3083191229961812]",792.6915437621064,None,792.691665332159,792.7912810761482,s212,001,2023_Mar_22_1430,test_typingtask_norepeats,2020.2.10,59.964272860612105,
there,there,,,,,,,,,0,8,8,8,,,,,,,,,,,,,,,798.1914818873629,None,"['t', 'h', 'e', 'r', 'e']",1,"[0.696459973230958, 0.8244587201625109, 0.9763746312819421, 1.1284055481664836, 1.320489821024239]",798.1914818873629,None,798.1917139146011,798.2917240313254,s212,001,2023_Mar_22_1430,test_typingtask_norepeats,2020.2.10,59.964272860612105,
faqir,faqir,,,,,,,,,0,9,9,9,,,,,,,,,,,,,,,803.6917260983028,None,"['f', 'a', 'q', 'i', 'r']",1,"[0.9401229280047119, 1.132233768235892, 1.4282274870201945, 1.7162260892800987, 1.8761247801594436]",803.6917260983028,None,803.6918059553485,803.7913824412972,s212,001,2023_Mar_22_1430,test_typingtask_norepeats,2020.2.10,59.964272860612105,
lucky,lucky,,,,,,,,,0,10,10,10,,,,,,,,,,,,,,,809.1917208763771,None,"['l', 'u', 'c', 'k', 'y']",1,"[0.9282184178009629, 1.1202588719315827, 1.2482316470704973, 1.3681338829919696, 1.64819566719234]",809.1917208763771,None,809.1914605035912,809.2917271000333,s212,001,2023_Mar_22_1430,test_typingtask_norepeats,2020.2.10,59.964272860612105,
zibja,zibja,,,,,,,,,0,11,11,11,,,,,,,,,,,,,,,814.6915525482036,None,"['z', 'i', 'b', 'j', 'a']",1,"[1.1962890410795808, 1.3243897962383926, 1.5242943572811782, 1.7404224029742181, 1.8363631758838892]",814.6915525482036,None,814.6916962902527,814.791484483052,s212,001,2023_Mar_22_1430,test_typingtask_norepeats,2020.2.10,59.964272860612105,
edthe,edthe,,,,,,,,,0,12,12,12,,,,,,,,,,,,,,,820.191521668341,None,"['e', 'd', 't', 'h', 'e']",1,"[0.7684329752810299, 0.9923205650411546, 1.2084080781787634, 1.312323174905032, 1.4643716122955084]",820.191521668341,None,820.1918606332969,820.2919568000361,s212,001,2023_Mar_22_1430,test_typingtask_norepeats,2020.2.10,59.964272860612105,
champ,champ,,,,,,,,,0,13,13,13,,,,,,,,,,,,,,,825.6915729460306,None,"['c', 'h', 'a', 'm', 'p']",1,"[0.7403451288118958, 0.8602652219124138, 0.9642811748199165, 1.1163846557028592, 1.292302343994379]",825.6915729460306,None,825.6915514565538,825.7916017151438,s212,001,2023_Mar_22_1430,test_typingtask_norepeats,2020.2.10,59.964272860612105,
druze,druze,,,,,,,,,0,14,14,14,,,,,,,,,,,,,,,831.1914455671795,None,"['d', 'r', 'u', 'z', 'e']",1,"[0.8165487009100616, 1.040432089008391, 1.2164736078120768, 1.456388280261308, 1.7044055522419512]",831.1914455671795,None,831.1914589692373,831.2915774439462,s212,001,2023_Mar_22_1430,test_typingtask_norepeats,2020.2.10,59.964272860612105,
edthe,edthe,,,,,,,,,0,15,15,15,,,,,,,,,,,,,,,836.6952586472034,None,"['e', 'd', 't', 'h', 'e']",1,"[0.8806850272230804, 1.1047006039880216, 1.3527131089940667, 1.4486336088739336, 1.6086417799815536]",836.6952586472034,None,836.6928500834387,836.7916912981309,s212,001,2023_Mar_22_1430,test_typingtask_norepeats,2020.2.10,59.964272860612105,
would,would,,,,,,,,,0,16,16,16,,,,,,,,,,,,,,,842.2083217762411,None,"['w', 'o', 'u', 'd', 'l']",0,"[0.6956449160352349, 0.8636136911809444, 1.0315176681615412, 1.343516587279737, 1.575590877328068]",842.2083217762411,None,842.2081493403297,842.3081206921488,s212,001,2023_Mar_22_1430,test_typingtask_norepeats,2020.2.10,59.964272860612105,
faqir,faqir,,,,,,,,,0,17,17,17,,,,,,,,,,,,,,,847.7082948931493,None,"['f', 'a', 'q', 'i', 'e', 'backspace', 'r']",0,"[1.0356273362413049, 1.2116442141123116, 1.4996284362860024, 1.7235598401166499, 1.88357422221452, 2.4515590318478644, 2.619712984189391]",847.7082948931493,None,847.7083465124946,847.8081345702522,s212,001,2023_Mar_22_1430,test_typingtask_norepeats,2020.2.10,59.964272860612105,
buddy,buddy,,,,,,,,,0,18,18,18,,,,,,,,,,,,,,,853.2084467280656,None,"['b', 'u', 'd', 'd', 'y']",1,"[0.999520889017731, 1.2154886950738728, 1.455405831336975, 1.6394105893559754, 1.7514588353224099]",853.2084467280656,None,853.2083151842002,853.3081879010424,s212,001,2023_Mar_22_1430,test_typingtask_norepeats,2020.2.10,59.964272860612105,
vodka,vodka,,,,,,,,,0,19,19,19,,,,,,,,,,,,,,,858.7083423901349,None,"['v', 'o', 'd', 'k', 'a']",1,"[0.8116164249368012, 0.9795376290567219, 1.195606003049761, 1.3635892136953771, 1.5395201337523758]",858.7083423901349,None,858.7081421724055,858.8081923401915,s212,001,2023_Mar_22_1430,test_typingtask_norepeats,2020.2.10,59.964272860612105,
theme,theme,,,,,,,,,0,20,20,20,,,,,,,,,,,,,,,864.2084598010406,None,"['t', 'h', 'e', 'm', 'e']",1,"[0.6474356036633253, 0.7355193626135588, 0.8794134119525552, 0.9915100056678057, 1.071497278753668]",864.2084598010406,None,864.2081702913623,864.3082560701296,s212,001,2023_Mar_22_1430,test_typingtask_norepeats,2020.2.10,59.964272860612105,
heond,heond,,,,,,,,,0,21,21,21,,,,,,,,,,,,,,,869.7082218402065,None,"['h', 'e', 'o', 'n', 'd']",1,"[0.795688877813518, 0.9316731500439346, 1.0197711498476565, 1.1876197690144181, 1.3316660337150097]",869.7082218402065,None,869.7083712451625,869.8083343580365,s212,001,2023_Mar_22_1430,test_typingtask_norepeats,2020.2.10,59.964272860612105,
lucky,lucky,,,,,,,,,0,22,22,22,,,,,,,,,,,,,,,875.2084432439879,None,"['l', 'u', 'c', 'k', 'y']",1,"[0.6954394732601941, 0.8794266148470342, 0.9753958531655371, 1.1434664381667972, 1.2955074459314346]",875.2084432439879,None,875.2082188342232,875.308445896022,s212,001,2023_Mar_22_1430,test_typingtask_norepeats,2020.2.10,59.964272860612105,
tithe,tithe,,,,,,,,,0,23,23,23,,,,,,,,,,,,,,,880.7081769900396,None,"['t', 'i', 't', 'h', 'e']",1,"[0.8117910292930901, 0.9556708419695497, 1.155801935121417, 1.2917903908528388, 1.4596592732705176]",880.7081769900396,None,880.7083780675661,880.8083173963241,s212,001,2023_Mar_22_1430,test_typingtask_norepeats,2020.2.10,59.964272860612105,
druze,druze,,,,,,,,,0,24,24,24,,,,,,,,,,,,,,,886.2082245512865,None,"['d', 'r', 'u', 'z', 'e']",1,"[0.9517572401091456, 1.1756876320578158, 1.3196795070543885, 1.5117093417793512, 1.727685609832406]",886.2082245512865,None,886.2083403462078,886.3084630719386,s212,001,2023_Mar_22_1430,test_typingtask_norepeats,2020.2.10,59.964272860612105,
heond,heond,,,,,,,,,0,25,25,25,,,,,,,,,,,,,,,891.7082202290185,None,"['h', 'e', 'o', 'n', 'd']",1,"[0.739627995993942, 0.8676319499500096, 0.9637137958779931, 1.139758552890271, 1.3236985546536744]",891.7082202290185,None,891.7083330143709,891.8082778952084,s212,001,2023_Mar_22_1430,test_typingtask_norepeats,2020.2.10,59.964272860612105,
haole,haole,,,,,,,,,0,26,26,26,,,,,,,,,,,,,,,897.2086293492466,None,"['h', 'a', 'o', 'l', 'e']",1,"[0.8552939291112125, 0.9352857880294323, 1.1033315579406917, 1.287212003953755, 1.4152717757970095]",897.2086293492466,None,897.2085591553245,897.3083447320387,s212,001,2023_Mar_22_1430,test_typingtask_norepeats,2020.2.10,59.964272860612105,
think,think,,,,,,,,,0,27,27,27,,,,,,,,,,,,,,,902.7092283372767,None,"['t', 'h', 'i', 'n', 'k']",1,"[0.7706889091059566, 0.9226956591010094, 1.1386255319230258, 1.3146950518712401, 1.5466377129778266]",902.7092283372767,None,902.7094174491707,902.8085293821059,s212,001,2023_Mar_22_1430,test_typingtask_norepeats,2020.2.10,59.964272860612105,
about,about,,,,,,,,,0,28,28,28,,,,,,,,,,,,,,,908.2082615373656,None,"['a', 'b', 'o', 'u', 't']",1,"[0.7835838096216321, 0.91170609369874, 1.087673137895763, 1.247655102983117, 1.3996709240600467]",908.2082615373656,None,908.2082031055819,908.3083277279511,s212,001,2023_Mar_22_1430,test_typingtask_norepeats,2020.2.10,59.964272860612105,
champ,champ,,,,,,,,,0,29,29,29,,,,,,,,,,,,,,,913.7083034431562,None,"['c', 'h', 'a', 'm', 'p']",1,"[0.6435471549630165, 0.75566824991256, 0.8835236891172826, 0.9956828928552568, 1.1876830370165408]",913.7083034431562,None,913.708385975426,913.8082778602839,s212,001,2023_Mar_22_1430,test_typingtask_norepeats,2020.2.10,59.964272860612105,
vanru,vanru,,,,,,,,,0,30,30,30,,,,,,,,,,,,,,,919.2084129522555,None,"['v', 'a', 'n', 'r', 'u']",1,"[0.8874884359538555, 1.0155548742040992, 1.151470857206732, 1.359440680127591, 1.4874748042784631]",919.2084129522555,None,919.2082838992122,919.3081251960248,s212,001,2023_Mar_22_1430,test_typingtask_norepeats,2020.2.10,59.964272860612105,
would,would,,,,,,,,,0,31,31,31,,,,,,,,,,,,,,,924.7083252733573,None,"['w', 'o', 'u', 'l', 'd']",1,"[0.7236479758284986, 0.8676001317799091, 1.035666482988745, 1.5076545430347323, 1.6436005979776382]",924.7083252733573,None,924.7083472854923,924.8081712140702,s212,001,2023_Mar_22_1430,test_typingtask_norepeats,2020.2.10,59.964272860612105,
vodka,vodka,,,,,,,,,0,32,32,32,,,,,,,,,,,,,,,930.2084477660246,None,"['v', 'o', 'd', 'k', 'a']",1,"[0.9035802930593491, 1.055522092152387, 1.207461363170296, 1.3754321723245084, 1.6154838372021914]",930.2084477660246,None,930.2084893424529,930.3083390039392,s212,001,2023_Mar_22_1430,test_typingtask_norepeats,2020.2.10,59.964272860612105,
therm,therm,,,,,,,,,0,33,33,33,,,,,,,,,,,,,,,935.7085421863012,None,"['t', 'h', 'e', 'm']",0,"[0.635419812053442, 0.739392566960305, 0.9154162891209126, 1.0193875320255756]",935.7085421863012,None,935.7083777443971,935.8083813679405,s212,001,2023_Mar_22_1430,test_typingtask_norepeats,2020.2.10,59.964272860612105,
would,would,,,,,,,,,0,34,34,34,,,,,,,,,,,,,,,941.2083620741032,None,"['w', 'o', 'u', 'l', 'd']",1,"[0.6955688460730016, 0.8715819800272584, 1.0394821669906378, 1.2235970399342477, 1.3835649802349508]",941.2083620741032,None,941.2083032092545,941.308672809042,s212,001,2023_Mar_22_1430,test_typingtask_norepeats,2020.2.10,59.964272860612105,
edthe,edthe,,,,,,,,,0,35,35,35,,,,,,,,,,,,,,,946.7083805473521,None,"['e', 'd', 't', 'h', 'e']",1,"[0.8196447342634201, 1.0514739379286766, 1.2995432778261602, 1.395498697180301, 1.5554632791318]",946.7083805473521,None,946.7085607902612,946.8082762151025,s212,001,2023_Mar_22_1430,test_typingtask_norepeats,2020.2.10,59.964272860612105,
buddy,buddy,,,,,,,,,0,36,36,36,,,,,,,,,,,,,,,952.20832643006,None,"['b', 'u', 'd', 'd', 'y']",1,"[0.9036475918255746, 1.1356379510834813, 1.351507443934679, 1.5435136570595205, 1.6956559950485826]",952.20832643006,None,952.2083385762293,952.3083842243068,s212,001,2023_Mar_22_1430,test_typingtask_norepeats,2020.2.10,59.964272860612105,
there,there,,,,,,,,,0,37,37,37,,,,,,,,,,,,,,,957.7082471232861,None,"['t', 'h', 'e', 'r', 'e']",1,"[0.715680368244648, 0.8517390713095665, 0.9876677310094237, 1.1476708832196891, 1.3157050530426204]",957.7082471232861,None,957.7085578165483,957.8083152589388,s212,001,2023_Mar_22_1430,test_typingtask_norepeats,2020.2.10,59.964272860612105,
zibja,zibja,,,,,,,,,0,38,38,38,,,,,,,,,,,,,,,963.2083713081665,None,"['z', 'i', 'b', 'j', 'a']",1,"[1.0555789093486965, 1.1594704701565206, 1.3594748093746603, 1.5195837579667568, 1.6554966871626675]",963.2083713081665,None,963.2083837872837,963.3083751080558,s212,001,2023_Mar_22_1430,test_typingtask_norepeats,2020.2.10,59.964272860612105,
heond,heond,,,,,,,,,0,39,39,39,,,,,,,,,,,,,,,968.7083870223723,None,"['h', 'e', 'o', 'n', 'd']",1,"[0.7955618263222277, 0.9235795810818672, 1.0594651573337615, 1.2115679210983217, 1.363568743225187]",968.7083870223723,None,968.7085192355793,968.8085897872224,s212,001,2023_Mar_22_1430,test_typingtask_norepeats,2020.2.10,59.964272860612105,
therm,therm,,,,,,,,,0,40,40,40,,,,,,,,,,,,,,,974.2084806440398,None,"['t', 'h', 'e', 'm']",0,"[0.6394897713325918, 0.7433784320019186, 0.8793905982747674, 1.0074882879853249]",974.2084806440398,None,974.208314128546,974.3083747942001,s212,001,2023_Mar_22_1430,test_typingtask_norepeats,2020.2.10,59.964272860612105,
tithe,tithe,,,,,,,,,0,41,41,41,,,,,,,,,,,,,,,979.7250682869926,None,"['t', 'i', 't', 'h', 'e']",1,"[0.7948501473292708, 0.9307882701978087, 1.0587810790166259, 1.2668676902540028, 1.3948976192623377]",979.7250682869926,None,979.7251820353325,979.8252766500227,s212,001,2023_Mar_22_1430,test_typingtask_norepeats,2020.2.10,59.964272860612105,
zibja,zibja,,,,,,,,,0,42,42,42,,,,,,,,,,,,,,,985.2252860269509,None,"['z', 'i', 'b', 'j', 'a']",1,"[1.1345590925775468, 1.2467226940207183, 1.4307284238748252, 1.58269071765244, 1.734568985644728]",985.2252860269509,None,985.2250873822253,985.3250099620782,s212,001,2023_Mar_22_1430,test_typingtask_norepeats,2020.2.10,59.964272860612105,
vodka,vodka,,,,,,,,,0,43,43,43,,,,,,,,,,,,,,,990.7253156993538,None,"['v', 'o', 'd', 'k', 'a']",1,"[0.9866532259620726, 1.0986427259631455, 1.2826516372151673, 1.4265256910584867, 1.6186547209508717]",990.7253156993538,None,990.7251172585878,990.8250695201568,s212,001,2023_Mar_22_1430,test_typingtask_norepeats,2020.2.10,59.964272860612105,
would,would,,,,,,,,,0,44,44,44,,,,,,,,,,,,,,,996.225139610935,None,"['w', 'o', 'u', 'l', 'd']",1,"[0.7348096081987023, 0.8627203879877925, 1.0547109739854932, 1.294823442120105, 1.4387291860766709]",996.225139610935,None,996.2250205803197,996.3250951590016,s212,001,2023_Mar_22_1430,test_typingtask_norepeats,2020.2.10,59.964272860612105,
kremp,kremp,,,,,,,,,0,45,45,45,,,,,,,,,,,,,,,1001.7251045969315,None,"['k', 'r', 'e', 'm', 'p']",1,"[1.026742157060653, 1.1388215962797403, 1.3228642661124468, 1.434745125938207, 1.6427509281784296]",1001.7251045969315,None,1001.7251808162313,1001.8252662750892,s212,001,2023_Mar_22_1430,test_typingtask_norepeats,2020.2.10,59.964272860612105,
lucky,lucky,,,,,,,,,0,46,46,46,,,,,,,,,,,,,,,1007.2249577902257,None,"['l', 'u', 'c', 'x', 'k', 'y']",0,"[0.7670017252676189, 0.9589611459523439, 1.1030179071240127, 1.1109165051020682, 1.183008692227304, 1.526891085319221]",1007.2249577902257,None,1007.225114096282,1007.3249672730453,s212,001,2023_Mar_22_1430,test_typingtask_norepeats,2020.2.10,59.964272860612105,
would,would,,,,,,,,,0,47,47,47,,,,,,,,,,,,,,,1012.7250394960865,None,"['w', 'o', 'u', 'l', 'd']",1,"[0.738875248003751, 0.8268013461492956, 1.0107999150641263, 1.234811533242464, 1.330876898020506]",1012.7250394960865,None,1012.7251028952654,1012.8251628722064,s212,001,2023_Mar_22_1430,test_typingtask_norepeats,2020.2.10,59.964272860612105,
cooed,cooed,,,,,,,,,0,48,48,48,,,,,,,,,,,,,,,1018.2250248133205,None,"['c', 'o', 'o', 'e', 'd']",1,"[0.8708181092515588, 1.0628164950758219, 1.2389351050369442, 1.3829207634553313, 1.606922559440136]",1018.2250248133205,None,1018.225361759169,1018.3255406222306,s212,001,2023_Mar_22_1430,test_typingtask_norepeats,2020.2.10,59.964272860612105,
kremp,kremp,,,,,,,,,0,49,49,49,,,,,,,,,,,,,,,1023.725057723932,None,"['k', 'r', 'e', 'm', 'p']",1,"[0.9147988697513938, 1.0588687090203166, 1.2348000588826835, 1.378945592790842, 1.5468811388127506]",1023.725057723932,None,1023.7252351505216,1023.8251514630392,s212,001,2023_Mar_22_1430,test_typingtask_norepeats,2020.2.10,59.964272860612105,
tithe,tithe,,,,,,,,,0,50,50,50,,,,,,,,,,,,,,,1029.2251768233255,None,"['t', 'i', 't', 'h', 'e']",1,"[0.7747793789021671, 0.9426737669855356, 1.046758599113673, 1.2067798990756273, 1.342655154876411]",1029.2251768233255,None,1029.2250291233418,1029.3252502931282,s212,001,2023_Mar_22_1430,test_typingtask_norepeats,2020.2.10,59.964272860612105,
druze,druze,,,,,,,,,0,51,51,51,,,,,,,,,,,,,,,1034.725317119155,None,"['d', 'r', 'u', 'z', 'e']",1,"[1.0105992602184415, 1.202661159913987, 1.410543239209801, 1.5625557550229132, 1.8026722059585154]",1034.725317119155,None,1034.7250807814767,1034.8251404762268,s212,001,2023_Mar_22_1430,test_typingtask_norepeats,2020.2.10,59.964272860612105,
belly,belly,,,,,,,,,0,52,52,52,,,,,,,,,,,,,,,1040.2251180191524,None,"['b', 'e', 'l', 'l', 'y']",1,"[1.0627610059455037, 1.1747313188388944, 1.3267651479691267, 1.502778999041766, 1.6147787291556597]",1040.2251180191524,None,1040.22531773136,1040.3249523742124,s212,001,2023_Mar_22_1430,test_typingtask_norepeats,2020.2.10,59.964272860612105,
druze,druze,,,,,,,,,0,53,53,53,,,,,,,,,,,,,,,1045.7250716350973,None,"['d', 'r', 'u', 'z', 'e']",1,"[1.0988418119959533, 1.3308766768313944, 1.4669316168874502, 1.63478759303689, 1.8668801221065223]",1045.7250716350973,None,1045.7253014914227,1045.8250116803683,s212,001,2023_Mar_22_1430,test_typingtask_norepeats,2020.2.10,59.964272860612105,
there,there,,,,,,,,,0,54,54,54,,,,,,,,,,,,,,,1051.2252319641411,None,"['t', 'h', 'e', 'r', 'e']",1,"[0.7426218339242041, 0.9027223950251937, 1.0226943609304726, 1.182708322070539, 1.350616272073239]",1051.2252319641411,None,1051.225279447483,1051.3250727062114,s212,001,2023_Mar_22_1430,test_typingtask_norepeats,2020.2.10,59.964272860612105,
belly,belly,,,,,,,,,0,55,55,55,,,,,,,,,,,,,,,1056.72524108598,None,"['b', 'e', 'l', 'l', 'y']",1,"[0.7146151978522539, 0.8586737317964435, 1.034611428156495, 1.2027313211001456, 1.3466795207932591]",1056.72524108598,None,1056.7251215063502,1056.8253067759797,s212,001,2023_Mar_22_1430,test_typingtask_norepeats,2020.2.10,59.964272860612105,
edthe,edthe,,,,,,,,,0,56,56,56,,,,,,,,,,,,,,,1062.2253648801707,None,"['e', 'r', 'backspace', 'e', 'd', 't', 'h', 'e']",0,"[0.7186130941845477, 0.7186130941845477, 1.7586280712857842, 1.9424999780021608, 2.1504782270640135, 2.3666032142937183, 2.494585013948381, 2.6385473469272256]",1062.2253648801707,None,1062.2256673815195,1062.325293132104,s212,001,2023_Mar_22_1430,test_typingtask_norepeats,2020.2.10,59.964272860612105,
buddy,buddy,,,,,,,,,0,57,57,57,,,,,,,,,,,,,,,1067.7253063172102,None,"['b', 'u', 'd', 'd', 'y']",1,"[1.026566008105874, 1.8425286398269236, 2.170666353777051, 2.338545690756291, 2.466754036024213]",1067.7253063172102,None,1067.7252042594832,1067.825676475186,s212,001,2023_Mar_22_1430,test_typingtask_norepeats,2020.2.10,59.964272860612105,
pykka,pykka,,,,,,,,,0,58,58,58,,,,,,,,,,,,,,,1073.225161712151,None,"['p', 'y', 'k', 'k', 'a']",1,"[1.0787430289201438, 1.3427252448163927, 1.606796404812485, 1.7827577251009643, 1.9587196307256818]",1073.225161712151,None,1073.2250778492075,1073.3254147032276,s212,001,2023_Mar_22_1430,test_typingtask_norepeats,2020.2.10,59.964272860612105,
tithe,tithe,,,,,,,,,0,59,59,59,,,,,,,,,,,,,,,1078.7251148759387,None,"['t', 'i', 't', 'h', 'e']",1,"[0.7468726341612637, 0.8747933940030634, 0.9948379569686949, 1.1708512683399022, 1.3228389001451433]",1078.7251148759387,None,1078.7253405785655,1078.8251381809823,s212,001,2023_Mar_22_1430,test_typingtask_norepeats,2020.2.10,59.964272860612105,
there,there,,,,,,,,,0,60,60,60,,,,,,,,,,,,,,,1084.22535538394,None,"['t', 'h', 'e', 'r', 'e']",1,"[0.6625158111564815, 0.7666053390130401, 0.9026186638511717, 1.06254379497841, 1.2466025198809803]",1084.22535538394,None,1084.2252044382972,1084.3252327740192,s212,001,2023_Mar_22_1430,test_typingtask_norepeats,2020.2.10,59.964272860612105,
think,think,,,,,,,,,0,61,61,61,,,,,,,,,,,,,,,1089.7251481879503,None,"['t', 'h', 'n', 'k']",0,"[0.6988068423233926, 0.810690417420119, 1.506820812355727, 1.6427482049912214]",1089.7251481879503,None,1089.7252892561723,1089.8252841420472,s212,001,2023_Mar_22_1430,test_typingtask_norepeats,2020.2.10,59.964272860612105,
faqir,faqir,,,,,,,,,0,62,62,62,,,,,,,,,,,,,,,1095.2418162543327,None,"['f', 'a', 'q', 'i', 'r']",1,"[1.0460590599104762, 1.2381503316573799, 1.5661552087403834, 1.694026393815875, 2.006023501046002]",1095.2418162543327,None,1095.2419857711998,1095.3422674550675,s212,001,2023_Mar_22_1430,test_typingtask_norepeats,2020.2.10,59.964272860612105,
heond,heond,,,,,,,,,0,63,63,63,,,,,,,,,,,,,,,1100.7419298882596,None,"['h', 'e', 'o', 'n', 'd']",1,"[0.7620179578661919, 0.8979639196768403, 1.002042468637228, 1.193929341621697, 1.3380280639976263]",1100.7419298882596,None,1100.7419115075377,1100.8417947823182,s212,001,2023_Mar_22_1430,test_typingtask_norepeats,2020.2.10,59.964272860612105,
zibja,zibja,,,,,,,,,0,64,64,64,,,,,,,,,,,,,,,1106.2419902430847,None,"['z', 'i', 'b', 'j', 'a']",1,"[0.9420366757549345, 1.053988222964108, 1.221880146767944, 1.397867287043482, 1.5098536387085915]",1106.2419902430847,None,1106.2418738811743,1106.3417752212845,s212,001,2023_Mar_22_1430,test_typingtask_norepeats,2020.2.10,59.964272860612105,
buddy,buddy,,,,,,,,,0,65,65,65,,,,,,,,,,,,,,,1111.7419112431817,None,"['b', 'u', 'd', 'd', 'y']",1,"[0.9459840338677168, 1.1460023019462824, 1.3540651719085872, 1.529995164833963, 1.6820026999339461]",1111.7419112431817,None,1111.7419404414018,1111.841778543312,s212,001,2023_Mar_22_1430,test_typingtask_norepeats,2020.2.10,59.964272860612105,
faqir,faqir,,,,,,,,,0,66,66,66,,,,,,,,,,,,,,,1117.2416838053614,None,"['f', 'a', 'w', 'i', 'r']",0,"[1.0622585210949183, 1.2542610131204128, 1.5581569448113441, 1.7422896530479193, 1.9905907921493053]",1117.2416838053614,None,1117.2419661165682,1117.3429641281255,s212,001,2023_Mar_22_1430,test_typingtask_norepeats,2020.2.10,59.964272860612105,
therm,therm,,,,,,,,,0,67,67,67,,,,,,,,,,,,,,,1122.7585459533148,None,"['t', 'h', 'e', 'r', 'm']",1,"[0.7213741997256875, 0.8414239981211722, 0.9854235919192433, 1.1293362057767808, 1.2894284599460661]",1122.7585459533148,None,1122.758845571289,1122.858755871188,s212,001,2023_Mar_22_1430,test_typingtask_norepeats,2020.2.10,59.964272860612105,
pykka,pykka,,,,,,,,,0,68,68,68,,,,,,,,,,,,,,,1128.2586312582716,None,"['p', 'y', 'k', 'k', 'a']",1,"[0.8052265006117523, 1.5172178489156067, 1.9092500526458025, 2.0932296556420624, 2.2853468358516693]",1128.2586312582716,None,1128.2586927962025,1128.3586426503025,s212,001,2023_Mar_22_1430,test_typingtask_norepeats,2020.2.10,59.964272860612105,
zibja,zibja,,,,,,,,,0,69,69,69,,,,,,,,,,,,,,,1133.7586789862253,None,"['z', 'i', 'b', 'j', 'a']",1,"[1.0891818241216242, 1.2492789733223617, 1.4091624850407243, 1.5852806600742042, 1.75329674128443]",1133.7586789862253,None,1133.7585606093985,1133.8584818951786,s212,001,2023_Mar_22_1430,test_typingtask_norepeats,2020.2.10,59.964272860612105,
about,about,,,,,,,,,0,70,70,70,,,,,,,,,,,,,,,1139.275342386216,None,"['a', 'b', 'o', 'u', 't']",1,"[0.7645418802276254, 0.9165715421549976, 1.0605164761655033, 1.2285939981229603, 1.3966049342416227]",1139.275342386216,None,1139.2754777412397,1139.37517188536,s212,001,2023_Mar_22_1430,test_typingtask_norepeats,2020.2.10,59.964272860612105,
puppy,puppy,,,,,,,,,0,71,71,71,,,,,,,,,,,,,,,1144.77538440004,None,"['o', 'u', 'o', 'o', 'y']",0,"[0.8165858848951757, 1.064469839911908, 1.5365941021591425, 1.7605047700926661, 2.5764686367474496]",1144.77538440004,None,1144.7753513155972,1144.8751493352465,s212,001,2023_Mar_22_1430,test_typingtask_norepeats,2020.2.10,59.964272860612105,
lucky,lucky,,,,,,,,,0,72,72,72,,,,,,,,,,,,,,,1150.2755186711438,None,"['l', 'u', 'c', 'k', 'y']",1,"[1.0124314101412892, 1.2204613438807428, 1.3724563661962748, 1.4684731871820986, 1.7564775571227074]",1150.2755186711438,None,1150.2752920355183,1150.375337085221,s212,001,2023_Mar_22_1430,test_typingtask_norepeats,2020.2.10,59.964272860612105,
kremp,kremp,,,,,,,,,0,73,73,73,,,,,,,,,,,,,,,1155.7754250010476,None,"['k', 'r', 'e', 'm', 'p']",1,"[1.1764553859829903, 1.3045505681075156, 1.4885435719043016, 1.6245420989580452, 1.832538653165102]",1155.7754250010476,None,1155.7753913233523,1155.875415132381,s212,001,2023_Mar_22_1430,test_typingtask_norepeats,2020.2.10,59.964272860612105,
think,think,,,,,,,,,0,74,74,74,,,,,,,,,,,,,,,1161.275275895372,None,"['t', 'h', 'i', 'n', 'k']",1,"[0.9326739930547774, 1.0207069469615817, 1.180680579971522, 1.3085765172727406, 1.4925696309655905]",1161.275275895372,None,1161.2753666065169,1161.3752855663188,s212,001,2023_Mar_22_1430,test_typingtask_norepeats,2020.2.10,59.964272860612105,
edthe,edthe,,,,,,,,,0,75,75,75,,,,,,,,,,,,,,,1166.776674838271,None,"['e', 'd', 't', 'h', 'e']",1,"[0.7432604976929724, 0.9672973649576306, 1.1751762358471751, 1.2952649700455368, 1.4312885720282793]",1166.776674838271,None,1166.7766784023029,None,s212,001,2023_Mar_22_1430,test_typingtask_norepeats,2020.2.10,59.964272860612105,
champ,champ,,,,,,,,,0,76,76,76,,,,,,,,,,,,,,,1172.2752929460257,None,"['c', 'h', 'a', 'm', 'p']",1,"[0.6765493839047849, 0.7806144850328565, 0.9085580171085894, 1.0125770471058786, 1.2046733568422496]",1172.2752929460257,None,1172.2753633254674,1172.3753273123875,s212,001,2023_Mar_22_1430,test_typingtask_norepeats,2020.2.10,59.964272860612105,
pykka,pykka,,,,,,,,,0,77,77,77,,,,,,,,,,,,,,,1177.7752417600714,None,"['p', 'y', 'k', 'k', 'a']",1,"[0.680679390206933, 0.9687417689710855, 1.288732083979994, 1.4646731852553785, 1.6806957381777465]",1177.7752417600714,None,1177.7753665525001,1177.8752845092677,s212,001,2023_Mar_22_1430,test_typingtask_norepeats,2020.2.10,59.964272860612105,
champ,champ,,,,,,,,,0,78,78,78,,,,,,,,,,,,,,,1183.275376928039,None,"['c', 'h', 'a', 'm', 'p']",1,"[0.780585141852498, 0.8764766547828913, 1.0366086806170642, 1.12447541160509, 1.324606484733522]",1183.275376928039,None,1183.275349538168,1183.3756228070706,s212,001,2023_Mar_22_1430,test_typingtask_norepeats,2020.2.10,59.964272860612105,
cooed,cooed,,,,,,,,,0,79,79,79,,,,,,,,,,,,,,,1188.7753809043206,None,"['c', 'o', 'o', 'e', 'd']",1,"[0.6805757218971848, 0.9446489149704576, 1.120590706821531, 1.248538440093398, 1.4966054069809616]",1188.7753809043206,None,1188.7753970062827,1188.8755675153807,s212,001,2023_Mar_22_1430,test_typingtask_norepeats,2020.2.10,59.964272860612105,
there,there,,,,,,,,,0,80,80,80,,,,,,,,,,,,,,,1194.2920545409434,None,"['t', 'h', 'e', 'r', 'e']",1,"[0.6597995539195836, 0.7638497389853001, 0.9158487631939352, 1.1078683291561902, 1.2518685590475798]",1194.2920545409434,None,1194.2918147285004,1194.3916866080835,s212,001,2023_Mar_22_1430,test_typingtask_norepeats,2020.2.10,59.964272860612105,
vodka,vodka,,,,,,,,,0,81,81,81,,,,,,,,,,,,,,,1199.79208782129,None,"['v', 'o', 'd', 'k', 'a']",1,"[0.7758402428589761, 0.9597580246627331, 1.1038812370970845, 1.2318529970943928, 1.4477618066594005]",1199.79208782129,None,1199.7921164844652,1199.8920746063814,s212,001,2023_Mar_22_1430,test_typingtask_norepeats,2020.2.10,59.964272860612105,
theme,theme,,,,,,,,,0,82,82,82,,,,,,,,,,,,,,,1205.2922915150411,None,"['t', 'h', 'e', 'm', 'e']",1,"[0.6916616577655077, 0.8276271587237716, 0.9796334030106664, 1.1236675106920302, 1.235671835951507]",1205.2922915150411,None,1205.2920108985622,1205.3920029220171,s212,001,2023_Mar_22_1430,test_typingtask_norepeats,2020.2.10,59.964272860612105,
about,about,,,,,,,,,0,83,83,83,,,,,,,,,,,,,,,1210.7921911403537,None,"['a', 'b', 'o', 'u', 't']",1,"[0.719790194183588, 0.7836303180083632, 0.975716704968363, 1.1117159579880536, 1.1836477778851986]",1210.7921911403537,None,1210.7920347203967,1210.8920699772425,s212,001,2023_Mar_22_1430,test_typingtask_norepeats,2020.2.10,59.964272860612105,
belly,belly,,,,,,,,,0,84,84,84,,,,,,,,,,,,,,,1216.2920153993182,None,"['b', 'e', 'l', 'l', 'y']",1,"[0.7559407972730696, 0.8918632650747895, 1.0598288821056485, 1.2598398211412132, 1.4519326998852193]",1216.2920153993182,None,1216.2921878042166,1216.3919234033674,s212,001,2023_Mar_22_1430,test_typingtask_norepeats,2020.2.10,59.964272860612105,
cheer,cheer,,,,,,,,,0,85,85,85,,,,,,,,,,,,,,,1221.7920273481868,None,"['c', 'h', 'e', 'e', 'r']",1,"[1.0559357940219343, 1.1919452850706875, 1.3359023299999535, 1.5518954573199153, 1.7598247253336012]",1221.7920273481868,None,1221.7921299565119,1221.8922231281176,s212,001,2023_Mar_22_1430,test_typingtask_norepeats,2020.2.10,59.964272860612105,
lucky,lucky,,,,,,,,,0,86,86,86,,,,,,,,,,,,,,,1227.2919693361036,None,"['l', 'u', 'c', 'k', 'y']",1,"[0.9399983482435346, 1.1399399349465966, 1.2999553652480245, 1.4519935678690672, 1.6678793770261109]",1227.2919693361036,None,1227.2919526834507,1227.392135933973,s212,001,2023_Mar_22_1430,test_typingtask_norepeats,2020.2.10,59.964272860612105,
haole,haole,,,,,,,,,0,87,87,87,,,,,,,,,,,,,,,1232.7920200680383,None,"['h', 'a', 'o', 'l', 'e']",1,"[0.8478387910872698, 0.935957572888583, 1.079914125148207, 1.2798510272987187, 1.4399491702206433]",1232.7920200680383,None,1232.792099328572,1232.8921379582025,s212,001,2023_Mar_22_1430,test_typingtask_norepeats,2020.2.10,59.964272860612105,
vodka,vodka,,,,,,,,,0,88,88,88,,,,,,,,,,,,,,,1238.2919811531901,None,"['v', 'o', 'd', 'k', 'a']",1,"[0.7959481556899846, 0.9319743979722261, 1.0999725628644228, 1.259880555793643, 1.4519502860493958]",1238.2919811531901,None,1238.2921975793784,1238.3922622641549,s212,001,2023_Mar_22_1430,test_typingtask_norepeats,2020.2.10,59.964272860612105,
puppy,puppy,,,,,,,,,0,89,89,89,,,,,,,,,,,,,,,1243.7926499871537,None,"['p', 'u', 'p', 'p', 'y']",1,"[0.679246393032372, 0.8873000042513013, 1.1033392972312868, 1.2632868341170251, 1.839306551963091]",1243.7926499871537,None,1243.792030514544,1243.8926043082029,s212,001,2023_Mar_22_1430,test_typingtask_norepeats,2020.2.10,59.964272860612105,
cheer,cheer,,,,,,,,,0,90,90,90,,,,,,,,,,,,,,,1249.2921884469688,None,"['c', 'h', 'e', 'e', 'r']",1,"[0.851783940102905, 0.9637484941631556, 1.1877440623939037, 1.3877215264365077, 1.5957261682488024]",1249.2921884469688,None,1249.2920575922822,1249.3921684003435,s212,001,2023_Mar_22_1430,test_typingtask_norepeats,2020.2.10,59.964272860612105,
theme,theme,,,,,,,,,0,91,91,91,,,,,,,,,,,,,,,1254.7922148332,None,"['t', 'h', 'e', 'm', 'e']",1,"[0.7596347280777991, 0.8797733811661601, 1.0316408802755177, 1.1356949801556766, 1.2556733721867204]",1254.7922148332,None,1254.791974160215,1254.8925021500327,s212,001,2023_Mar_22_1430,test_typingtask_norepeats,2020.2.10,59.964272860612105,
pykka,pykka,,,,,,,,,0,92,92,92,,,,,,,,,,,,,,,1260.2921754042618,None,"['p', 'y', 'u', 'k', 'k', 'a']",0,"[0.7318046540021896, 0.9877551752142608, 1.019799964968115, 1.5957044321112335, 1.7717433171346784, 1.9157915711402893]",1260.2921754042618,None,1260.2922040595208,1260.3921225811355,s212,001,2023_Mar_22_1430,test_typingtask_norepeats,2020.2.10,59.964272860612105,
buddy,buddy,,,,,,,,,0,93,93,93,,,,,,,,,,,,,,,1265.7920846873894,None,"['b', 'u', 'd', 'd', 'y']",1,"[0.8478119261562824, 1.071874916087836, 1.2957499329932034, 1.4718289142474532, 1.6477686641737819]",1265.7920846873894,None,1265.7922075673473,1265.8919884571806,s212,001,2023_Mar_22_1430,test_typingtask_norepeats,2020.2.10,59.964272860612105,
heond,heond,,,,,,,,,0,94,94,94,,,,,,,,,,,,,,,1271.2921995711513,None,"['h', 'e', 'o', 'n', 'd']",1,"[0.8037364240735769, 0.9316805680282414, 1.0517003978602588, 1.2117277742363513, 1.3557527028024197]",1271.2921995711513,None,1271.2922453473789,1271.3923203223385,s212,001,2023_Mar_22_1430,test_typingtask_norepeats,2020.2.10,59.964272860612105,
think,think,,,,,,,,,0,95,95,95,,,,,,,,,,,,,,,1276.792276894208,None,"['t', 'h', 'n', 'k']",0,"[0.7116986690089107, 0.8316339966841042, 1.1916912458837032, 1.5116825788281858]",1276.792276894208,None,1276.7920839864296,1276.8924551201053,s212,001,2023_Mar_22_1430,test_typingtask_norepeats,2020.2.10,59.964272860612105,
vanru,vanru,,,,,,,,,0,96,96,96,,,,,,,,,,,,,,,1282.292073468212,None,"['v', 'a', 'n', 'r', 'u']",1,"[1.2279509999789298, 1.3718977021053433, 1.4677677610889077, 1.6918887151405215, 1.803903539199382]",1282.292073468212,None,1282.2922043482308,1282.3920436622575,s212,001,2023_Mar_22_1430,test_typingtask_norepeats,2020.2.10,59.964272860612105,
cheer,cheer,,,,,,,,,0,97,97,97,,,,,,,,,,,,,,,1287.792579248082,None,"['c', 'h', 'e', 'e', 'r']",1,"[0.775255274027586, 0.903391226194799, 1.0633738040924072, 1.2953679761849344, 1.4953375053592026]",1287.792579248082,None,1287.792207387602,1287.8924109321088,s212,001,2023_Mar_22_1430,test_typingtask_norepeats,2020.2.10,59.964272860612105,
cooed,cooed,,,,,,,,,0,98,98,98,,,,,,,,,,,,,,,1293.2921852492727,None,"['c', 'o', 'o', 'e', 'd']",1,"[0.691708330065012, 0.8997740731574595, 1.075744153931737, 1.2277786983177066, 1.4596534939482808]",1293.2921852492727,None,1293.2922499173787,1293.3922151392326,s212,001,2023_Mar_22_1430,test_typingtask_norepeats,2020.2.10,59.964272860612105,
cheer,cheer,,,,,,,,,0,99,99,99,,,,,,,,,,,,,,,1298.7921035201289,None,"['c', 'h', 'e', 'e', 'r']",1,"[0.6638319417834282, 0.8077640868723392, 0.9837534017860889, 1.1758271930739284, 1.3597333449870348]",1298.7921035201289,None,1298.7922648683657,1298.892108017113,s212,001,2023_Mar_22_1430,test_typingtask_norepeats,2020.2.10,59.964272860612105,
faqir,faqir,,,,,,,,,0,100,100,100,,,,,,,,,,,,,,,1304.2921767323278,None,"['f', 'a', 'q', 'i', 'r']",1,"[0.9157983432523906, 1.059660173021257, 1.4037977559491992, 1.5477203852497041, 1.7637375220656395]",1304.2921767323278,None,1304.2921374685598,1304.3922138940543,s212,001,2023_Mar_22_1430,test_typingtask_norepeats,2020.2.10,59.964272860612105,
belly,belly,,,,,,,,,0,101,101,101,,,,,,,,,,,,,,,1309.7927371603437,None,"['b', 'l', 'l', 'y']",0,"[0.7751000449061394, 1.0712306778877974, 1.2632074118591845, 1.4391836440190673]",1309.7927371603437,None,1309.7924447691535,1309.8923916742206,s212,001,2023_Mar_22_1430,test_typingtask_norepeats,2020.2.10,59.964272860612105,
think,think,,,,,,,,,0,102,102,102,,,,,,,,,,,,,,,1315.30881731119,None,"['t', 'h', 'i', 'n', 'k']",1,"[0.7710798229090869, 0.8670845199376345, 1.0352282668463886, 1.2590182851999998, 1.4110366250388324]",1315.30881731119,None,1315.3088817362209,1315.4089024229906,s212,001,2023_Mar_22_1430,test_typingtask_norepeats,2020.2.10,59.964272860612105,
cooed,cooed,,,,,,,,,0,103,103,103,,,,,,,,,,,,,,,1320.8090557833202,None,"['c', 'o', 'o', 'e', 'd']",1,"[0.8547958368435502, 1.1189165022224188, 1.2948955232277513, 1.4308081548660994, 1.6468755500391126]",1320.8090557833202,None,1320.8091798935552,1320.9090068722144,s212,001,2023_Mar_22_1430,test_typingtask_norepeats,2020.2.10,59.964272860612105,
about,about,,,,,,,,,0,104,104,104,,,,,,,,,,,,,,,1326.3089207382873,None,"['a', 'b', 'o', 'u', 't']",1,"[0.7069284860044718, 0.7949708299711347, 0.9710204009898007, 1.1149357450194657, 1.2670139111578465]",1326.3089207382873,None,1326.30886115958,1326.4088465292007,s212,001,2023_Mar_22_1430,test_typingtask_norepeats,2020.2.10,59.964272860612105,
haole,haole,,,,,,,,,0,105,105,105,,,,,,,,,,,,,,,1331.8091332991607,None,"['h', 'a', 'o', 'l', 'e']",1,"[0.8147655711509287, 0.9108215668238699, 1.0467922259122133, 1.2468065610155463, 1.3667246801778674]",1331.8091332991607,None,1331.808933406463,1331.9089780100621,s212,001,2023_Mar_22_1430,test_typingtask_norepeats,2020.2.10,59.964272860612105,
vanru,vanru,,,,,,,,,0,106,106,106,,,,,,,,,,,,,,,1337.3091720463708,None,"['v', 'a', 'n', 'r', 'u']",1,"[0.8347118990495801, 0.9787080651149154, 1.114779767114669, 1.2908301940187812, 1.4747051377780735]",1337.3091720463708,None,1337.309089040244,1337.4091361481696,s212,001,2023_Mar_22_1430,test_typingtask_norepeats,2020.2.10,59.964272860612105,
therm,therm,,,,,,,,,0,107,107,107,,,,,,,,,,,,,,,1342.8089318349957,None,"['t', 'h', 'e', 'r', 'm']",1,"[0.8390450631268322, 0.9349675802513957, 1.1030446533113718, 1.2629526969976723, 1.4229759303852916]",1342.8089318349957,None,1342.809003437264,1342.9093453572132,s212,001,2023_Mar_22_1430,test_typingtask_norepeats,2020.2.10,59.964272860612105,
theme,theme,,,,,,,,,0,108,108,108,,,,,,,,,,,,,,,1348.3088015392423,None,"['t', 'h', 'e', 'm', 'e']",1,"[0.7151286569423974, 0.8270312841050327, 1.0031129070557654, 1.1551621197722852, 1.2750499648973346]",1348.3088015392423,None,1348.3089975955431,1348.4088380630128,s212,001,2023_Mar_22_1430,test_typingtask_norepeats,2020.2.10,59.964272860612105,
haole,haole,,,,,,,,,0,109,109,109,,,,,,,,,,,,,,,1353.808960052207,None,"['h', 'a', 'o', 'l', 'e']",1,"[0.9909562170505524, 1.0949798189103603, 1.2549137780442834, 1.4629125650972128, 1.5989755461923778]",1353.808960052207,None,1353.8089196661954,1353.9089993312955,s212,001,2023_Mar_22_1430,test_typingtask_norepeats,2020.2.10,59.964272860612105,
kremp,kremp,,,,,,,,,0,110,110,110,,,,,,,,,,,,,,,1359.308813569136,None,"['k', 'r', 'e', 'm', 'p']",1,"[0.9551544273272157, 1.0991539023816586, 1.2751716179773211, 1.379037206992507, 1.587117035407573]",1359.308813569136,None,1359.3090171072167,1359.408780789934,s212,001,2023_Mar_22_1430,test_typingtask_norepeats,2020.2.10,59.964272860612105,
pykka,pykka,,,,,,,,,0,111,111,111,,,,,,,,,,,,,,,1364.8091383590363,None,"['p', 'y', 'k', 'k', 'a']",1,"[0.7028344548307359, 0.9427146972157061, 1.2627349998801947, 1.4387708841823041, 1.5908294362016022]",1364.8091383590363,None,1364.809013304161,1364.9090172750875,s212,001,2023_Mar_22_1430,test_typingtask_norepeats,2020.2.10,59.964272860612105,
puppy,puppy,,,,,,,,,0,112,112,112,,,,,,,,,,,,,,,1370.3089734562673,None,"['p', 'u', 'p', 'p', 'y']",1,"[0.7309541781432927, 0.9469803688116372, 1.1629038909450173, 1.3389980210922658, 1.4748912891373038]",1370.3089734562673,None,1370.3089514694643,1370.408951540012,s212,001,2023_Mar_22_1430,test_typingtask_norepeats,2020.2.10,59.964272860612105,
cheer,cheer,,,,,,,,,0,113,113,113,,,,,,,,,,,,,,,1375.8089723163284,None,"['c', 'h', 'e', 'e', 'r']",1,"[0.7989947171881795, 0.9353276831097901, 1.1829547453671694, 1.374933590181172, 1.5748703083954751]",1375.8089723163284,None,1375.8088261032012,1375.9089880082756,s212,001,2023_Mar_22_1430,test_typingtask_norepeats,2020.2.10,59.964272860612105,
vanru,vanru,,,,,,,,,0,114,114,114,,,,,,,,,,,,,,,1381.3088164073415,None,"['v', 'a', 'n', 'r', 'u']",1,"[1.1310591660439968, 1.2910442240536213, 1.4351013978011906, 1.579134872648865, 1.7310711308382452]",1381.3088164073415,None,1381.3087050023955,1381.4089836650528,s212,001,2023_Mar_22_1430,test_typingtask_norepeats,2020.2.10,59.964272860612105,
about,about,,,,,,,,,0,115,115,115,,,,,,,,,,,,,,,1386.8089944403619,None,"['a', 'b', 'o', 'u', 't']",1,"[0.7588453190401196, 0.8469315990805626, 0.9989424622617662, 1.1508557121269405, 1.278960696887225]",1386.8089944403619,None,1386.8089709862602,1386.90938577801,s212,001,2023_Mar_22_1430,test_typingtask_norepeats,2020.2.10,59.964272860612105,
cooed,cooed,,,,,,,,,0,116,116,116,,,,,,,,,,,,,,,1392.3089994043112,None,"['c', 'o', 'o', 'e', 'd']",1,"[0.7949493783526123, 1.0349962362088263, 1.2109267730265856, 1.3628585943952203, 1.570980102289468]",1392.3089994043112,None,1392.3091659414117,1392.408819981385,s212,001,2023_Mar_22_1430,test_typingtask_norepeats,2020.2.10,59.964272860612105,
puppy,puppy,,,,,,,,,0,117,117,117,,,,,,,,,,,,,,,1397.8092042240314,None,"['p', 'u', 'p', 'p', 'y']",1,"[0.7746682711876929, 1.0066546350717545, 1.2467144569382071, 1.398693785071373, 1.5187640548683703]",1397.8092042240314,None,1397.809134231275,1397.9088484579697,s212,001,2023_Mar_22_1430,test_typingtask_norepeats,2020.2.10,59.964272860612105,
kremp,kremp,,,,,,,,,0,118,118,118,,,,,,,,,,,,,,,1403.30915439222,None,"['k', 'r', 'e', 'm', 'p']",1,"[0.9307418940588832, 1.0107454778626561, 1.186828525736928, 1.338756978046149, 1.506761553697288]",1403.30915439222,None,1403.3092055524235,1403.4095026729628,s212,001,2023_Mar_22_1430,test_typingtask_norepeats,2020.2.10,59.964272860612105,
belly,belly,,,,,,,,,0,119,119,119,,,,,,,,,,,,,,,1408.8091676891781,None,"['b', 'e', 'l', 'l', 'y']",1,"[0.7907992410473526, 0.9106902703642845, 1.0788065940141678, 1.270781623199582, 1.3988160244189203]",1408.8091676891781,None,1408.8089129583445,1408.909019316081,s212,001,2023_Mar_22_1430,test_typingtask_norepeats,2020.2.10,59.964272860612105,
