string,corrAns,practice_trials.thisRepN,practice_trials.thisTrialN,practice_trials.thisN,practice_trials.thisIndex,trials_1.thisRepN,trials_1.thisTrialN,trials_1.thisN,trials_1.thisIndex,trials_2.thisRepN,trials_2.thisTrialN,trials_2.thisN,trials_2.thisIndex,key_resp_0.keys,key_resp_0.corr,key_resp_0.rt,text_1.started,text_1.stopped,key_resp_1.keys,key_resp_1.corr,key_resp_1.rt,key_resp_1.started,key_resp_1.stopped,sound_1A_1.started,sound_1A_1.stopped,break_time.started,break_time.stopped,text_2.started,text_2.stopped,key_resp_2.keys,key_resp_2.corr,key_resp_2.rt,key_resp_2.started,key_resp_2.stopped,sound_1A_2.started,sound_1A_2.stopped,participant,session,date,expName,psychopyVersion,frameRate,
fresh,fresh,0,0,0,0,,,,,,,,,"['f', 'r', 'e', 's']",0,"[2.3397372119361535, 2.587774954037741, 2.6918463399633765, 2.8198662539944053]",,,,,,,,,,,,,,,,,,,,,s217_04122023,001,2023_Apr_12_1615,test_typingtask_norepeats,2020.2.10,59.943286938280934,
dream,dream,0,1,1,1,,,,,,,,,"['d', 'r', 'e', 'a', 'm']",1,"[1.0175671010510996, 1.2336595950182527, 1.3056365420343354, 1.3936081130523235, 1.5456767360446975]",,,,,,,,,,,,,,,,,,,,,s217_04122023,001,2023_Apr_12_1615,test_typingtask_norepeats,2020.2.10,59.943286938280934,
slime,slime,0,2,2,2,,,,,,,,,"['s', 'l', 'i', 'm', 'e']",1,"[0.9334914610954002, 1.069513745023869, 1.277563997078687, 1.4214782720664516, 1.5093992560869083]",,,,,,,,,,,,,,,,,,,,,s217_04122023,001,2023_Apr_12_1615,test_typingtask_norepeats,2020.2.10,59.943286938280934,
would,would,,,,,0,0,0,0,,,,,,,,1099.6267652030801,None,"['w', 'o', 'u', 'l', 'd']",1,"[0.7233081510057673, 0.827495924080722, 0.9153929650783539, 1.0512856940040365, 1.0913960160687566]",1099.6267652030801,None,1099.6208331614034,1099.720901802997,,,,,,,,,,,,s217_04122023,001,2023_Apr_12_1615,test_typingtask_norepeats,2020.2.10,59.943286938280934,
vodka,vodka,,,,,0,1,1,1,,,,,,,,1105.1207006500335,None,"['v', 'o', 'd', 'k', 'a']",1,"[1.1654493259266019, 1.2854539579711854, 1.4054515429306775, 1.5254589969990775, 1.5894516599364579]",1105.1207006500335,None,1105.1208406183869,1105.2209299419774,,,,,,,,,,,,s217_04122023,001,2023_Apr_12_1615,test_typingtask_norepeats,2020.2.10,59.943286938280934,
kremp,kremp,,,,,0,2,2,2,,,,,,,,1110.620626692078,None,"['k', 'r', 'e', 'm', 'p']",1,"[1.0335098030045629, 1.1135156420059502, 1.2014512410387397, 1.249444892979227, 1.3854303499683738]",1110.620626692078,None,1110.620658105472,1110.7212404770544,,,,,,,,,,,,s217_04122023,001,2023_Apr_12_1615,test_typingtask_norepeats,2020.2.10,59.943286938280934,
theme,theme,,,,,0,3,3,3,,,,,,,,1116.1206880270038,None,"['t', 'h', 'e', 'm', 'e']",1,"[0.741363589069806, 0.8374751140363514, 0.8773378930054605, 1.0293675060383976, 1.093365447013639]",1116.1206880270038,None,1116.1208555274643,1116.2208100979915,,,,,,,,,,,,s217_04122023,001,2023_Apr_12_1615,test_typingtask_norepeats,2020.2.10,59.943286938280934,
druze,druze,,,,,0,4,4,4,,,,,,,,1121.6206961940043,None,"['d', 'r', 'u', 'z', 'e']",1,"[0.7933364079799503, 0.9855519640259445, 1.1535001350566745, 1.2414380440022796, 1.3853406920097768]",1121.6206961940043,None,1121.620834970381,1121.7209601590876,,,,,,,,,,,,s217_04122023,001,2023_Apr_12_1615,test_typingtask_norepeats,2020.2.10,59.943286938280934,
theme,theme,,,,,0,5,5,5,,,,,,,,1127.1207012759987,None,"['t', 'h', 'e', 'm', 'e']",1,"[0.6614344510016963, 0.7654526359401643, 0.8054608829552308, 0.9334753479342908, 0.9655786380171776]",1127.1207012759987,None,1127.1206716764718,1127.2206921760226,,,,,,,,,,,,s217_04122023,001,2023_Apr_12_1615,test_typingtask_norepeats,2020.2.10,59.943286938280934,
about,about,,,,,0,6,6,6,,,,,,,,1132.6209657210857,None,"['a', 'b', 'o', 'u', 't']",1,"[0.609136991086416, 0.7211945520248264, 0.8331891010748222, 0.9371827520662919, 0.9531508450163528]",1132.6209657210857,None,1132.6206226424547,1132.7208349120338,,,,,,,,,,,,s217_04122023,001,2023_Apr_12_1615,test_typingtask_norepeats,2020.2.10,59.943286938280934,
tithe,tithe,,,,,0,7,7,7,,,,,,,,1138.1209898050874,None,"['t', 'i', 't', 'h', 'e']",1,"[0.6851623370312154, 0.7971242250641808, 0.893068730016239, 0.9491404669824988, 1.013149640057236]",1138.1209898050874,None,1138.1206423074473,1138.220612236997,,,,,,,,,,,,s217_04122023,001,2023_Apr_12_1615,test_typingtask_norepeats,2020.2.10,59.943286938280934,
vanru,vanru,,,,,0,8,8,8,,,,,,,,1143.6208317120327,None,"['v', 'a', 'n', 'r', 'u']",1,"[0.8493240459356457, 0.9292203990044072, 1.0493208189727738, 1.1613161580171436, 1.2573390089673921]",1143.6208317120327,None,1143.620845042402,1143.7207024700474,,,,,,,,,,,,s217_04122023,001,2023_Apr_12_1615,test_typingtask_norepeats,2020.2.10,59.943286938280934,
kremp,kremp,,,,,0,9,9,9,,,,,,,,1149.1206883060513,None,"['j', 'r', 'e', 'm', 'p']",0,"[0.9893578550545499, 1.3894278940279037, 1.5093506560660899, 1.6134492009878159, 1.7413463490083814]",1149.1206883060513,None,1149.1209155044053,1149.2206132520223,,,,,,,,,,,,s217_04122023,001,2023_Apr_12_1615,test_typingtask_norepeats,2020.2.10,59.943286938280934,
zibja,zibja,,,,,0,10,10,10,,,,,,,,1154.6208924340317,None,"['z', 'i', 'b', 'j', 'a']",1,"[1.3132307979976758, 1.497270553954877, 1.6571531919762492, 1.8332543389406055, 1.9372512740083039]",1154.6208924340317,None,1154.6209330414422,1154.7208439360838,,,,,,,,,,,,s217_04122023,001,2023_Apr_12_1615,test_typingtask_norepeats,2020.2.10,59.943286938280934,
druze,druze,,,,,0,11,11,11,,,,,,,,1160.120965627022,None,"['d', 'r', 'u', 'z', 'e']",1,"[1.0131514320382848, 1.1731924790656194, 1.3090795910684392, 1.4290890280390158, 1.573080872069113]",1160.120965627022,None,1160.12086583348,1160.2210654270602,,,,,,,,,,,,s217_04122023,001,2023_Apr_12_1615,test_typingtask_norepeats,2020.2.10,59.943286938280934,
vodka,vodka,,,,,0,12,12,12,,,,,,,,1165.6208182270639,None,"['v', 'o', 'd', 'k', 'a']",1,"[0.8172190730692819, 0.9133191939909011, 1.0252958310302347, 1.1053346110275015, 1.1852185010211542]",1165.6208182270639,None,1165.620909058489,1165.7211239680182,,,,,,,,,,,,s217_04122023,001,2023_Apr_12_1615,test_typingtask_norepeats,2020.2.10,59.943286938280934,
belly,belly,,,,,0,13,13,13,,,,,,,,1171.1207265129779,None,"['b', 'e', 'l', 'l', 'y']",1,"[0.7734227160690352, 0.861407203017734, 0.9733890310162678, 1.117319721961394, 1.285424769972451]",1171.1207265129779,None,1171.120869877399,1171.2207061260706,,,,,,,,,,,,s217_04122023,001,2023_Apr_12_1615,test_typingtask_norepeats,2020.2.10,59.943286938280934,
kremp,kremp,,,,,0,14,14,14,,,,,,,,1176.6206721550552,None,"['k', 'r', 'e', 'm', 'p']",1,"[0.9454460000852123, 1.0414997800253332, 1.1455041259760037, 1.1773697839817032, 1.2894057140219957]",1176.6206721550552,None,1176.6207759984536,1176.720757120056,,,,,,,,,,,,s217_04122023,001,2023_Apr_12_1615,test_typingtask_norepeats,2020.2.10,59.943286938280934,
theme,theme,,,,,0,15,15,15,,,,,,,,1182.1206946950406,None,"['t', 'h', 'e', 'm', 'e']",1,"[0.7574722259305418, 0.8694437859812751, 0.9334546779282391, 1.077349633909762, 1.101349648903124]",1182.1206946950406,None,1182.120831784443,1182.2212235199986,,,,,,,,,,,,s217_04122023,001,2023_Apr_12_1615,test_typingtask_norepeats,2020.2.10,59.943286938280934,
puppy,puppy,,,,,0,16,16,16,,,,,,,,1187.6208172399784,None,"['p', 'u', 'p', 'p', 'y']",1,"[0.6493338369764388, 0.817222910001874, 0.9453733039554209, 1.0972805250203237, 1.2253913360182196]",1187.6208172399784,None,1187.6208411544794,1187.720982666011,,,,,,,,,,,,s217_04122023,001,2023_Apr_12_1615,test_typingtask_norepeats,2020.2.10,59.943286938280934,
champ,champ,,,,,0,17,17,17,,,,,,,,1193.120672262041,None,"['c', 'h', 'a', 'm', 'p']",1,"[0.7013691969914362, 0.7894538419786841, 0.8534679599106312, 0.9574810259509832, 1.0694956539664418]",1193.120672262041,None,1193.1208353254478,1193.220688667032,,,,,,,,,,,,s217_04122023,001,2023_Apr_12_1615,test_typingtask_norepeats,2020.2.10,59.943286938280934,
vodka,vodka,,,,,0,18,18,18,,,,,,,,1198.6210721239913,None,"['v', 'o', 'd', 'k', 'a']",1,"[0.8009729250334203, 0.873077683034353, 0.9850637700874358, 1.0810055990004912, 1.1610277170548216]",1198.6210721239913,None,1198.6207325474825,1198.7206859170692,,,,,,,,,,,,s217_04122023,001,2023_Apr_12_1615,test_typingtask_norepeats,2020.2.10,59.943286938280934,
champ,champ,,,,,0,19,19,19,,,,,,,,1204.120895236032,None,"['c', 'h', 'a', 'm', 'p']",1,"[0.7332875189604238, 0.8612311990000308, 0.9092478149104863, 1.0532647270010784, 1.1491894259816036]",1204.120895236032,None,1204.120576313464,1204.2208956449758,,,,,,,,,,,,s217_04122023,001,2023_Apr_12_1615,test_typingtask_norepeats,2020.2.10,59.943286938280934,
about,about,,,,,0,20,20,20,,,,,,,,1209.6208156240173,None,"['a', 'b', 'o', 'u', 't']",1,"[0.5932714169612154, 0.7133051309501752, 0.8172278159763664, 0.9613400079542771, 1.0172293180366978]",1209.6208156240173,None,1209.620865791454,1209.7206504620844,,,,,,,,,,,,s217_04122023,001,2023_Apr_12_1615,test_typingtask_norepeats,2020.2.10,59.943286938280934,
therm,therm,,,,,0,21,21,21,,,,,,,,1215.1209949920885,None,"['t', 'h', 'e', 'r', 'm']",1,"[0.5973295449512079, 0.6930388560285792, 0.7571147020207718, 0.8531193309463561, 0.9410805510124192]",1215.1209949920885,None,1215.121132180444,1215.2206447740318,,,,,,,,,,,,s217_04122023,001,2023_Apr_12_1615,test_typingtask_norepeats,2020.2.10,59.943286938280934,
think,think,,,,,0,22,22,22,,,,,,,,1220.620983210043,None,"['t', 'h', 'i', 'n', 'k']",1,"[0.6810676219174638, 0.7851520099211484, 0.8571837019408122, 1.0252577499486506, 1.089178247959353]",1220.620983210043,None,1220.6209685874637,1220.720853112056,,,,,,,,,,,,s217_04122023,001,2023_Apr_12_1615,test_typingtask_norepeats,2020.2.10,59.943286938280934,
zibja,zibja,,,,,0,23,23,23,,,,,,,,1226.1209589890204,None,"['z', 'i', 'b', 'j', 'a']",1,"[0.8612227339763194, 0.9972039519343525, 1.1331901779631153, 1.3251643870025873, 1.4612127470318228]",1226.1209589890204,None,1226.120902182418,1226.2211664150236,,,,,,,,,,,,s217_04122023,001,2023_Apr_12_1615,test_typingtask_norepeats,2020.2.10,59.943286938280934,
would,would,,,,,0,24,24,24,,,,,,,,1231.6208278280683,None,"['w', 'o', 'u', 'l', 'd']",1,"[0.6332774849142879, 0.7372399179730564, 0.8253205969231203, 0.9772146249888465, 0.9852095770183951]",1231.6208278280683,None,1231.6209003424738,1231.7209924570052,,,,,,,,,,,,s217_04122023,001,2023_Apr_12_1615,test_typingtask_norepeats,2020.2.10,59.943286938280934,
faqir,faqir,,,,,0,25,25,25,,,,,,,,1237.1212251260877,None,"['f', 'a', 'q', 'i', 'r']",1,"[0.8128993690479547, 0.9008171400055289, 1.1888958050403744, 1.4849024229915813, 1.5969084940152243]",1237.1212251260877,None,1237.1208528714487,1237.2211994300596,,,,,,,,,,,,s217_04122023,001,2023_Apr_12_1615,test_typingtask_norepeats,2020.2.10,59.943286938280934,
edthe,edthe,,,,,0,26,26,26,,,,,,,,1242.6211428230163,None,"['e', 'd', 't', 'h', 'e']",1,"[0.8489932330558077, 1.0410081211011857, 1.1849160389974713, 1.3049958450719714, 1.3849294480169192]",1242.6211428230163,None,1242.6212071444606,1242.7211877140217,,,,,,,,,,,,s217_04122023,001,2023_Apr_12_1615,test_typingtask_norepeats,2020.2.10,59.943286938280934,
vanru,vanru,,,,,0,27,27,27,,,,,,,,1248.1207455469994,None,"['v', 'a', 'n', 'r', 'u']",1,"[0.6772978899534792, 0.7493745259707794, 0.9012973370263353, 1.0133937819628045, 1.157423097989522]",1248.1207455469994,None,1248.1211194234202,1248.2209286959842,,,,,,,,,,,,s217_04122023,001,2023_Apr_12_1615,test_typingtask_norepeats,2020.2.10,59.943286938280934,
faqir,faqir,,,,,0,28,28,28,,,,,,,,1253.6208807370858,None,"['f', 'q', 'a', 'i', 'r']",0,"[0.9612787070218474, 1.4171871530124918, 2.201160721015185, 2.449252696009353, 2.5612889209296554]",1253.6208807370858,None,1253.6210228994023,1253.7209078500746,,,,,,,,,,,,s217_04122023,001,2023_Apr_12_1615,test_typingtask_norepeats,2020.2.10,59.943286938280934,
think,think,,,,,0,29,29,29,,,,,,,,1259.121168343001,None,"['t', 'h', 'i', 'n', 'k']",1,"[0.7569959609536454, 0.9008734310045838, 1.020971257938072, 1.1569865370402113, 1.2529816259630024]",1259.121168343001,None,1259.121272016433,1259.221283860039,,,,,,,,,,,,s217_04122023,001,2023_Apr_12_1615,test_typingtask_norepeats,2020.2.10,59.943286938280934,
champ,champ,,,,,0,30,30,30,,,,,,,,1264.6207622510847,None,"['c', 'h', 'a', 'm', 'p']",1,"[0.6414008759893477, 0.7453994749812409, 0.7853391179814935, 0.9534113339614123, 1.05740905192215]",1264.6207622510847,None,1264.6210186444223,1264.7209211040754,,,,,,,,,,,,s217_04122023,001,2023_Apr_12_1615,test_typingtask_norepeats,2020.2.10,59.943286938280934,
cooed,cooed,,,,,0,31,31,31,,,,,,,,1270.1209249100648,None,"['c', 'o', 'o', 'e', 'd']",1,"[0.6611634750152007, 0.7811656669946387, 0.9492267080349848, 1.0612817640649155, 1.2371885660104454]",1270.1209249100648,None,1270.1208692264045,1270.2210649410263,,,,,,,,,,,,s217_04122023,001,2023_Apr_12_1615,test_typingtask_norepeats,2020.2.10,59.943286938280934,
heond,heond,,,,,0,32,32,32,,,,,,,,1275.6210715210764,None,"['h', 'e', 'o', 'n', 'd']",1,"[0.9690808850573376, 1.0570985859958455, 1.1530302800238132, 1.2490460349945351, 1.3450658940710127]",1275.6210715210764,None,1275.620894046384,1275.7210195059888,,,,,,,,,,,,s217_04122023,001,2023_Apr_12_1615,test_typingtask_norepeats,2020.2.10,59.943286938280934,
kremp,kremp,,,,,0,33,33,33,,,,,,,,1281.1211408620002,None,"['k', 'r', 'e', 'm', 'p']",1,"[1.0210121679119766, 1.133010959951207, 1.237015749909915, 1.292905295966193, 1.4210456039290875]",1281.1211408620002,None,1281.1208575824276,1281.221226762049,,,,,,,,,,,,s217_04122023,001,2023_Apr_12_1615,test_typingtask_norepeats,2020.2.10,59.943286938280934,
cheer,cheer,,,,,0,34,34,34,,,,,,,,1286.6211983640678,None,"['c', 'h', 'e', 'e', 'r']",1,"[0.7288543100003153, 0.848950510029681, 0.9369054019916803, 1.1048443149775267, 1.1849357730243355]",1286.6211983640678,None,1286.6211604144191,1286.7208578790305,,,,,,,,,,,,s217_04122023,001,2023_Apr_12_1615,test_typingtask_norepeats,2020.2.10,59.943286938280934,
cooed,cooed,,,,,0,35,35,35,,,,,,,,1292.1208958760835,None,"['c', 'o', 'o', 'e', 'd']",1,"[0.7011295090196654, 0.8291373570682481, 0.9811821259791031, 1.0851775460178033, 1.2612879340304062]",1292.1208958760835,None,1292.1209547644248,1292.220826341072,,,,,,,,,,,,s217_04122023,001,2023_Apr_12_1615,test_typingtask_norepeats,2020.2.10,59.943286938280934,
there,there,,,,,0,36,36,36,,,,,,,,1297.6210576660233,None,"['t', 'h', 'e', 'r', 'e']",1,"[0.6330848800716922, 0.7530468089971691, 0.8250108869979158, 0.8970463289879262, 0.9769491570768878]",1297.6210576660233,None,1297.621076788404,1297.7209207010455,,,,,,,,,,,,s217_04122023,001,2023_Apr_12_1615,test_typingtask_norepeats,2020.2.10,59.943286938280934,
cooed,cooed,,,,,0,37,37,37,,,,,,,,1303.1211451850832,None,"['c', 'o', 'o', 'e', 'd']",1,"[0.5809509009122849, 0.7088970869081095, 0.8449396529467776, 0.9489676649682224, 1.1089224428869784]",1303.1211451850832,None,1303.121082364465,1303.2210197270615,,,,,,,,,,,,s217_04122023,001,2023_Apr_12_1615,test_typingtask_norepeats,2020.2.10,59.943286938280934,
edthe,edthe,,,,,0,38,38,38,,,,,,,,1308.6208734480897,None,"['e', 'd', 't', 'h', 'e']",1,"[0.7931645539356396, 1.0092394170351326, 1.1532738809473813, 1.249297690927051, 1.3132362349424511]",1308.6208734480897,None,1308.621064298437,1308.7212896089768,,,,,,,,,,,,s217_04122023,001,2023_Apr_12_1615,test_typingtask_norepeats,2020.2.10,59.943286938280934,
faqir,faqir,,,,,0,39,39,39,,,,,,,,1314.1209571140353,None,"['f', 'a', 'q', 'i', 'r']",1,"[0.6452574480790645, 1.2050705050351098, 1.4691738990368322, 1.6531297550536692, 1.7491625259863213]",1314.1209571140353,None,1314.1210726344725,1314.2211176040582,,,,,,,,,,,,s217_04122023,001,2023_Apr_12_1615,test_typingtask_norepeats,2020.2.10,59.943286938280934,
vodka,vodka,,,,,0,40,40,40,,,,,,,,1319.6209889260354,None,"['c', 'o', 'd', 'k', 'a']",0,"[0.7051709899678826, 0.7930498219793662, 1.3532325689448044, 1.449176447931677, 1.529108808026649]",1319.6209889260354,None,1319.621142744436,1319.7212850659853,,,,,,,,,,,,s217_04122023,001,2023_Apr_12_1615,test_typingtask_norepeats,2020.2.10,59.943286938280934,
vanru,vanru,,,,,0,41,41,41,,,,,,,,1325.1208594220225,None,"['v', 'a', 'n', 'r', 'u']",1,"[0.9413011870346963, 1.045242237043567, 1.2212400649441406, 1.309214113978669, 1.4372935489518568]",1325.1208594220225,None,1325.1209535354283,1325.2210892750882,,,,,,,,,,,,s217_04122023,001,2023_Apr_12_1615,test_typingtask_norepeats,2020.2.10,59.943286938280934,
pykka,pykka,,,,,0,42,42,42,,,,,,,,1330.62091099401,None,"['p', 'y', 'k', 'k', 'a']",1,"[0.7692220830358565, 1.0732391369529068, 1.4332369689363986, 1.5692194619914517, 1.6811433479888365]",1330.62091099401,None,1330.6210108234081,1330.721170742996,,,,,,,,,,,,s217_04122023,001,2023_Apr_12_1615,test_typingtask_norepeats,2020.2.10,59.943286938280934,
zibja,zibja,,,,,0,43,43,43,,,,,,,,1336.1208019930637,None,"['z', 'i', 'b', 'j', 'a']",1,"[1.2133756469702348, 1.373362550046295, 1.5413638059981167, 1.7253813670249656, 1.8532802229747176]",1336.1208019930637,None,1336.1211267014733,1336.2210467180703,,,,,,,,,,,,s217_04122023,001,2023_Apr_12_1615,test_typingtask_norepeats,2020.2.10,59.943286938280934,
edthe,edthe,,,,,0,44,44,44,,,,,,,,1341.6210905719781,None,"['e', 'd', 't', 'h', 'e']",1,"[0.8810159210115671, 1.0810053730383515, 1.2490282909711823, 1.3690641300054267, 1.4250730669591576]",1341.6210905719781,None,1341.6211874224246,1341.720974433003,,,,,,,,,,,,s217_04122023,001,2023_Apr_12_1615,test_typingtask_norepeats,2020.2.10,59.943286938280934,
belly,belly,,,,,0,45,45,45,,,,,,,,1347.1213059989968,None,"['b', 'e', 'l', 'l', 't', 'y']",0,"[0.7968212569830939, 0.9247535020112991, 1.0207344189984724, 1.1807868970790878, 1.3808052180102095, 1.3888019809965044]",1347.1213059989968,None,1347.1209015954519,1347.22103609005,,,,,,,,,,,,s217_04122023,001,2023_Apr_12_1615,test_typingtask_norepeats,2020.2.10,59.943286938280934,
lucky,lucky,,,,,0,46,46,46,,,,,,,,1352.6209509780165,None,"['l', 'u', 'y', 'c', 'k', 'y']",0,"[0.8010919829830527, 1.0252131540328264, 1.033202340011485, 1.4650820039678365, 1.5851568969665095, 1.793091373052448]",1352.6209509780165,None,1352.620997478487,1352.7211426850408,,,,,,,,,,,,s217_04122023,001,2023_Apr_12_1615,test_typingtask_norepeats,2020.2.10,59.943286938280934,
think,think,,,,,0,47,47,47,,,,,,,,1358.1212321240455,None,"['t', 'h', 'i', 'n', 'k']",1,"[0.7649051049957052, 0.92490058101248, 1.0449445360573009, 1.2208810120355338, 1.348928053979762]",1358.1212321240455,None,1358.1210886674235,1358.2212164000375,,,,,,,,,,,,s217_04122023,001,2023_Apr_12_1615,test_typingtask_norepeats,2020.2.10,59.943286938280934,
pykka,pykka,,,,,0,48,48,48,,,,,,,,1363.6211820590543,None,"['p', 'y', 'k', 'k', 'a']",1,"[0.7689304910600185, 1.0489304800285026, 1.3449942839797586, 1.480869484017603, 1.5928597480524331]",1363.6211820590543,None,1363.621144157485,1363.7211440000683,,,,,,,,,,,,s217_04122023,001,2023_Apr_12_1615,test_typingtask_norepeats,2020.2.10,59.943286938280934,
there,there,,,,,0,49,49,49,,,,,,,,1369.1211855860893,None,"['t', 'h', 'e', 'r', 'e']",1,"[0.6768417039420456, 0.8609554909635335, 0.9328872460173443, 1.0209218059899285, 1.1409630209673196]",1369.1211855860893,None,1369.12135006045,1369.220967535046,,,,,,,,,,,,s217_04122023,001,2023_Apr_12_1615,test_typingtask_norepeats,2020.2.10,59.943286938280934,
buddy,buddy,,,,,0,50,50,50,,,,,,,,1374.6211889180122,None,"['b', 'u', 'd', 'd', 'y']",1,"[0.7689709860133007, 0.8969448719872162, 1.0489595640683547, 1.2088371920399368, 1.304965544026345]",1374.6211889180122,None,1374.6212322664214,1374.7212169499835,,,,,,,,,,,,s217_04122023,001,2023_Apr_12_1615,test_typingtask_norepeats,2020.2.10,59.943286938280934,
cheer,cheer,,,,,0,51,51,51,,,,,,,,1380.1213661630172,None,"['c', 'h', 'e', 'e', 'r']",1,"[0.7166601089993492, 0.908699256950058, 1.0126980709610507, 1.1807231770362705, 1.268761795014143]",1380.1213661630172,None,1380.1213798443787,1380.221290696063,,,,,,,,,,,,s217_04122023,001,2023_Apr_12_1615,test_typingtask_norepeats,2020.2.10,59.943286938280934,
heond,heond,,,,,0,52,52,52,,,,,,,,1385.6211674719816,None,"['h', 'e', 'o', 'n', 'd']",1,"[0.8410010499646887, 0.9529931719880551, 1.0329646579921246, 1.1289602719480172, 1.232977045001462]",1385.6211674719816,None,1385.6215332474094,1385.7214918250684,,,,,,,,,,,,s217_04122023,001,2023_Apr_12_1615,test_typingtask_norepeats,2020.2.10,59.943286938280934,
buddy,buddy,,,,,0,53,53,53,,,,,,,,1391.1210462549934,None,"['b', 'u', 'd', 'd', 'y']",1,"[0.8210673070279881, 0.9810447669588029, 1.1170004870509729, 1.2691042970400304, 1.3571047600125894]",1391.1210462549934,None,1391.1212251473917,1391.221319705015,,,,,,,,,,,,s217_04122023,001,2023_Apr_12_1615,test_typingtask_norepeats,2020.2.10,59.943286938280934,
tithe,tithe,,,,,0,54,54,54,,,,,,,,1396.6210822110297,None,"['t', 'i', 't', 'h', 'e']",1,"[0.9690513570094481, 1.0890991219785064, 1.2090088090626523, 1.305067167035304, 1.4009566970635206]",1396.6210822110297,None,1396.6210492894752,1396.7211746140383,,,,,,,,,,,,s217_04122023,001,2023_Apr_12_1615,test_typingtask_norepeats,2020.2.10,59.943286938280934,
vodka,vodka,,,,,0,55,55,55,,,,,,,,1402.1209791660076,None,"['v', 'o', 'd', 'k', 'a']",1,"[0.7810732109937817, 0.8930745429825038, 1.0290656989673153, 1.1491713690338656, 1.2771011940203607]",1402.1209791660076,None,1402.1211276694667,1402.2213444660883,,,,,,,,,,,,s217_04122023,001,2023_Apr_12_1615,test_typingtask_norepeats,2020.2.10,59.943286938280934,
therm,therm,,,,,0,56,56,56,,,,,,,,1407.621295562014,None,"['t', 'h', 'e', 'r', 'm']",1,"[0.6808481620391831, 0.816745423944667, 0.9048522480297834, 0.9849137699929997, 1.0647587679559365]",1407.621295562014,None,1407.621162022464,1407.721133160987,,,,,,,,,,,,s217_04122023,001,2023_Apr_12_1615,test_typingtask_norepeats,2020.2.10,59.943286938280934,
lucky,lucky,,,,,0,57,57,57,,,,,,,,1413.1212869740557,None,"['l', 'u', 'c', 'k', 'y']",1,"[0.7248608859954402, 0.9728802889585495, 1.1408803949598223, 1.2767541620414704, 1.500760635943152]",1413.1212869740557,None,1413.1211176514626,1413.2213263410376,,,,,,,,,,,,s217_04122023,001,2023_Apr_12_1615,test_typingtask_norepeats,2020.2.10,59.943286938280934,
zibja,zibja,,,,,0,58,58,58,,,,,,,,1418.6213926270138,None,"['z', 'i', 'b', 'j', 'a']",1,"[0.8807025399291888, 1.0247245809296146, 1.176652709953487, 1.3766928559634835, 1.5047676869435236]",1418.6213926270138,None,1418.6210185633972,1418.7211163290776,,,,,,,,,,,,s217_04122023,001,2023_Apr_12_1615,test_typingtask_norepeats,2020.2.10,59.943286938280934,
cooed,cooed,,,,,0,59,59,59,,,,,,,,1424.121385398088,None,"['c', 'o', 'e', 'e', 'd']",0,"[0.7567245559766889, 0.8687490168958902, 1.0207837029593065, 1.1727776819607243, 1.3487304849550128]",1424.121385398088,None,1424.1209863224067,1424.2211914670188,,,,,,,,,,,,s217_04122023,001,2023_Apr_12_1615,test_typingtask_norepeats,2020.2.10,59.943286938280934,
tithe,tithe,,,,,0,60,60,60,,,,,,,,1429.6213082440663,None,"['t', 'i', 't', 'h', 'e']",1,"[0.7207393830176443, 0.8568681370234117, 0.9528611950809136, 1.0647823750041425, 1.128829826018773]",1429.6213082440663,None,1429.6211747654015,1429.7211615700508,,,,,,,,,,,,s217_04122023,001,2023_Apr_12_1615,test_typingtask_norepeats,2020.2.10,59.943286938280934,
think,think,,,,,0,61,61,61,,,,,,,,1435.1212726259837,None,"['t', 'h', 'i', 'n', 'k']",1,"[0.6927963540656492, 0.8128610900603235, 0.908764612977393, 1.0528629350010306, 1.1408282750053331]",1435.1212726259837,None,1435.121490296442,1435.220963025,,,,,,,,,,,,s217_04122023,001,2023_Apr_12_1615,test_typingtask_norepeats,2020.2.10,59.943286938280934,
cheer,cheer,,,,,0,62,62,62,,,,,,,,1440.621393479989,None,"['c', 'h', 'e', 'e', 'r']",1,"[0.8407844679895788, 0.9926516489358619, 1.0727703759912401, 1.2407713489374146, 1.3207659700419754]",1440.621393479989,None,1440.6212304293877,1440.7211459740065,,,,,,,,,,,,s217_04122023,001,2023_Apr_12_1615,test_typingtask_norepeats,2020.2.10,59.943286938280934,
belly,belly,,,,,0,63,63,63,,,,,,,,1446.1214297870174,None,"['b', 'e', 'l', 'l', 'y']",1,"[0.8446791400201619, 0.9887265469878912, 1.084672783035785, 1.252721577999182, 1.4606173139763996]",1446.1214297870174,None,1446.1213990324177,1446.221343467012,,,,,,,,,,,,s217_04122023,001,2023_Apr_12_1615,test_typingtask_norepeats,2020.2.10,59.943286938280934,
lucky,lucky,,,,,0,64,64,64,,,,,,,,1451.6214869660325,None,"['l', 'u', 'c', 'k', 'y']",1,"[0.7606268000090495, 1.0165411110501736, 1.1686437480384484, 1.2966448429506272, 1.496664762031287]",1451.6214869660325,None,1451.621671882458,1451.7213138210354,,,,,,,,,,,,s217_04122023,001,2023_Apr_12_1615,test_typingtask_norepeats,2020.2.10,59.943286938280934,
there,there,,,,,0,65,65,65,,,,,,,,1457.1212176299887,None,"['t', 'h', 'e', 'r', 'e']",1,"[0.6849081990076229, 0.7729387099388987, 0.8529454249655828, 0.9408308579586446, 1.020823414903134]",1457.1212176299887,None,1457.1212765563978,1457.2215147300158,,,,,,,,,,,,s217_04122023,001,2023_Apr_12_1615,test_typingtask_norepeats,2020.2.10,59.943286938280934,
puppy,puppy,,,,,0,66,66,66,,,,,,,,1462.6211661690613,None,"['p', 'u', 'p', 'p', 'y']",1,"[0.6410006149671972, 0.8249103940324858, 0.9609465979738161, 1.1288655999815091, 1.2890012440038845]",1462.6211661690613,None,1462.621304374421,1462.7213132790057,,,,,,,,,,,,s217_04122023,001,2023_Apr_12_1615,test_typingtask_norepeats,2020.2.10,59.943286938280934,
heond,heond,,,,,0,67,67,67,,,,,,,,1468.1212105820887,None,"['h', 'e', 'o', 'n', 'd']",1,"[0.7329233390046284, 0.8688924540765584, 0.9489393980475143, 1.0529206140199676, 1.1409087320789695]",1468.1212105820887,None,1468.1213306944119,1468.2213453140575,,,,,,,,,,,,s217_04122023,001,2023_Apr_12_1615,test_typingtask_norepeats,2020.2.10,59.943286938280934,
druze,druze,,,,,0,68,68,68,,,,,,,,1473.6213114419952,None,"['d', 'r', 'u', 'z', 'e']",1,"[0.7368046109331772, 0.9448661919450387, 1.1127273619640619, 1.2488497350132093, 1.4568066329229623]",1473.6213114419952,None,1473.6212397813797,1473.7216698250268,,,,,,,,,,,,s217_04122023,001,2023_Apr_12_1615,test_typingtask_norepeats,2020.2.10,59.943286938280934,
cheer,cheer,,,,,0,69,69,69,,,,,,,,1479.1212982620345,None,"['c', 'h', 'e', 'e', 'r']",1,"[0.6208020379999653, 0.7408674610778689, 0.8288592370226979, 0.9968283399939537, 1.0847462430829182]",1479.1212982620345,None,1479.1212275484577,1479.2211858690716,,,,,,,,,,,,s217_04122023,001,2023_Apr_12_1615,test_typingtask_norepeats,2020.2.10,59.943286938280934,
pykka,pykka,,,,,0,70,70,70,,,,,,,,1484.6211311570369,None,"['p', 'y', 'k', 'k', 'a', 's']",0,"[0.7050169690046459, 0.9369982329662889, 1.2330141749698669, 1.3609256090130657, 1.45704107102938, 2.560966252000071]",1484.6211311570369,None,1484.6213111773832,1484.721055863076,,,,,,,,,,,,s217_04122023,001,2023_Apr_12_1615,test_typingtask_norepeats,2020.2.10,59.943286938280934,
think,think,,,,,0,71,71,71,,,,,,,,1490.1215203490574,None,"['t', 'h', 'i', 'n', 'k']",1,"[0.8765213839942589, 0.9565225950209424, 1.0606500250287354, 1.196605553966947, 1.2845794159220532]",1490.1215203490574,None,1490.1211136274505,1490.2209955020808,,,,,,,,,,,,s217_04122023,001,2023_Apr_12_1615,test_typingtask_norepeats,2020.2.10,59.943286938280934,
haole,haole,,,,,0,72,72,72,,,,,,,,1495.6214637489757,None,"['h', 'a', 'o', 'l', 'e']",1,"[0.8486564970808104, 0.9205795950256288, 1.064630858018063, 1.2727141140494496, 1.3367905881023034]",1495.6214637489757,None,1495.6213443414308,1495.7214335170574,,,,,,,,,,,,s217_04122023,001,2023_Apr_12_1615,test_typingtask_norepeats,2020.2.10,59.943286938280934,
about,about,,,,,0,73,73,73,,,,,,,,1501.1213481170125,None,"['a', 'b', 'o', 'u', 't']",1,"[0.7006971020018682, 0.8207019430119544, 0.9488007080508396, 1.1086930769961327, 1.2288149780360982]",1501.1213481170125,None,1501.121152454405,1501.221309104003,,,,,,,,,,,,s217_04122023,001,2023_Apr_12_1615,test_typingtask_norepeats,2020.2.10,59.943286938280934,
puppy,puppy,,,,,0,74,74,74,,,,,,,,1506.621191426064,None,"['p', 'u', 'p', 'p', 'y']",1,"[0.6249369740253314, 0.792852928978391, 0.9369343110593036, 1.1128634969936684, 1.2969394890824333]",1506.621191426064,None,1506.6214236404048,1506.7210637250682,,,,,,,,,,,,s217_04122023,001,2023_Apr_12_1615,test_typingtask_norepeats,2020.2.10,59.943286938280934,
tithe,tithe,,,,,0,75,75,75,,,,,,,,1512.1215767620597,None,"['t', 'i', 't', 'h', 'e']",1,"[0.68446490901988, 0.7645163489505649, 0.8765339349629357, 0.9325766799738631, 1.0365833409596235]",1512.1215767620597,None,1512.121730638435,1512.2215367460158,,,,,,,,,,,,s217_04122023,001,2023_Apr_12_1615,test_typingtask_norepeats,2020.2.10,59.943286938280934,
therm,therm,,,,,0,76,76,76,,,,,,,,1517.6215404240647,None,"['t', 'h', 'e', 'r', 'm']",1,"[0.6485478049144149, 0.7845475999638438, 0.8645197579171509, 0.9205970539478585, 1.0326084489934146]",1517.6215404240647,None,1517.6219755224884,1517.721667270991,,,,,,,,,,,,s217_04122023,001,2023_Apr_12_1615,test_typingtask_norepeats,2020.2.10,59.943286938280934,
haole,haole,,,,,0,77,77,77,,,,,,,,1523.1221922140103,None,"['h', 'a', 'o', 'l', 'e']",1,"[0.8599204740021378, 0.9399142579641193, 1.091854068916291, 1.291854531969875, 1.379962592967786]",1523.1221922140103,None,1523.121041075443,1523.221155968029,,,,,,,,,,,,s217_04122023,001,2023_Apr_12_1615,test_typingtask_norepeats,2020.2.10,59.943286938280934,
champ,champ,,,,,0,78,78,78,,,,,,,,1528.6217711040517,None,"['c', 'h', 'a', 'm', 'p']",1,"[0.6243542280280963, 0.7363879249896854, 0.8483539799926803, 0.9842554150382057, 1.2163618740160018]",1528.6217711040517,None,1528.6215959074907,1528.7216779279988,,,,,,,,,,,,s217_04122023,001,2023_Apr_12_1615,test_typingtask_norepeats,2020.2.10,59.943286938280934,
would,would,,,,,0,79,79,79,,,,,,,,1534.121286661015,None,"['w', 'o', 'u', 'l', 'd']",1,"[0.5968421469442546, 0.7088697049766779, 0.844850655994378, 0.9888824539957568, 1.0848102369345725]",1534.121286661015,None,1534.121405867394,1534.2213625910226,,,,,,,,,,,,s217_04122023,001,2023_Apr_12_1615,test_typingtask_norepeats,2020.2.10,59.943286938280934,
belly,belly,,,,,0,80,80,80,,,,,,,,1539.6212880290113,None,"['b', 'e', 'l', 'l', 'y']",1,"[0.6567640920402482, 0.7688429900445044, 0.8808472530217841, 1.0408660750836134, 1.22483014408499]",1539.6212880290113,None,1539.6213366454467,1539.7213813810376,,,,,,,,,,,,s217_04122023,001,2023_Apr_12_1615,test_typingtask_norepeats,2020.2.10,59.943286938280934,
kremp,kremp,,,,,0,81,81,81,,,,,,,,1545.1215470100287,None,"['k', 'r', 'e', 'm', 'p']",1,"[0.6685664709657431, 0.7885415169876069, 0.8845388109330088, 0.9805838590255007, 1.1005473069380969]",1545.1215470100287,None,1545.1217113403836,1545.2216563170077,,,,,,,,,,,,s217_04122023,001,2023_Apr_12_1615,test_typingtask_norepeats,2020.2.10,59.943286938280934,
lucky,lucky,,,,,0,82,82,82,,,,,,,,1550.6216200200142,None,"['l', 'u', 'c', 'k', 'y']",1,"[0.6325352960266173, 0.8324968230444938, 0.9764623320661485, 1.080504547106102, 1.280511137098074]",1550.6216200200142,None,1550.6216641134815,1550.7216908630216,,,,,,,,,,,,s217_04122023,001,2023_Apr_12_1615,test_typingtask_norepeats,2020.2.10,59.943286938280934,
champ,champ,,,,,0,83,83,83,,,,,,,,1556.1211635330692,None,"['c', 'h', 'a', 'm', 'p']",1,"[0.8289534349460155, 0.9569175919750705, 1.0369838520418853, 1.1730115410173312, 1.324951110058464]",1556.1211635330692,None,1556.1214150964515,1556.2217345030513,,,,,,,,,,,,s217_04122023,001,2023_Apr_12_1615,test_typingtask_norepeats,2020.2.10,59.943286938280934,
faqir,faqir,,,,,0,84,84,84,,,,,,,,1561.6212934100768,None,"['f', 'a', 'q', 'i', 'r']",1,"[0.9927701810374856, 1.280760115943849, 1.592755300924182, 1.8647567420266569, 2.1287990330019966]",1561.6212934100768,None,1561.6211285204627,1561.7212549350224,,,,,,,,,,,,s217_04122023,001,2023_Apr_12_1615,test_typingtask_norepeats,2020.2.10,59.943286938280934,
therm,therm,,,,,0,85,85,85,,,,,,,,1567.122120852,None,"['t', 'h', 'e', 'r', 'm']",1,"[0.7879904570290819, 0.9319744230015203, 1.019978931057267, 1.1160331200808287, 1.2199694860028103]",1567.122120852,None,1567.1215650674421,1567.2215807869798,,,,,,,,,,,,s217_04122023,001,2023_Apr_12_1615,test_typingtask_norepeats,2020.2.10,59.943286938280934,
would,would,,,,,0,86,86,86,,,,,,,,1572.6216230790596,None,"['w', 'o', 'u', 'l', 'd']",1,"[0.6805062819039449, 0.8085561859188601, 0.9365560919977725, 1.0884978038957343, 1.2004661929095164]",1572.6216230790596,None,1572.6215728044044,1572.7217024620622,,,,,,,,,,,,s217_04122023,001,2023_Apr_12_1615,test_typingtask_norepeats,2020.2.10,59.943286938280934,
therm,therm,,,,,0,87,87,87,,,,,,,,1578.1213732369943,None,"['t', 'h', 'e', 'r', 'm']",1,"[0.7646778259659186, 0.8926715619163588, 0.9727730229496956, 1.0766740839462727, 1.1487105109263211]",1578.1213732369943,None,1578.121576047386,1578.2211954200175,,,,,,,,,,,,s217_04122023,001,2023_Apr_12_1615,test_typingtask_norepeats,2020.2.10,59.943286938280934,
about,about,,,,,0,88,88,88,,,,,,,,1583.6214920680504,None,"['a', 'b', 'o', 'u', 't']",1,"[0.7125607640482485, 0.864540591952391, 0.9925490920431912, 1.1446897799614817, 1.2486585869919509]",1583.6214920680504,None,1583.6213357114466,1583.7211976150284,,,,,,,,,,,,s217_04122023,001,2023_Apr_12_1615,test_typingtask_norepeats,2020.2.10,59.943286938280934,
pykka,pykka,,,,,0,89,89,89,,,,,,,,1589.1215010139858,None,"['p', 'y', 'k', 'k', 'a']",1,"[0.6366513579851016, 0.8845648870337754, 1.1726007349789143, 1.3166051460430026, 1.4366033199476078]",1589.1215010139858,None,1589.1214388104854,1589.2216411910485,,,,,,,,,,,,s217_04122023,001,2023_Apr_12_1615,test_typingtask_norepeats,2020.2.10,59.943286938280934,
haole,haole,,,,,0,90,90,90,,,,,,,,1594.621541102999,None,"['h', 'a', 'o', 'l', 'e']",1,"[0.7765357570024207, 0.8805901629384607, 1.0166106789838523, 1.2005024659447372, 1.2965887390309945]",1594.621541102999,None,1594.6216028184863,1594.7217081380077,,,,,,,,,,,,s217_04122023,001,2023_Apr_12_1615,test_typingtask_norepeats,2020.2.10,59.943286938280934,
druze,druze,,,,,0,91,91,91,,,,,,,,1600.1214117109776,None,"['d', 'r', 'u', 'z', 'e']",1,"[0.6686858739703894, 0.8766124160028994, 1.076670303940773, 1.1966711239656433, 1.3966879989020526]",1600.1214117109776,None,1600.1214286293834,1600.2213765269844,,,,,,,,,,,,s217_04122023,001,2023_Apr_12_1615,test_typingtask_norepeats,2020.2.10,59.943286938280934,
cooed,cooed,,,,,0,92,92,92,,,,,,,,1605.621689755004,None,"['c', 'o', 'o', 'e', 'd']",1,"[0.6965002720244229, 0.8804362280061468, 1.2324350769631565, 1.46435175195802, 1.688464778009802]",1605.621689755004,None,1605.6217287364416,1605.7217138500419,,,,,,,,,,,,s217_04122023,001,2023_Apr_12_1615,test_typingtask_norepeats,2020.2.10,59.943286938280934,
haole,haole,,,,,0,93,93,93,,,,,,,,1611.1213530499954,None,"['h', 'a', 'o', 'l', 'e']",1,"[0.8367377379909158, 0.964762637973763, 1.068757476983592, 1.2687853160314262, 1.3488016390474513]",1611.1213530499954,None,1611.1213579584146,1611.2214108650805,,,,,,,,,,,,s217_04122023,001,2023_Apr_12_1615,test_typingtask_norepeats,2020.2.10,59.943286938280934,
about,about,,,,,0,94,94,94,,,,,,,,1616.6216154680587,None,"['a', 'b', 'o', 'u', 't']",1,"[0.5525183599675074, 0.712479347945191, 0.8484941759379581, 1.0085618969751522, 1.1444874479202554]",1616.6216154680587,None,1616.6217078584014,1616.7217034280766,,,,,,,,,,,,s217_04122023,001,2023_Apr_12_1615,test_typingtask_norepeats,2020.2.10,59.943286938280934,
tithe,tithe,,,,,0,95,95,95,,,,,,,,1622.1212632800452,None,"['t', 'i', 't', 'h', 'e']",1,"[0.9488981280010194, 1.084785282961093, 1.1969033309724182, 1.3168896359857172, 1.4128318149596453]",1622.1212632800452,None,1622.1215372564038,1622.2213537800126,,,,,,,,,,,,s217_04122023,001,2023_Apr_12_1615,test_typingtask_norepeats,2020.2.10,59.943286938280934,
buddy,buddy,,,,,0,96,96,96,,,,,,,,1627.6213225590764,None,"['b', 'u', 'd', 'd', 'y']",1,"[0.8888525100192055, 1.0568495279876515, 1.1847273739986122, 1.3687889599241316, 1.432827936951071]",1627.6213225590764,None,1627.6214908694383,1627.7217786500696,,,,,,,,,,,,s217_04122023,001,2023_Apr_12_1615,test_typingtask_norepeats,2020.2.10,59.943286938280934,
zibja,zibja,,,,,0,97,97,97,,,,,,,,1633.1216742680408,None,"['z', 'i', 'b', 'j', 'a']",1,"[1.212437682901509, 1.3964647519169375, 1.5643768298905343, 1.7724294170038775, 1.916491148993373]",1633.1216742680408,None,1633.1218315834412,1633.2216927739792,,,,,,,,,,,,s217_04122023,001,2023_Apr_12_1615,test_typingtask_norepeats,2020.2.10,59.943286938280934,
vanru,vanru,,,,,0,98,98,98,,,,,,,,1638.6214851840632,None,"['v', 'a', 'n', 'r', 'u']",1,"[0.7765612869989127, 0.8566796269733459, 0.9845627070171759, 1.0966153719928116, 1.1926529159536585]",1638.6214851840632,None,1638.6212585464818,1638.7214932510396,,,,,,,,,,,,s217_04122023,001,2023_Apr_12_1615,test_typingtask_norepeats,2020.2.10,59.943286938280934,
lucky,lucky,,,,,0,99,99,99,,,,,,,,1644.1216619100887,None,"['l', 'u', 'c', 'k', 'y']",1,"[0.6204555650474504, 0.7964961590478197, 0.9003837869968265, 0.980414460063912, 1.1644288550596684]",1644.1216619100887,None,1644.1213564304635,1644.221399629023,,,,,,,,,,,,s217_04122023,001,2023_Apr_12_1615,test_typingtask_norepeats,2020.2.10,59.943286938280934,
there,there,,,,,0,100,100,100,,,,,,,,1649.6215434810147,None,"['t', 'h', 'e', 'r', 'e']",1,"[0.760528028011322, 0.8645084759918973, 0.9286309470189735, 1.0166075880406424, 1.1045316669624299]",1649.6215434810147,None,1649.621450240491,1649.7213938729838,,,,,,,,,,,,s217_04122023,001,2023_Apr_12_1615,test_typingtask_norepeats,2020.2.10,59.943286938280934,
heond,heond,,,,,0,101,101,101,,,,,,,,1655.1216244850075,None,"['h', 'e', 'o', 'n', 'd']",1,"[0.7325242260703817, 0.8045281530357897, 0.9085688299965113, 1.0045289400732145, 1.1325373830040917]",1655.1216244850075,None,1655.1219040504657,1655.2216257320251,,,,,,,,,,,,s217_04122023,001,2023_Apr_12_1615,test_typingtask_norepeats,2020.2.10,59.943286938280934,
druze,druze,,,,,0,102,102,102,,,,,,,,1660.6217592920875,None,"['d', 'r', 'u', 'z', 'e']",1,"[0.6402981569990516, 0.8163924899417907, 0.9602914060233161, 1.1122983259847388, 1.3203911470482126]",1660.6217592920875,None,1660.6218394153984,1660.7216831330443,,,,,,,,,,,,s217_04122023,001,2023_Apr_12_1615,test_typingtask_norepeats,2020.2.10,59.943286938280934,
buddy,buddy,,,,,0,103,103,103,,,,,,,,1666.1219172540586,None,"['b', 'u', 'd', 'd', 'y']",1,"[0.7961626240285113, 0.940055450075306, 1.0521400860743597, 1.2120542720658705, 1.3161594810662791]",1666.1219172540586,None,1666.1219091984676,1666.2220289220568,,,,,,,,,,,,s217_04122023,001,2023_Apr_12_1615,test_typingtask_norepeats,2020.2.10,59.943286938280934,
pykka,pykka,,,,,0,104,104,104,,,,,,,,1671.6219094240805,None,"['p', 'y', 'k', 'k', 'a']",1,"[0.8001342669595033, 0.9761358129326254, 1.3361986830132082, 1.4562505239155143, 1.5841264019254595]",1671.6219094240805,None,1671.6217602804536,1671.7218309310265,,,,,,,,,,,,s217_04122023,001,2023_Apr_12_1615,test_typingtask_norepeats,2020.2.10,59.943286938280934,
vanru,vanru,,,,,0,105,105,105,,,,,,,,1677.122046479024,None,"['v', 'a', 'n', 'r', 'u']",1,"[0.8840111440513283, 0.9640446560224518, 1.1081520719453692, 1.2120106009533629, 1.3320641899481416]",1677.122046479024,None,1677.1218806623947,1677.2218918020371,,,,,,,,,,,,s217_04122023,001,2023_Apr_12_1615,test_typingtask_norepeats,2020.2.10,59.943286938280934,
theme,theme,,,,,0,106,106,106,,,,,,,,1682.6214588329894,None,"['t', 'h', 'e', 'm', 'e']",1,"[0.7447087420150638, 0.856704820995219, 0.9446253220085055, 1.0886072339490056, 1.12867801298853]",1682.6214588329894,None,1682.6214518534252,1682.7214716350427,,,,,,,,,,,,s217_04122023,001,2023_Apr_12_1615,test_typingtask_norepeats,2020.2.10,59.943286938280934,
belly,belly,,,,,0,107,107,107,,,,,,,,1688.1212554529775,None,"['b', 'e', 'l', 'l', 'y']",1,"[0.7968746869591996, 0.9249041728908196, 1.0448413440026343, 1.204909773892723, 1.3328660340048373]",1688.1212554529775,None,1688.121536749415,1688.2213814930292,,,,,,,,,,,,s217_04122023,001,2023_Apr_12_1615,test_typingtask_norepeats,2020.2.10,59.943286938280934,
theme,theme,,,,,0,108,108,108,,,,,,,,1693.6214052300202,None,"['t', 'h', 'e', 'm', 'e']",1,"[0.7766427260357887, 0.9126355180051178, 0.960655584000051, 1.1287726979935542, 1.1527504700934514]",1693.6214052300202,None,1693.6215755913872,1693.7216051929863,,,,,,,,,,,,s217_04122023,001,2023_Apr_12_1615,test_typingtask_norepeats,2020.2.10,59.943286938280934,
edthe,edthe,,,,,0,109,109,109,,,,,,,,1699.1213556730654,None,"['e', 'd', 't', 'h', 'e']",1,"[0.7727732070488855, 0.9567055581137538, 1.1247063550399616, 1.2607067390345037, 1.3887400650419295]",1699.1213556730654,None,1699.1215969044715,1699.2218999710167,,,,,,,,,,,,s217_04122023,001,2023_Apr_12_1615,test_typingtask_norepeats,2020.2.10,59.943286938280934,
faqir,faqir,,,,,0,110,110,110,,,,,,,,1704.6215114980005,None,"['f', 'a', 'q', 'i', 'r']",1,"[0.8085359090473503, 1.056589137064293, 1.5686333699850366, 1.7686190370004624, 1.904651933000423]",1704.6215114980005,None,1704.621928618406,1704.721466022078,,,,,,,,,,,,s217_04122023,001,2023_Apr_12_1615,test_typingtask_norepeats,2020.2.10,59.943286938280934,
puppy,puppy,,,,,0,111,111,111,,,,,,,,1710.121586238034,None,"['p', 'u', 'p', 'p', 'y']",1,"[0.7884682399453595, 0.9564882420236245, 1.0925552289700136, 1.2925293979933485, 1.4844636169727892]",1710.121586238034,None,1710.1213415254606,1710.2215362970019,,,,,,,,,,,,s217_04122023,001,2023_Apr_12_1615,test_typingtask_norepeats,2020.2.10,59.943286938280934,
cheer,cheer,,,,,0,112,112,112,,,,,,,,1715.6218400830403,None,"['c', 'h', 'e', 'e', 'r']",1,"[0.6562334470218047, 0.8243216070113704, 0.9122160979313776, 1.088261083001271, 1.1842041099444032]",1715.6218400830403,None,1715.6215983243892,1715.7218565780204,,,,,,,,,,,,s217_04122023,001,2023_Apr_12_1615,test_typingtask_norepeats,2020.2.10,59.943286938280934,
haole,haole,,,,,0,113,113,113,,,,,,,,1721.1215387020493,None,"['h', 'a', 'o', 'l', 'e']",1,"[0.6765057109296322, 0.7725626239553094, 0.9645512329880148, 1.1565769800217822, 1.2845110290218145]",1721.1215387020493,None,1721.1215407684213,1721.221432459075,,,,,,,,,,,,s217_04122023,001,2023_Apr_12_1615,test_typingtask_norepeats,2020.2.10,59.943286938280934,
would,would,,,,,0,114,114,114,,,,,,,,1726.6215651640669,None,"['w', 'o', 'u', 'l', 'd']",1,"[0.592513021081686, 0.7124887320678681, 0.8325107680866495, 0.976491422043182, 1.0645185330649838]",1726.6215651640669,None,1726.621584012406,1726.7214606360067,,,,,,,,,,,,s217_04122023,001,2023_Apr_12_1615,test_typingtask_norepeats,2020.2.10,59.943286938280934,
edthe,edthe,,,,,0,115,115,115,,,,,,,,1732.1216729449807,None,"['e', 'd', 't', 'h', 'e']",1,"[0.7004063309868798, 0.9084246649872512, 1.0924371109576896, 1.2204216809477657, 1.3324704919941723]",1732.1216729449807,None,1732.121699270443,1732.2213445530506,,,,,,,,,,,,s217_04122023,001,2023_Apr_12_1615,test_typingtask_norepeats,2020.2.10,59.943286938280934,
puppy,puppy,,,,,0,116,116,116,,,,,,,,1737.621625320986,None,"['p', 'u', 'p', 'p', 'y']",1,"[0.6644456870853901, 0.8085413400549442, 0.9525293500628322, 1.12853940599598, 1.2805090850451961]",1737.621625320986,None,1737.6216801474802,1737.7215843580198,,,,,,,,,,,,s217_04122023,001,2023_Apr_12_1615,test_typingtask_norepeats,2020.2.10,59.943286938280934,
heond,heond,,,,,0,117,117,117,,,,,,,,1743.1217870929977,None,"['h', 'e', 'o', 'n', 'd']",1,"[0.8203225809847936, 0.9082693610107526, 0.988374512991868, 1.0842603800119832, 1.1963867859449238]",1743.1217870929977,None,1743.1217219274258,1743.2216151080793,,,,,,,,,,,,s217_04122023,001,2023_Apr_12_1615,test_typingtask_norepeats,2020.2.10,59.943286938280934,
there,there,,,,,0,118,118,118,,,,,,,,1748.6217266480671,None,"['t', 'h', 'e', 'r', 'e']",1,"[0.7203853619284928, 0.8643516800366342, 0.9682905189692974, 1.0804398809559643, 1.1762994169257581]",1748.6217266480671,None,1748.621571746422,1748.7217380370712,,,,,,,,,,,,s217_04122023,001,2023_Apr_12_1615,test_typingtask_norepeats,2020.2.10,59.943286938280934,
buddy,buddy,,,,,0,119,119,119,,,,,,,,1754.1215079060057,None,"['b', 'u', 'd', 'd', 'y']",1,"[1.2686307469848543, 1.500536234001629, 1.6526052090339363, 1.8205875570420176, 1.9246615190058947]",1754.1215079060057,None,1754.1216436134418,1754.2215504209744,,,,,,,,,,,,s217_04122023,001,2023_Apr_12_1615,test_typingtask_norepeats,2020.2.10,59.943286938280934,
pykka,pykka,,,,,,,,,0,0,0,0,,,,,,,,,,,,,1759.6218591150828,None,1824.9286203529919,None,"['p', 'y', 'k', 'k', 'a']",1,"[0.8854251229204237, 1.0694317210000008, 1.3894323399290442, 1.5095057409489527, 1.5975396949797869]",1824.9286203529919,None,1824.9220582114067,1825.0215890980326,s217_04122023,001,2023_Apr_12_1615,test_typingtask_norepeats,2020.2.10,59.943286938280934,
edthe,edthe,,,,,,,,,0,1,1,1,,,,,,,,,,,,,,,1830.4382796779973,None,"['e', 'd', 't', 'h', 'e']",1,"[0.6478109009331092, 0.8238112679682672, 0.9838543779915199, 1.0958344609243795, 1.1518449919531122]",1830.4382796779973,None,1830.4382067484548,1830.538275273051,s217_04122023,001,2023_Apr_12_1615,test_typingtask_norepeats,2020.2.10,59.943286938280934,
vodka,vodka,,,,,,,,,0,2,2,2,,,,,,,,,,,,,,,1835.938682641019,None,"['v', 'o', 'd', 'k', 'a']",1,"[0.7073519069235772, 0.8034290740033612, 0.9314964800141752, 1.0194816859439015, 1.0914223139407113]",1835.938682641019,None,1835.9386991393985,1836.038570181001,s217_04122023,001,2023_Apr_12_1615,test_typingtask_norepeats,2020.2.10,59.943286938280934,
think,think,,,,,,,,,0,3,3,3,,,,,,,,,,,,,,,1841.438383870991,None,"['t', 'h', 'i', 'n', 'k']",1,"[0.6476746359840035, 0.751764549058862, 0.8317346720723435, 0.959666189039126, 1.0557260990608484]",1841.438383870991,None,1841.4384703534888,1841.5382249520626,s217_04122023,001,2023_Apr_12_1615,test_typingtask_norepeats,2020.2.10,59.943286938280934,
buddy,buddy,,,,,,,,,0,4,4,4,,,,,,,,,,,,,,,1846.9386781459907,None,"['b', 'u', 'd', 'd', 'y']",1,"[0.7314138649962842, 0.8673602199414745, 1.0034348209155723, 1.1714845550013706, 1.267373731941916]",1846.9386781459907,None,1846.9388768954668,1847.0386292249896,s217_04122023,001,2023_Apr_12_1615,test_typingtask_norepeats,2020.2.10,59.943286938280934,
edthe,edthe,,,,,,,,,0,5,5,5,,,,,,,,,,,,,,,1852.4385253570508,None,"['e', 'd', 't', 'h', 'e']",1,"[0.7516736610559747, 0.9275793700944632, 1.1116168650332838, 1.2475161800393835, 1.3595248990459368]",1852.4385253570508,None,1852.4384844123852,1852.5383554860018,s217_04122023,001,2023_Apr_12_1615,test_typingtask_norepeats,2020.2.10,59.943286938280934,
zibja,zibja,,,,,,,,,0,6,6,6,,,,,,,,,,,,,,,1857.9388569430448,None,"['z', 'i', 'b', 'j', 'a']",1,"[1.259197297040373, 1.435289256973192, 1.5632667579920962, 1.7553145700367168, 1.8913043680367991]",1857.9388569430448,None,1857.938706439454,1858.0387294830289,s217_04122023,001,2023_Apr_12_1615,test_typingtask_norepeats,2020.2.10,59.943286938280934,
cooed,cooed,,,,,,,,,0,7,7,7,,,,,,,,,,,,,,,1863.4388968690764,None,"['c', 'o', 'o', 'e', 'd']",1,"[0.7751505590276793, 0.9511422200594097, 1.1192621410591528, 1.2471973780775443, 1.4471920470241457]",1863.4388968690764,None,1863.4386644514743,1863.5388265809743,s217_04122023,001,2023_Apr_12_1615,test_typingtask_norepeats,2020.2.10,59.943286938280934,
champ,champ,,,,,,,,,0,8,8,8,,,,,,,,,,,,,,,1868.9384488189826,None,"['c', 'h', 'a', 'm', 'p']",1,"[0.7316454090178013, 0.8595956990029663, 0.9555968759814277, 1.0917634390061721, 1.2277849779929966]",1868.9384488189826,None,1868.9383756354218,1869.0384292880772,s217_04122023,001,2023_Apr_12_1615,test_typingtask_norepeats,2020.2.10,59.943286938280934,
about,about,,,,,,,,,0,9,9,9,,,,,,,,,,,,,,,1874.4383997510886,None,"['a', 'b', 'o', 'u', 't']",1,"[0.6157463849522173, 0.791769452043809, 0.9356481930008158, 1.1038026809692383, 1.255774587043561]",1874.4383997510886,None,1874.4384205334354,1874.538405506988,s217_04122023,001,2023_Apr_12_1615,test_typingtask_norepeats,2020.2.10,59.943286938280934,
faqir,faqir,,,,,,,,,0,10,10,10,,,,,,,,,,,,,,,1879.9383558970876,None,"['f', 'a', 'q', 'i', 'r']",1,"[0.9638052139198408, 1.14780083601363, 1.4037950969068334, 1.5796975309494883, 1.7157669669250026]",1879.9383558970876,None,1879.9383981244173,1880.0384184570285,s217_04122023,001,2023_Apr_12_1615,test_typingtask_norepeats,2020.2.10,59.943286938280934,
puppy,puppy,,,,,,,,,0,11,11,11,,,,,,,,,,,,,,,1885.4385483959923,None,"['p', 'u', 'p', 'p', 'y']",1,"[0.6315427130321041, 0.7916027279570699, 0.9276847540168092, 1.0954878800548613, 1.2636172339553013]",1885.4385483959923,None,1885.4386934384238,1885.5387413579738,s217_04122023,001,2023_Apr_12_1615,test_typingtask_norepeats,2020.2.10,59.943286938280934,
druze,druze,,,,,,,,,0,12,12,12,,,,,,,,,,,,,,,1890.9383054630598,None,"['d', 'r', 'u', 'z', 'e']",1,"[0.8358259029919282, 1.0437282170169055, 1.2038528569974005, 1.355798296048306, 1.5398354560602456]",1890.9383054630598,None,1890.9385170574533,1891.0385659460444,s217_04122023,001,2023_Apr_12_1615,test_typingtask_norepeats,2020.2.10,59.943286938280934,
theme,theme,,,,,,,,,0,13,13,13,,,,,,,,,,,,,,,1896.4387859780109,None,"['t', 'h', 'e', 'm', 'e']",1,"[0.8393227560445666, 0.999361664056778, 1.079412946011871, 1.2472774480702356, 1.30328949901741]",1896.4387859780109,None,1896.4385716133984,1896.538749776082,s217_04122023,001,2023_Apr_12_1615,test_typingtask_norepeats,2020.2.10,59.943286938280934,
haole,haole,,,,,,,,,0,14,14,14,,,,,,,,,,,,,,,1901.938630786026,None,"['h', 'a', 'o', 'l', 'e']",1,"[0.9474231309723109, 1.0515366289764643, 1.2115419580368325, 1.403598923003301, 1.49153539002873]",1901.938630786026,None,1901.938459890429,1902.038496793015,s217_04122023,001,2023_Apr_12_1615,test_typingtask_norepeats,2020.2.10,59.943286938280934,
pykka,pykka,,,,,,,,,0,15,15,15,,,,,,,,,,,,,,,1907.438493852038,None,"['p', 'y', 'k', 'k', 'a']",1,"[0.7356655190233141, 0.9595589940436184, 1.3435833210824057, 1.4875880600884557, 1.5836580380564556]",1907.438493852038,None,1907.4384086064529,1907.5383181920042,s217_04122023,001,2023_Apr_12_1615,test_typingtask_norepeats,2020.2.10,59.943286938280934,
haole,haole,,,,,,,,,0,16,16,16,,,,,,,,,,,,,,,1912.9387679920765,None,"['h', 'a', 'o', 'l', 'e']",1,"[1.0432660679798573, 1.1473502009175718, 1.3233865979127586, 1.5153518849983811, 1.6513311209855601]",1912.9387679920765,None,1912.938749053399,1913.0385374730686,s217_04122023,001,2023_Apr_12_1615,test_typingtask_norepeats,2020.2.10,59.943286938280934,
champ,champ,,,,,,,,,0,17,17,17,,,,,,,,,,,,,,,1918.4385493560694,None,"['c', 'h', 'a', 'm', 'p']",1,"[0.7916205899091437, 0.9276448359014466, 1.01561096298974, 1.175512023968622, 1.3435691519407555]",1918.4385493560694,None,1918.4384948924417,1918.5385915460065,s217_04122023,001,2023_Apr_12_1615,test_typingtask_norepeats,2020.2.10,59.943286938280934,
there,there,,,,,,,,,0,18,18,18,,,,,,,,,,,,,,,1923.9388557120692,None,"['t', 'h', 'e', 'r', 'e']",1,"[0.7232446951093152, 0.8913150751031935, 0.9952019850024953, 1.1073135990882292, 1.2032476760214195]",1923.9388557120692,None,1923.9390960044693,1924.0387937560445,s217_04122023,001,2023_Apr_12_1615,test_typingtask_norepeats,2020.2.10,59.943286938280934,
vanru,vanru,,,,,,,,,0,19,19,19,,,,,,,,,,,,,,,1929.4384683700046,None,"['v', 'a', 'n', 'r', 'u']",1,"[0.9515813370235264, 0.9836434470489621, 1.15957515896298, 1.279595777974464, 1.407574234995991]",1929.4384683700046,None,1929.438583652489,1929.5387655720115,s217_04122023,001,2023_Apr_12_1615,test_typingtask_norepeats,2020.2.10,59.943286938280934,
would,would,,,,,,,,,0,20,20,20,,,,,,,,,,,,,,,1934.9390884650638,None,"['w', 'o', 'u', 'l', 'd']",1,"[0.7950123520568013, 0.9869977200869471, 1.1229670490138233, 1.2830191920511425, 1.4189932240406051]",1934.9390884650638,None,1934.93870062544,1935.0390406360384,s217_04122023,001,2023_Apr_12_1615,test_typingtask_norepeats,2020.2.10,59.943286938280934,
there,there,,,,,,,,,0,21,21,21,,,,,,,,,,,,,,,1940.43856137502,None,"['t', 'h', 'e', 'r', 'e']",1,"[0.9035720560932532, 1.1276117770466954, 1.223592357011512, 1.34348870604299, 1.4396031150827184]",1940.43856137502,None,1940.4386935574003,1940.5385895969812,s217_04122023,001,2023_Apr_12_1615,test_typingtask_norepeats,2020.2.10,59.943286938280934,
belly,belly,,,,,,,,,0,22,22,22,,,,,,,,,,,,,,,1945.9387361260597,None,"['b', 'e', 'l', 'l', 'y']",1,"[0.8273586770519614, 0.9633997540222481, 1.0753191789845005, 1.24331239098683, 1.3874254090478644]",1945.9387361260597,None,1945.9389450764284,1946.0388465460856,s217_04122023,001,2023_Apr_12_1615,test_typingtask_norepeats,2020.2.10,59.943286938280934,
theme,theme,,,,,,,,,0,23,23,23,,,,,,,,,,,,,,,1951.4383567990735,None,"['t', 'h', 'e', 'm', 'e']",1,"[0.7756780550116673, 0.9118290990591049, 0.9917955229757354, 1.1357983479974791, 1.1837935890071094]",1951.4383567990735,None,1951.438569547492,1951.5386111550033,s217_04122023,001,2023_Apr_12_1615,test_typingtask_norepeats,2020.2.10,59.943286938280934,
think,think,,,,,,,,,0,24,24,24,,,,,,,,,,,,,,,1956.938925213064,None,"['t', 'h', 'i', 'n', 'k']",1,"[0.7872363320784643, 0.9072260820539668, 1.0272462840657681, 1.15523772907909, 1.2671187720261514]",1956.938925213064,None,1956.9388995964546,1957.0389594030567,s217_04122023,001,2023_Apr_12_1615,test_typingtask_norepeats,2020.2.10,59.943286938280934,
cheer,cheer,,,,,,,,,0,25,25,25,,,,,,,,,,,,,,,1962.4388123420067,None,"['c', 'h', 'e', 'e', 'r']",1,"[0.7032814580015838, 0.8313115739729255, 0.9272740019951016, 1.1032971249660477, 1.199313230928965]",1962.4388123420067,None,1962.4388477394823,1962.5391072480706,s217_04122023,001,2023_Apr_12_1615,test_typingtask_norepeats,2020.2.10,59.943286938280934,
buddy,buddy,,,,,,,,,0,26,26,26,,,,,,,,,,,,,,,1967.938502134988,None,"['b', 'u', 'd', 'd', 'y']",1,"[0.9316061499994248, 1.0915463019628078, 1.2435674000298604, 1.4035804209997877, 1.4997652439633384]",1967.938502134988,None,1967.9385153044714,1968.038553658058,s217_04122023,001,2023_Apr_12_1615,test_typingtask_norepeats,2020.2.10,59.943286938280934,
vodka,vodka,,,,,,,,,0,27,27,27,,,,,,,,,,,,,,,1973.4552823170088,None,"['v', 'o', 'd', 'k', 'a']",1,"[0.814811774995178, 0.9108400869881734, 1.0468551689991727, 1.1347784269601107, 1.262792696012184]",1973.4552823170088,None,1973.4554562243866,1973.5551527750213,s217_04122023,001,2023_Apr_12_1615,test_typingtask_norepeats,2020.2.10,59.943286938280934,
therm,therm,,,,,,,,,0,28,28,28,,,,,,,,,,,,,,,1978.9553888830123,None,"['t', 'h', 'e', 'r', 'm']",1,"[0.7546677029458806, 0.9146661789854988, 0.9947450099280104, 1.098753202939406, 1.2187470439821482]",1978.9553888830123,None,1978.9553223884432,1979.055295979022,s217_04122023,001,2023_Apr_12_1615,test_typingtask_norepeats,2020.2.10,59.943286938280934,
cooed,cooed,,,,,,,,,0,29,29,29,,,,,,,,,,,,,,,1984.455622849986,None,"['c', 'o', 'o', 'e', 'd']",1,"[0.6704095099121332, 0.8465080190217122, 1.0224948870018125, 1.1424194480059668, 1.3584135689307004]",1984.455622849986,None,1984.4551585104782,1984.5555691110203,s217_04122023,001,2023_Apr_12_1615,test_typingtask_norepeats,2020.2.10,59.943286938280934,
theme,theme,,,,,,,,,0,30,30,30,,,,,,,,,,,,,,,1989.9552473929944,None,"['t', 'h', 'e', 'm', 'e']",1,"[0.6749047300545499, 0.8428137049777433, 0.9229224850423634, 1.0989061719737947, 1.138904026011005]",1989.9552473929944,None,1989.9552988334326,1990.0553326020017,s217_04122023,001,2023_Apr_12_1615,test_typingtask_norepeats,2020.2.10,59.943286938280934,
think,think,,,,,,,,,0,31,31,31,,,,,,,,,,,,,,,1995.4552361679962,None,"['t', 'h', 'i', 'n', 'k']",1,"[0.7588249830296263, 0.9108776530483738, 1.0229211549740285, 1.150807184050791, 1.270862483070232]",1995.4552361679962,None,1995.455366751412,1995.5556464639958,s217_04122023,001,2023_Apr_12_1615,test_typingtask_norepeats,2020.2.10,59.943286938280934,
haole,haole,,,,,,,,,0,32,32,32,,,,,,,,,,,,,,,2000.9555090920767,None,"['h', 'a', 'o', 'l', 'e']",1,"[0.7146011600270867, 0.8265263380017132, 1.0026438320055604, 1.2186435699695721, 1.3466220500413328]",2000.9555090920767,None,2000.9558171564713,2001.055573541089,s217_04122023,001,2023_Apr_12_1615,test_typingtask_norepeats,2020.2.10,59.943286938280934,
cooed,cooed,,,,,,,,,0,33,33,33,,,,,,,,,,,,,,,2006.455593671999,None,"['c', 'o', 'o', 'e', 'd']",1,"[0.6945495039690286, 0.8544820809038356, 1.038581213913858, 1.1825601629680023, 1.390573153970763]",2006.455593671999,None,2006.455684586428,2006.5556183289737,s217_04122023,001,2023_Apr_12_1615,test_typingtask_norepeats,2020.2.10,59.943286938280934,
puppy,puppy,,,,,,,,,0,34,34,34,,,,,,,,,,,,,,,2011.9550886590732,None,"['p', 'u', 'p', 'p', 'y']",1,"[0.6429462999803945, 0.8112645170185715, 0.9389509690226987, 1.1070457539753988, 1.3149615610018373]",2011.9550886590732,None,2011.9552830364555,2012.0553147289902,s217_04122023,001,2023_Apr_12_1615,test_typingtask_norepeats,2020.2.10,59.943286938280934,
kremp,kremp,,,,,,,,,0,35,35,35,,,,,,,,,,,,,,,2017.4556601840304,None,"['k', 'r', 'e', 'm', 'p']",1,"[1.0784269730793312, 1.2304734920617193, 1.3423821430187672, 1.4864490660838783, 1.6383965200511739]",2017.4556601840304,None,2017.455560545437,2017.5557218490867,s217_04122023,001,2023_Apr_12_1615,test_typingtask_norepeats,2020.2.10,59.943286938280934,
vodka,vodka,,,,,,,,,0,36,36,36,,,,,,,,,,,,,,,2022.955744064995,None,"['v', 'o', 'd', 'k', 'a']",1,"[0.7383768010186031, 0.8583940770477057, 0.9863955080509186, 1.0663913190364838, 1.1864114589989185]",2022.955744064995,None,2022.955589668476,2023.0557332970202,s217_04122023,001,2023_Apr_12_1615,test_typingtask_norepeats,2020.2.10,59.943286938280934,
heond,heond,,,,,,,,,0,37,37,37,,,,,,,,,,,,,,,2028.455387021997,None,"['h', 'e', 'o', 'n', 'd']",1,"[0.8947469380218536, 1.0547174339881167, 1.1668117879889905, 1.2787966950563714, 1.422787853050977]",2028.455387021997,None,2028.4551202243892,2028.5554490149952,s217_04122023,001,2023_Apr_12_1615,test_typingtask_norepeats,2020.2.10,59.943286938280934,
zibja,zibja,,,,,,,,,0,38,38,38,,,,,,,,,,,,,,,2033.955391313997,None,"['z', 'i', 'b', 'j', 'a']",1,"[1.0027454800438136, 1.122664661030285, 1.2906595550011843, 1.4667339690495282, 1.6266514410963282]",2033.955391313997,None,2033.955289563397,2034.0553084589774,s217_04122023,001,2023_Apr_12_1615,test_typingtask_norepeats,2020.2.10,59.943286938280934,
vanru,vanru,,,,,,,,,0,39,39,39,,,,,,,,,,,,,,,2039.4554522620747,None,"['v', 'a', 'n', 'r', 'u']",1,"[0.8066140220034868, 0.8786712019937113, 1.006599202984944, 1.1505929799750447, 1.3028954609762877]",2039.4554522620747,None,2039.4557363664499,2039.555270122015,s217_04122023,001,2023_Apr_12_1615,test_typingtask_norepeats,2020.2.10,59.943286938280934,
lucky,lucky,,,,,,,,,0,40,40,40,,,,,,,,,,,,,,,2044.9554105030838,None,"['l', 'u', 'c', 'k', 'y']",1,"[0.7866723509505391, 0.9947430029278621, 1.1546173389069736, 1.2587078999495134, 1.4667396619915962]",2044.9554105030838,None,2044.9554230454378,2045.0554165670183,s217_04122023,001,2023_Apr_12_1615,test_typingtask_norepeats,2020.2.10,59.943286938280934,
therm,therm,,,,,,,,,0,41,41,41,,,,,,,,,,,,,,,2050.455603087088,None,"['t', 'h', 'e', 'r', 'm']",1,"[0.798530058003962, 0.9185202569933608, 1.0144588469993323, 1.1104429400293157, 1.2224693789612502]",2050.455603087088,None,2050.455715205404,2050.5556086130673,s217_04122023,001,2023_Apr_12_1615,test_typingtask_norepeats,2020.2.10,59.943286938280934,
buddy,buddy,,,,,,,,,0,42,42,42,,,,,,,,,,,,,,,2055.955689665978,None,"['b', 'u', 'd', 'd', 'y']",1,"[0.842351260012947, 0.9944727739784867, 1.138456349959597, 1.3064623910468072, 1.37842310895212]",2055.955689665978,None,2055.9558461074485,2056.0558488620445,s217_04122023,001,2023_Apr_12_1615,test_typingtask_norepeats,2020.2.10,59.943286938280934,
druze,druze,,,,,,,,,0,43,43,43,,,,,,,,,,,,,,,2061.4552643760107,None,"['d', 'r', 'u', 'z', 'e']",1,"[0.7828889359952882, 1.00685217208229, 1.1427742650266737, 1.2868921470362693, 1.4789135130122304]",2061.4552643760107,None,2061.455470746383,2061.555683672079,s217_04122023,001,2023_Apr_12_1615,test_typingtask_norepeats,2020.2.10,59.943286938280934,
think,think,,,,,,,,,0,44,44,44,,,,,,,,,,,,,,,2066.955354931997,None,"['t', 'h', 'i', 'b', 'n', 'k', 'j']",0,"[0.8346874940907583, 0.9867667380021885, 1.1146947710076347, 1.2506891690427437, 1.2506891690427437, 1.3548198620555922, 1.3627416740637273]",2066.955354931997,None,2066.9555126804626,2067.055840903078,s217_04122023,001,2023_Apr_12_1615,test_typingtask_norepeats,2020.2.10,59.943286938280934,
pykka,pykka,,,,,,,,,0,45,45,45,,,,,,,,,,,,,,,2072.455299237976,None,"['p', 'y', 'k', 'k', 'a']",1,"[0.774872570997104, 0.9748677239986137, 1.310761125991121, 1.430813122075051, 1.5267376900883391]",2072.455299237976,None,2072.4554263604805,2072.555477306014,s217_04122023,001,2023_Apr_12_1615,test_typingtask_norepeats,2020.2.10,59.943286938280934,
belly,belly,,,,,,,,,0,46,46,46,,,,,,,,,,,,,,,2077.955265014083,None,"['b', 'e', 'l', 'l', 'y']",1,"[0.6188702989602461, 0.7708898140117526, 0.8347786909434944, 1.0107823059661314, 1.1308899499708787]",2077.955265014083,None,2077.955458982382,2078.0554962360766,s217_04122023,001,2023_Apr_12_1615,test_typingtask_norepeats,2020.2.10,59.943286938280934,
there,there,,,,,,,,,0,47,47,47,,,,,,,,,,,,,,,2083.455333132064,None,"['t', 'h', 'e', 'r', 'e']",1,"[0.6467555549461395, 0.7587663589511067, 0.862738590920344, 0.9668133689556271, 1.0627182479947805]",2083.455333132064,None,2083.455419687438,2083.5557385650463,s217_04122023,001,2023_Apr_12_1615,test_typingtask_norepeats,2020.2.10,59.943286938280934,
would,would,,,,,,,,,0,48,48,48,,,,,,,,,,,,,,,2088.955306139076,None,"['w', 'o', 'u', 'l', 'd']",1,"[0.6028640760341659, 0.7067568959901109, 0.8028102400712669, 0.9387489040382206, 1.01076546497643]",2088.955306139076,None,2088.9554735674756,2089.0557506009936,s217_04122023,001,2023_Apr_12_1615,test_typingtask_norepeats,2020.2.10,59.943286938280934,
heond,heond,,,,,,,,,0,49,49,49,,,,,,,,,,,,,,,2094.455425188062,None,"['h', 'e', 'o', 'n', 'd']",1,"[0.7027074289508164, 0.7666974859312177, 0.8467011050088331, 0.9186393619747832, 1.0146920409752056]",2094.455425188062,None,2094.4554906364065,2094.5556528620655,s217_04122023,001,2023_Apr_12_1615,test_typingtask_norepeats,2020.2.10,59.943286938280934,
cheer,cheer,,,,,,,,,0,50,50,50,,,,,,,,,,,,,,,2099.955800579977,None,"['c', 'h', 'e', 'e', 'r']",1,"[0.6023180059855804, 0.7303444140125066, 0.818246684037149, 0.954365445068106, 1.05024324497208]",2099.955800579977,None,2099.9556827933993,2100.0557121160673,s217_04122023,001,2023_Apr_12_1615,test_typingtask_norepeats,2020.2.10,59.943286938280934,
kremp,kremp,,,,,,,,,0,51,51,51,,,,,,,,,,,,,,,2105.455688724993,None,"['k', 'r', 'e', 'm', 'p']",1,"[0.7585293640149757, 0.8544705490348861, 0.934361268999055, 0.99846210796386, 1.0944440610473976]",2105.455688724993,None,2105.4555882284185,2105.5554397919914,s217_04122023,001,2023_Apr_12_1615,test_typingtask_norepeats,2020.2.10,59.943286938280934,
haole,haole,,,,,,,,,0,52,52,52,,,,,,,,,,,,,,,2110.9554995620856,None,"['h', 'a', 'o', 'l', 'e']",1,"[0.6265451998915523, 0.7546609949786216, 0.858573462930508, 1.0666425409726799, 1.2026145668933168]",2110.9554995620856,None,2110.9554055694025,2111.055219282047,s217_04122023,001,2023_Apr_12_1615,test_typingtask_norepeats,2020.2.10,59.943286938280934,
cooed,cooed,,,,,,,,,0,53,53,53,,,,,,,,,,,,,,,2116.4557805319782,None,"['c', 'o', 'o', 'e', 'd']",1,"[0.5983798609813675, 0.7342656890396029, 0.894375795032829, 1.0303519619628787, 1.214328058063984]",2116.4557805319782,None,2116.4559153973823,2116.555517664994,s217_04122023,001,2023_Apr_12_1615,test_typingtask_norepeats,2020.2.10,59.943286938280934,
there,there,,,,,,,,,0,54,54,54,,,,,,,,,,,,,,,2121.9556625430705,None,"['t', 'h', 'e', 'r', 'e']",1,"[0.6664882859913632, 0.7623890159884468, 0.8503800149774179, 0.9464474299456924, 1.050378026906401]",2121.9556625430705,None,2121.9556870363886,2122.0554318560753,s217_04122023,001,2023_Apr_12_1615,test_typingtask_norepeats,2020.2.10,59.943286938280934,
zibja,zibja,,,,,,,,,0,55,55,55,,,,,,,,,,,,,,,2127.455644135014,None,"['z', 'i', 'b', 'j', 'a']",1,"[0.910397140076384, 1.022510119015351, 1.1503921250114217, 1.3503967000870034, 1.494500651024282]",2127.455644135014,None,2127.4555515374523,2127.555521688075,s217_04122023,001,2023_Apr_12_1615,test_typingtask_norepeats,2020.2.10,59.943286938280934,
think,think,,,,,,,,,0,56,56,56,,,,,,,,,,,,,,,2132.955452439026,None,"['t', 'h', 'i', 'n', 'k']",1,"[0.7465898570371792, 0.9066913099959493, 1.0505807100562379, 1.354699919000268, 1.4826966549735516]",2132.955452439026,None,2132.955563998432,2133.055819403031,s217_04122023,001,2023_Apr_12_1615,test_typingtask_norepeats,2020.2.10,59.943286938280934,
druze,druze,,,,,,,,,0,57,57,57,,,,,,,,,,,,,,,2138.4554043200333,None,"['d', 'r', 'u', 'z', 'e']",1,"[0.6547444199677557, 0.8787734309444204, 1.0227662889519706, 1.1586520569399, 1.3587599729653448]",2138.4554043200333,None,2138.455401235493,2138.5553544060094,s217_04122023,001,2023_Apr_12_1615,test_typingtask_norepeats,2020.2.10,59.943286938280934,
theme,theme,,,,,,,,,0,58,58,58,,,,,,,,,,,,,,,2143.955689385999,None,"['t', 'h', 'e', 'm', 'e']",1,"[0.7384634229820222, 0.8343539088964462, 0.9704912429442629, 1.1304668419761583, 1.2024623539764434]",2143.955689385999,None,2143.95591993141,2144.055816535023,s217_04122023,001,2023_Apr_12_1615,test_typingtask_norepeats,2020.2.10,59.943286938280934,
therm,therm,,,,,,,,,0,59,59,59,,,,,,,,,,,,,,,2149.4554052380845,None,"['t', 'h', 'e', 'r', 'm']",1,"[0.7586425170302391, 0.8867114949971437, 0.9747177560348064, 1.086888508987613, 1.2227657890180126]",2149.4554052380845,None,2149.455564694479,2149.555435458082,s217_04122023,001,2023_Apr_12_1615,test_typingtask_norepeats,2020.2.10,59.943286938280934,
belly,belly,,,,,,,,,0,60,60,60,,,,,,,,,,,,,,,2154.9558103510644,None,"['b', 'e', 'l', 'l', 'y']",1,"[0.7543582950020209, 0.8903537479927763, 0.9943354839924723, 1.1542972299503163, 1.362275129999034]",2154.9558103510644,None,2154.955805325415,2155.055907108006,s217_04122023,001,2023_Apr_12_1615,test_typingtask_norepeats,2020.2.10,59.943286938280934,
lucky,lucky,,,,,,,,,0,61,61,61,,,,,,,,,,,,,,,2160.455346385017,None,"['l', 'u', 'c', 'k', 'y']",1,"[0.7027686710935086, 0.918837761040777, 1.094744176021777, 1.2387837920105085, 1.4627160610398278]",2160.455346385017,None,2160.4555407894077,2160.55585581006,s217_04122023,001,2023_Apr_12_1615,test_typingtask_norepeats,2020.2.10,59.943286938280934,
pykka,pykka,,,,,,,,,0,62,62,62,,,,,,,,,,,,,,,2165.955800862983,None,"['p', 'y', 'k', 'k', 'a']",1,"[0.7302912910236046, 0.9543077819980681, 1.2663522600196302, 1.402335399063304, 1.530356572009623]",2165.955800862983,None,2165.9558053044602,2166.0557952950476,s217_04122023,001,2023_Apr_12_1615,test_typingtask_norepeats,2020.2.10,59.943286938280934,
therm,therm,,,,,,,,,0,63,63,63,,,,,,,,,,,,,,,2171.455552223022,None,"['t', 'h', 'e', 'r', 'm']",1,"[0.81457714503631, 0.9344980330206454, 1.070646206033416, 1.1906132850563154, 1.278658063034527]",2171.455552223022,None,2171.4553186114645,2171.5555174960755,s217_04122023,001,2023_Apr_12_1615,test_typingtask_norepeats,2020.2.10,59.943286938280934,
puppy,puppy,,,,,,,,,0,64,64,64,,,,,,,,,,,,,,,2176.9557593900245,None,"['p', 'u', 'p', 'p', 'y']",1,"[0.6502808770164847, 0.8023945860331878, 0.9463838849915192, 1.1303732070373371, 1.3064082270720974]",2176.9557593900245,None,2176.955343058449,2177.055667611072,s217_04122023,001,2023_Apr_12_1615,test_typingtask_norepeats,2020.2.10,59.943286938280934,
tithe,tithe,,,,,,,,,0,65,65,65,,,,,,,,,,,,,,,2182.455620651017,None,"['t', 'i', 't', 'h', 'e']",1,"[0.7905478921020404, 0.9104664620244876, 1.0144322561100125, 1.1025095990626141, 1.230535120004788]",2182.455620651017,None,2182.4556476424914,2182.5553211490624,s217_04122023,001,2023_Apr_12_1615,test_typingtask_norepeats,2020.2.10,59.943286938280934,
cheer,cheer,,,,,,,,,0,66,66,66,,,,,,,,,,,,,,,2187.9555302690715,None,"['c', 'h', 'e', 'e', 'r']",1,"[0.6826084209606051, 0.8585859859595075, 0.970619636005722, 1.1706223839428276, 1.2586473079863936]",2187.9555302690715,None,2187.955570660415,2188.055672229035,s217_04122023,001,2023_Apr_12_1615,test_typingtask_norepeats,2020.2.10,59.943286938280934,
kremp,kremp,,,,,,,,,0,67,67,67,,,,,,,,,,,,,,,2193.4558813080657,None,"['k', 'r', 'e', 'm', 'p']",1,"[0.686230989987962, 0.8222840199014172, 0.9501651269383729, 1.0702846209751442, 1.2862520889611915]",2193.4558813080657,None,2193.45594479749,2193.555759044015,s217_04122023,001,2023_Apr_12_1615,test_typingtask_norepeats,2020.2.10,59.943286938280934,
about,about,,,,,,,,,0,68,68,68,,,,,,,,,,,,,,,2198.9557836260647,None,"['a', 'b', 'o', 'u', 't']",1,"[0.7303691720589995, 0.8663651200477034, 1.026267326087691, 1.1783118119928986, 1.3223894700640813]",2198.9557836260647,None,2198.9557303504553,2199.055602772045,s217_04122023,001,2023_Apr_12_1615,test_typingtask_norepeats,2020.2.10,59.943286938280934,
druze,druze,,,,,,,,,0,69,69,69,,,,,,,,,,,,,,,2204.4557190740015,None,"['d', 'r', 'u', 'z', 'e']",1,"[0.7664283609483391, 0.9584340109722689, 1.0784241219516844, 1.2704419359797612, 1.494488550000824]",2204.4557190740015,None,2204.4556571483845,2204.555824190029,s217_04122023,001,2023_Apr_12_1615,test_typingtask_norepeats,2020.2.10,59.943286938280934,
about,about,,,,,,,,,0,70,70,70,,,,,,,,,,,,,,,2209.9555503600277,None,"['a', 'b', 'o', 'u', 't']",1,"[0.6026049539214, 0.7065984809305519, 0.9305802850285545, 1.0985946080181748, 1.2344960370101035]",2209.9555503600277,None,2209.9555792344036,2210.055621918058,s217_04122023,001,2023_Apr_12_1615,test_typingtask_norepeats,2020.2.10,59.943286938280934,
cheer,cheer,,,,,,,,,0,71,71,71,,,,,,,,,,,,,,,2215.4554929640144,None,"['c', 'h', 'e', 'e', 'r']",1,"[0.7586271699983627, 0.9185453499667346, 1.0465950230136514, 1.238678692956455, 1.3186279149958864]",2215.4554929640144,None,2215.455932849436,2215.5557116810232,s217_04122023,001,2023_Apr_12_1615,test_typingtask_norepeats,2020.2.10,59.943286938280934,
edthe,edthe,,,,,,,,,0,72,72,72,,,,,,,,,,,,,,,2220.955389028997,None,"['e', 'd', 't', 'h', 'e']",1,"[0.6346592530608177, 0.8506556060165167, 1.0427303860196844, 1.1547720730304718, 1.2827614520210773]",2220.955389028997,None,2220.955617153435,2221.0557033970254,s217_04122023,001,2023_Apr_12_1615,test_typingtask_norepeats,2020.2.10,59.943286938280934,
vodka,vodka,,,,,,,,,0,73,73,73,,,,,,,,,,,,,,,2226.4554145670263,None,"['v', 'o', 'd', 'k', 'a']",1,"[0.7346313680754974, 0.8307381140766665, 1.0227557950420305, 1.1186595300678164, 1.2227133359992877]",2226.4554145670263,None,2226.4556239724625,2226.5555594210746,s217_04122023,001,2023_Apr_12_1615,test_typingtask_norepeats,2020.2.10,59.943286938280934,
cooed,cooed,,,,,,,,,0,74,74,74,,,,,,,,,,,,,,,2231.9559301360277,None,"['c', 'o', 'o', 'e', 'd']",1,"[0.6661914760479704, 0.8341048980364576, 1.0182553949998692, 1.1302422509761527, 1.338237531017512]",2231.9559301360277,None,2231.956067862455,2232.0558807729976,s217_04122023,001,2023_Apr_12_1615,test_typingtask_norepeats,2020.2.10,59.943286938280934,
lucky,lucky,,,,,,,,,0,75,75,75,,,,,,,,,,,,,,,2237.4556315820664,None,"['l', 'u', 'c', 'k', 'y']",1,"[0.654460181016475, 0.854531646007672, 0.9905332979978994, 1.0864684480475262, 1.3024806870380417]",2237.4556315820664,None,2237.4557298924774,2237.555539578083,s217_04122023,001,2023_Apr_12_1615,test_typingtask_norepeats,2020.2.10,59.943286938280934,
belly,belly,,,,,,,,,0,76,76,76,,,,,,,,,,,,,,,2242.955878122011,None,"['b', 'e', 'l', 'l', 'y']",1,"[0.6982333780033514, 0.8422458240529522, 0.9062476310646161, 1.0581665760837495, 1.1942278400529176]",2242.955878122011,None,2242.9558321074583,2243.056058746064,s217_04122023,001,2023_Apr_12_1615,test_typingtask_norepeats,2020.2.10,59.943286938280934,
zibja,zibja,,,,,,,,,0,77,77,77,,,,,,,,,,,,,,,2248.4558048440376,None,"['z', 'i', 'b', 'j', 'a']",1,"[0.9023262979462743, 1.0142494379542768, 1.1342379059642553, 1.3102801010245457, 1.422361047938466]",2248.4558048440376,None,2248.455395782483,2248.555555981002,s217_04122023,001,2023_Apr_12_1615,test_typingtask_norepeats,2020.2.10,59.943286938280934,
champ,champ,,,,,,,,,0,78,78,78,,,,,,,,,,,,,,,2253.9559258450754,None,"['c', 'h', 'a', 'm', 'p']",1,"[0.7541793109849095, 0.8822262049652636, 0.9542077980004251, 1.08222178905271, 1.2421469669789076]",2253.9559258450754,None,2253.955886038486,2254.0558533939766,s217_04122023,001,2023_Apr_12_1615,test_typingtask_norepeats,2020.2.10,59.943286938280934,
edthe,edthe,,,,,,,,,0,79,79,79,,,,,,,,,,,,,,,2259.456012009061,None,"['e', 'd', 't', 'h', 'e']",1,"[0.6941771199926734, 0.9021198870614171, 1.0460382250603288, 1.182142148958519, 1.2701509869657457]",2259.456012009061,None,2259.456061500474,2259.5557054940145,s217_04122023,001,2023_Apr_12_1615,test_typingtask_norepeats,2020.2.10,59.943286938280934,
there,there,,,,,,,,,0,80,80,80,,,,,,,,,,,,,,,2264.955875038053,None,"['t', 'h', 'e', 'r', 'e']",1,"[0.7622208740795031, 0.9062261310173199, 1.0022696320666, 1.1302770430920646, 1.2101577420253307]",2264.955875038053,None,2264.956030152389,2265.0558718580287,s217_04122023,001,2023_Apr_12_1615,test_typingtask_norepeats,2020.2.10,59.943286938280934,
tithe,tithe,,,,,,,,,0,81,81,81,,,,,,,,,,,,,,,2270.4557687540073,None,"['t', 'i', 't', 'h', 'e']",1,"[0.6863314539659768, 0.8143036419060081, 0.9102728449506685, 0.9903823649510741, 1.0783565739402547]",2270.4557687540073,None,2270.455781831406,2270.5555816270644,s217_04122023,001,2023_Apr_12_1615,test_typingtask_norepeats,2020.2.10,59.943286938280934,
would,would,,,,,,,,,0,82,82,82,,,,,,,,,,,,,,,2275.955955983023,None,"['w', 'o', 'u', 'l', 'd']",1,"[0.8340893989661708, 1.042088882997632, 1.1621034470153973, 1.3301442370284349, 1.4421415199758485]",2275.955955983023,None,2275.955727992463,2276.0557020510314,s217_04122023,001,2023_Apr_12_1615,test_typingtask_norepeats,2020.2.10,59.943286938280934,
heond,heond,,,,,,,,,0,83,83,83,,,,,,,,,,,,,,,2281.4556604380487,None,"['h', 'e', 'o', 'n', 'd']",1,"[0.7984138060128316, 0.9583946029888466, 1.0304615970235318, 1.158389060990885, 1.2864180860342458]",2281.4556604380487,None,2281.4558032804634,2281.555815643049,s217_04122023,001,2023_Apr_12_1615,test_typingtask_norepeats,2020.2.10,59.943286938280934,
faqir,faqir,,,,,,,,,0,84,84,84,,,,,,,,,,,,,,,2286.9559646840207,None,"['f', 'a', 'q', 'i', 'r']",1,"[0.8582081090426072, 1.0340726610738784, 1.3062169040786102, 1.4821731300326064, 1.642161122057587]",2286.9559646840207,None,2286.9560671524378,2287.0558963019866,s217_04122023,001,2023_Apr_12_1615,test_typingtask_norepeats,2020.2.10,59.943286938280934,
puppy,puppy,,,,,,,,,0,85,85,85,,,,,,,,,,,,,,,2292.4560252700467,None,"['p', 'u', 'p', 'p', 'y']",1,"[0.7261268080910668, 0.8781133940210566, 1.0220589890377596, 1.2140537400264293, 1.3901645590085536]",2292.4560252700467,None,2292.456087319413,2292.5559160800185,s217_04122023,001,2023_Apr_12_1615,test_typingtask_norepeats,2020.2.10,59.943286938280934,
vodka,vodka,,,,,,,,,0,86,86,86,,,,,,,,,,,,,,,2297.955663518049,None,"['v', 'o', 'd', 'k', 'a']",1,"[0.8184633960481733, 0.93046631407924, 1.0904532499844208, 1.186430478002876, 1.3464294440345839]",2297.955663518049,None,2297.955631206394,2298.0558744490845,s217_04122023,001,2023_Apr_12_1615,test_typingtask_norepeats,2020.2.10,59.943286938280934,
belly,belly,,,,,,,,,0,87,87,87,,,,,,,,,,,,,,,2303.455560323084,None,"['b', 'e', 'l', 'l', 'y']",1,"[0.8305716799804941, 0.9985930169932544, 1.1104970109881833, 1.3185944319702685, 1.694656340056099]",2303.455560323084,None,2303.455733981449,2303.5557361589745,s217_04122023,001,2023_Apr_12_1615,test_typingtask_norepeats,2020.2.10,59.943286938280934,
faqir,faqir,,,,,,,,,0,88,88,88,,,,,,,,,,,,,,,2308.9558758530766,None,"['f', 'a', 'q', 'i', 'r']",1,"[0.9622151700314134, 1.0902766799554229, 1.4022829430177808, 1.6101566349389032, 1.7302757180295885]",2308.9558758530766,None,2308.9560724304756,2309.0559836900793,s217_04122023,001,2023_Apr_12_1615,test_typingtask_norepeats,2020.2.10,59.943286938280934,
edthe,edthe,,,,,,,,,0,89,89,89,,,,,,,,,,,,,,,2314.455629997072,None,"['e', 'd', 't', 'h', 'e']",1,"[0.7504138499498367, 0.9824610919458792, 1.1985148759558797, 1.3504126369953156, 1.4945047110086307]",2314.455629997072,None,2314.4556101044873,2314.5559561640257,s217_04122023,001,2023_Apr_12_1615,test_typingtask_norepeats,2020.2.10,59.943286938280934,
puppy,puppy,,,,,,,,,0,90,90,90,,,,,,,,,,,,,,,2319.9557222030126,None,"['p', 'u', 'p', 'p', 'y']",1,"[0.6024124500108883, 0.7704389449208975, 0.9143313749227673, 1.0904397949343547, 1.3143439419800416]",2319.9557222030126,None,2319.9555872274796,2320.0557613230776,s217_04122023,001,2023_Apr_12_1615,test_typingtask_norepeats,2020.2.10,59.943286938280934,
zibja,zibja,,,,,,,,,0,91,91,91,,,,,,,,,,,,,,,2325.4556258179946,None,"['z', 'i', 'b', 'j', 'a']",1,"[0.9264229460386559, 1.070682659978047, 1.2705273809842765, 1.470534685999155, 1.6385348100448027]",2325.4556258179946,None,2325.455626341398,2325.55566434504,s217_04122023,001,2023_Apr_12_1615,test_typingtask_norepeats,2020.2.10,59.943286938280934,
vanru,vanru,,,,,,,,,0,92,92,92,,,,,,,,,,,,,,,2330.9557817020686,None,"['v', 'a', 'n', 'r', 'u']",1,"[0.8743469329783693, 0.9463112949160859, 1.1143183539388701, 1.258392005925998, 1.4023658588994294]",2330.9557817020686,None,2330.9558791334275,2331.055500705028,s217_04122023,001,2023_Apr_12_1615,test_typingtask_norepeats,2020.2.10,59.943286938280934,
faqir,faqir,,,,,,,,,0,93,93,93,,,,,,,,,,,,,,,2336.4560250960058,None,"['f', 'a', 'q', 'i', 'r']",1,"[0.9021598249673843, 0.9980789819965139, 1.3340205400018021, 1.5661238440079615, 1.7340214049909264]",2336.4560250960058,None,2336.4560872004367,2336.5557686469983,s217_04122023,001,2023_Apr_12_1615,test_typingtask_norepeats,2020.2.10,59.943286938280934,
lucky,lucky,,,,,,,,,0,94,94,94,,,,,,,,,,,,,,,2341.9559229930164,None,"['l', 'u', 'c', 'k', 'y']",1,"[0.7702463110908866, 0.9862590570701286, 1.290245741023682, 1.4341188570251688, 1.6902456070529297]",2341.9559229930164,None,2341.95601890143,2342.0556853630114,s217_04122023,001,2023_Apr_12_1615,test_typingtask_norepeats,2020.2.10,59.943286938280934,
champ,champ,,,,,,,,,0,95,95,95,,,,,,,,,,,,,,,2347.4561434630305,None,"['c', 'h', 'a', 'm', 'p']",1,"[0.7820055159972981, 0.8939321900252253, 0.9820065160747617, 1.1339037000434473, 1.3259690700797364]",2347.4561434630305,None,2347.4561481034616,2347.5564006090863,s217_04122023,001,2023_Apr_12_1615,test_typingtask_norepeats,2020.2.10,59.943286938280934,
vanru,vanru,,,,,,,,,0,96,96,96,,,,,,,,,,,,,,,2352.9557524570264,None,"['v', 'a', 'n', 'r', 'u']",1,"[0.81027626094874, 0.8743554620305076, 1.0422797929495573, 1.1863479850580916, 1.3463003629585728]",2352.9557524570264,None,2352.9558130444493,2353.0558430780657,s217_04122023,001,2023_Apr_12_1615,test_typingtask_norepeats,2020.2.10,59.943286938280934,
therm,therm,,,,,,,,,0,97,97,97,,,,,,,,,,,,,,,2358.4557661380386,None,"['t', 'h', 'e', 'r', 'm']",1,"[0.9502594569930807, 1.0863505270099267, 1.222343988949433, 1.3183419939596206, 1.438286031014286]",2358.4557661380386,None,2358.455816287431,2358.555864911061,s217_04122023,001,2023_Apr_12_1615,test_typingtask_norepeats,2020.2.10,59.943286938280934,
buddy,buddy,,,,,,,,,0,98,98,98,,,,,,,,,,,,,,,2363.9556785620516,None,"['b', 'u', 'd', 'd', 'y']",1,"[1.1304752150317654, 1.306483303080313, 1.5064368770690635, 1.6744467220269144, 1.7945161440875381]",2363.9556785620516,None,2363.955683965469,2364.055808154051,s217_04122023,001,2023_Apr_12_1615,test_typingtask_norepeats,2020.2.10,59.943286938280934,
theme,theme,,,,,,,,,0,99,99,99,,,,,,,,,,,,,,,2369.4557575989747,None,"['t', 'h', 'e', 'm', 'e']",1,"[0.8783909729681909, 1.0303723119432107, 1.1422737230313942, 1.3103511169319972, 1.4062755689956248]",2369.4557575989747,None,2369.4557731174864,2369.555885000038,s217_04122023,001,2023_Apr_12_1615,test_typingtask_norepeats,2020.2.10,59.943286938280934,
would,would,,,,,,,,,0,100,100,100,,,,,,,,,,,,,,,2374.9556709750323,None,"['w', 'o', 'u', 'l', 'd']",1,"[0.6424280939390883, 0.7785847400082275, 0.914470421965234, 1.0824900310253724, 1.2343768139835447]",2374.9556709750323,None,2374.95577572647,2375.0557860860135,s217_04122023,001,2023_Apr_12_1615,test_typingtask_norepeats,2020.2.10,59.943286938280934,
faqir,faqir,,,,,,,,,0,101,101,101,,,,,,,,,,,,,,,2380.455710549024,None,"['f', 'a', 'q', 'i', 'r']",1,"[0.7984088239027187, 0.9423964630113915, 1.174379137926735, 1.3503381409682333, 1.4784703929908574]",2380.455710549024,None,2380.4559796694666,2380.5558294800576,s217_04122023,001,2023_Apr_12_1615,test_typingtask_norepeats,2020.2.10,59.943286938280934,
buddy,buddy,,,,,,,,,0,102,102,102,,,,,,,,,,,,,,,2385.956075060065,None,"['b', 'u', 'd', 'd', 'y']",1,"[0.7140710840467364, 0.8740938330302015, 1.033972712000832, 1.1941567100584507, 1.2980146029731259]",2385.956075060065,None,2385.95605310041,2386.056326523074,s217_04122023,001,2023_Apr_12_1615,test_typingtask_norepeats,2020.2.10,59.943286938280934,
tithe,tithe,,,,,,,,,0,103,103,103,,,,,,,,,,,,,,,2391.456134346081,None,"['t', 'i', 't', 'h', 'e']",1,"[0.837969655985944, 0.9579875400522724, 1.053936276002787, 1.1580363609828055, 1.2620114450110123]",2391.456134346081,None,2391.4560462964,2391.5562455040636,s217_04122023,001,2023_Apr_12_1615,test_typingtask_norepeats,2020.2.10,59.943286938280934,
pykka,pykka,,,,,,,,,0,104,104,104,,,,,,,,,,,,,,,2396.95591074205,None,"['p', 'y', 'k', 'k', 'a']",1,"[0.642143446020782, 0.8341332769487053, 1.1302423949819058, 1.2582365069538355, 1.378252964001149]",2396.95591074205,None,2396.955729187466,2397.0558281270787,s217_04122023,001,2023_Apr_12_1615,test_typingtask_norepeats,2020.2.10,59.943286938280934,
druze,druze,,,,,,,,,0,105,105,105,,,,,,,,,,,,,,,2402.4558847560547,None,"['d', 'r', 'u', 'z', 'e']",1,"[0.7662554319249466, 0.974290783982724, 1.1261626930208877, 1.3421705319778994, 1.5341599989915267]",2402.4558847560547,None,2402.455916777486,2402.5557310209842,s217_04122023,001,2023_Apr_12_1615,test_typingtask_norepeats,2020.2.10,59.943286938280934,
would,would,,,,,,,,,0,106,106,106,,,,,,,,,,,,,,,2407.9560712780803,None,"['w', 'o', 'u', 'l', 'd']",1,"[0.6741021979833022, 0.7860307940281928, 0.9060354620451108, 1.0660847109975293, 1.2179780950536951]",2407.9560712780803,None,2407.956305470434,2408.056173127028,s217_04122023,001,2023_Apr_12_1615,test_typingtask_norepeats,2020.2.10,59.943286938280934,
haole,haole,,,,,,,,,0,107,107,107,,,,,,,,,,,,,,,2413.4560540639795,None,"['h', 'a', 'o', 'l', 'e']",1,"[0.8381068240851164, 0.918062222073786, 1.1100001820595935, 1.3020788420690224, 1.4300814060261473]",2413.4560540639795,None,2413.4562177704647,2413.556159395026,s217_04122023,001,2023_Apr_12_1615,test_typingtask_norepeats,2020.2.10,59.943286938280934,
heond,heond,,,,,,,,,0,108,108,108,,,,,,,,,,,,,,,2418.9560624960577,None,"['h', 'e', 'o', 'n', 'd']",1,"[0.8339790829923004, 0.9541042828932405, 1.0500527149997652, 1.1940320699941367, 1.3459892160026357]",2418.9560624960577,None,2418.955862608389,2419.055929358001,s217_04122023,001,2023_Apr_12_1615,test_typingtask_norepeats,2020.2.10,59.943286938280934,
tithe,tithe,,,,,,,,,0,109,109,109,,,,,,,,,,,,,,,2424.4563610689947,None,"['t', 'i', 't', 'h', 'e']",1,"[0.973759480053559, 1.12576402106788, 1.2297726930119097, 1.3417351740645245, 1.4617001730948687]",2424.4563610689947,None,2424.4561816893984,2424.556453621015,s217_04122023,001,2023_Apr_12_1615,test_typingtask_norepeats,2020.2.10,59.943286938280934,
about,about,,,,,,,,,0,110,110,110,,,,,,,,,,,,,,,2429.955850937986,None,"['a', 'b', 'o', 'u', 't']",1,"[0.8903142049675807, 1.0022981819929555, 1.1622881540097296, 1.3063156589632854, 1.4743168720742688]",2429.955850937986,None,2429.9560236873804,2430.0559269189835,s217_04122023,001,2023_Apr_12_1615,test_typingtask_norepeats,2020.2.10,59.943286938280934,
kremp,kremp,,,,,,,,,0,111,111,111,,,,,,,,,,,,,,,2435.455830018036,None,"['k', 'r', 'e', 'm', 'p']",1,"[0.9023210180457681, 1.0783029349986464, 1.1903369060019031, 1.3183836650568992, 1.470323370071128]",2435.455830018036,None,2435.4559534534346,2435.556257536984,s217_04122023,001,2023_Apr_12_1615,test_typingtask_norepeats,2020.2.10,59.943286938280934,
tithe,tithe,,,,,,,,,0,112,112,112,,,,,,,,,,,,,,,2440.956244738074,None,"['t', 'i', 't', 'h', 'e']",1,"[1.129834827966988, 1.2579113829415292, 1.3458273049909621, 1.4418425100157037, 1.5379159229341894]",2440.956244738074,None,2440.95625521848,2441.0561193400063,s217_04122023,001,2023_Apr_12_1615,test_typingtask_norepeats,2020.2.10,59.943286938280934,
vanru,vanru,,,,,,,,,0,113,113,113,,,,,,,,,,,,,,,2446.456075518974,None,"['v', 'a', 'n', 'r', 'u']",1,"[0.7901011939393356, 0.8620941740227863, 1.006044046021998, 1.1580935439560562, 1.2940479960525408]",2446.456075518974,None,2446.456337858457,2446.5562304470222,s217_04122023,001,2023_Apr_12_1615,test_typingtask_norepeats,2020.2.10,59.943286938280934,
kremp,kremp,,,,,,,,,0,114,114,114,,,,,,,,,,,,,,,2451.95601092407,None,"['k', 'r', 'e', 'm', 'p']",1,"[0.7381521590286866, 0.8581417970126495, 0.9541463640052825, 1.0021202079951763, 1.122103528934531]",2451.95601092407,None,2451.95637472847,2452.056268276996,s217_04122023,001,2023_Apr_12_1615,test_typingtask_norepeats,2020.2.10,59.943286938280934,
cheer,cheer,,,,,,,,,0,115,115,115,,,,,,,,,,,,,,,2457.4562689700397,None,"['c', 'h', 'e', 'e', 'r']",1,"[0.6058393940329552, 0.7498592740157619, 0.8457654010271654, 1.0218993549933657, 1.1018680200213566]",2457.4562689700397,None,2457.456203003414,2457.5563487639884,s217_04122023,001,2023_Apr_12_1615,test_typingtask_norepeats,2020.2.10,59.943286938280934,
heond,heond,,,,,,,,,0,116,116,116,,,,,,,,,,,,,,,2462.956048742053,None,"['h', 'e', 'o', 'n', 'd']",1,"[0.7700760219013318, 0.8821044119540602, 0.9700671409955248, 1.0740680859889835, 1.2019882620079443]",2462.956048742053,None,2462.955734976451,2463.055946354987,s217_04122023,001,2023_Apr_12_1615,test_typingtask_norepeats,2020.2.10,59.943286938280934,
lucky,lucky,,,,,,,,,0,117,117,117,,,,,,,,,,,,,,,2468.455858521047,None,"['l', 'u', 'c', 'k', 'y']",1,"[0.6702787489630282, 0.894251941004768, 1.0541940010152757, 1.198232832015492, 1.4304447859758511]",2468.455858521047,None,2468.4559196484042,2468.555903651053,s217_04122023,001,2023_Apr_12_1615,test_typingtask_norepeats,2020.2.10,59.943286938280934,
about,about,,,,,,,,,0,118,118,118,,,,,,,,,,,,,,,2473.9564224000787,None,"['a', 'b', 'o', 'u', 't']",1,"[0.6817114920122549, 0.8017264810623601, 1.0816506720148027, 1.1937381740426645, 1.3377229130128399]",2473.9564224000787,None,2473.9562109714607,2474.0561629850417,s217_04122023,001,2023_Apr_12_1615,test_typingtask_norepeats,2020.2.10,59.943286938280934,
champ,champ,,,,,,,,,0,119,119,119,,,,,,,,,,,,,,,2479.4560173570644,None,"['c', 'h', 'a', 'm', 'p']",1,"[0.7741456950316206, 0.8701220110524446, 0.9741398540791124, 1.1021044420776889, 1.254125202074647]",2479.4560173570644,None,2479.456068527419,2479.555726716062,s217_04122023,001,2023_Apr_12_1615,test_typingtask_norepeats,2020.2.10,59.943286938280934,
