string,corrAns,practice_trials.thisRepN,practice_trials.thisTrialN,practice_trials.thisN,practice_trials.thisIndex,trials_1.thisRepN,trials_1.thisTrialN,trials_1.thisN,trials_1.thisIndex,trials_2.thisRepN,trials_2.thisTrialN,trials_2.thisN,trials_2.thisIndex,key_resp_0.keys,key_resp_0.corr,key_resp_0.rt,text_1.started,text_1.stopped,key_resp_1.keys,key_resp_1.corr,key_resp_1.rt,key_resp_1.started,key_resp_1.stopped,sound_1A_1.started,sound_1A_1.stopped,break_time.started,break_time.stopped,text_2.started,text_2.stopped,key_resp_2.keys,key_resp_2.corr,key_resp_2.rt,key_resp_2.started,key_resp_2.stopped,sound_1A_2.started,sound_1A_2.stopped,participant,session,date,expName,psychopyVersion,frameRate,
fresh,fresh,0,0,0,0,,,,,,,,,"['f', 'r', 'e', 's', 'h']",1,"[1.379721499979496, 1.61168560013175, 1.7158177001401782, 1.8120324001647532, 1.9318055999465287]",,,,,,,,,,,,,,,,,,,,,s217_11092023,001,2023-11-09_16h11.01.929,test_typingtask_norepeats,2020.2.10,59.986095270871,
dream,dream,0,1,1,1,,,,,,,,,"['d', 'r', 'e', 'a', 'm']",1,"[0.7197398999705911, 0.9358103000558913, 1.023732100147754, 1.0957498999778181, 1.1596527001820505]",,,,,,,,,,,,,,,,,,,,,s217_11092023,001,2023-11-09_16h11.01.929,test_typingtask_norepeats,2020.2.10,59.986095270871,
slime,slime,0,2,2,2,,,,,,,,,"['s', 'l', 'i', 'm', 'e']",1,"[0.6037469999864697, 0.7077144999057055, 0.8436880998779088, 1.0357204000465572, 1.1476813000626862]",,,,,,,,,,,,,,,,,,,,,s217_11092023,001,2023-11-09_16h11.01.929,test_typingtask_norepeats,2020.2.10,59.986095270871,
cheer,cheer,,,,,0,0,0,0,,,,,,,,101.80660109990276,None,"['c', 'h', 'e', 'e', 'r']",1,"[0.7722629001364112, 0.8843425000086427, 1.0123632999602705, 1.1803737001027912, 1.2683864999562502]",101.80660109990276,None,101.80575450006873,101.9058759000618,,,,,,,,,,,,s217_11092023,001,2023-11-09_16h11.01.929,test_typingtask_norepeats,2020.2.10,59.986095270871,
haole,haole,,,,,0,1,1,1,,,,,,,,107.30584280006588,None,"['h', 'a', 'o', 'l', 'e']",1,"[0.7770187999121845, 0.8731677997857332, 1.0490124998614192, 1.2410295999143273, 1.3531372998841107]",107.30584280006588,None,107.30576889994555,107.40583770000376,,,,,,,,,,,,s217_11092023,001,2023-11-09_16h11.01.929,test_typingtask_norepeats,2020.2.10,59.986095270871,
heond,heond,,,,,0,2,2,2,,,,,,,,112.8059215999674,None,"['h', 'e', 'o', 'n', 'd']",1,"[0.7651126999408007, 0.836896900087595, 0.932950499933213, 1.0529453998897225, 1.1489468000363559]",112.8059215999674,None,112.80578199992888,112.90586269996129,,,,,,,,,,,,s217_11092023,001,2023-11-09_16h11.01.929,test_typingtask_norepeats,2020.2.10,59.986095270871,
lucky,lucky,,,,,0,3,3,3,,,,,,,,118.3059197999537,None,"['l', 'u', 'c', 'k', 'y']",1,"[0.6890400000847876, 0.8730676001869142, 1.0089421002194285, 1.1049351000692695, 1.3210547000635415]",118.3059197999537,None,118.3057551000733,118.4059226999525,,,,,,,,,,,,s217_11092023,001,2023-11-09_16h11.01.929,test_typingtask_norepeats,2020.2.10,59.986095270871,
zibja,zibja,,,,,0,4,4,4,,,,,,,,123.80594020010903,None,"['z', 'i', 'b', 'j', 'a']",1,"[1.1969456998631358, 1.308881500037387, 1.4768969998694956, 1.7088947999291122, 1.8370389000046998]",123.80594020010903,None,123.80581579995342,123.90592990000732,,,,,,,,,,,,s217_11092023,001,2023-11-09_16h11.01.929,test_typingtask_norepeats,2020.2.10,59.986095270871,
heond,heond,,,,,0,5,5,5,,,,,,,,129.30594919994473,None,"['h', 'e', 'o', 'n', 'd']",1,"[0.8731041999999434, 0.9770456999540329, 1.0650482999626547, 1.1849330000113696, 1.3050665000919253]",129.30594919994473,None,129.30583879989572,129.4059500999283,,,,,,,,,,,,s217_11092023,001,2023-11-09_16h11.01.929,test_typingtask_norepeats,2020.2.10,59.986095270871,
kremp,kremp,,,,,0,6,6,6,,,,,,,,134.8059394999873,None,"['k', 'r', 'e', 'm', 'p']",1,"[0.8369446001015604, 0.9969356001820415, 1.0688994000665843, 1.1728994001168758, 1.3489983000326902]",134.8059394999873,None,134.80585460001603,134.9059768000152,,,,,,,,,,,,s217_11092023,001,2023-11-09_16h11.01.929,test_typingtask_norepeats,2020.2.10,59.986095270871,
cooed,cooed,,,,,0,7,7,7,,,,,,,,140.30595399998128,None,"['c', 'o', 'o', 'e', 'd']",1,"[0.7209451000671834, 0.8409556001424789, 1.0169538999907672, 1.225160000147298, 1.4489361001178622]",140.30595399998128,None,140.30587950008922,140.4059868999757,,,,,,,,,,,,s217_11092023,001,2023-11-09_16h11.01.929,test_typingtask_norepeats,2020.2.10,59.986095270871,
tithe,tithe,,,,,0,8,8,8,,,,,,,,145.8059932999313,None,"['t', 'i', 't', 'h', 'e']",1,"[0.7249604999087751, 0.8048782998230308, 0.9170315999072045, 0.9889127998612821, 1.0850423998199403]",145.8059932999313,None,145.8059160000179,145.90600969991647,,,,,,,,,,,,s217_11092023,001,2023-11-09_16h11.01.929,test_typingtask_norepeats,2020.2.10,59.986095270871,
vodka,vodka,,,,,0,9,9,9,,,,,,,,151.3059843000956,None,"['v', 'o', 'd', 'k', 'a']",1,"[0.8809189000166953, 1.00089480006136, 1.1290390000212938, 1.305021399864927, 1.4570007000584155]",151.3059843000956,None,151.30591540001333,151.40602710004896,,,,,,,,,,,,s217_11092023,001,2023-11-09_16h11.01.929,test_typingtask_norepeats,2020.2.10,59.986095270871,
buddy,buddy,,,,,0,10,10,10,,,,,,,,156.80601039994508,None,"['b', 'u', 'd', 'd', 'y']",1,"[0.652892499929294, 0.8368424000218511, 0.9648176999762654, 1.1170731999445707, 1.2288788000587374]",156.80601039994508,None,156.8058983998839,156.90604069991969,,,,,,,,,,,,s217_11092023,001,2023-11-09_16h11.01.929,test_typingtask_norepeats,2020.2.10,59.986095270871,
druze,druze,,,,,0,11,11,11,,,,,,,,162.30604619998485,None,"['d', 'r', 'u', 'z', 'e']",1,"[0.6648589000105858, 0.8488953001797199, 0.984837300144136, 1.1289483001455665, 1.3049143999814987]",162.30604619998485,None,162.30590419992805,162.40606849989854,,,,,,,,,,,,s217_11092023,001,2023-11-09_16h11.01.929,test_typingtask_norepeats,2020.2.10,59.986095270871,
zibja,zibja,,,,,0,12,12,12,,,,,,,,167.80604779999703,None,"['z', 'i', 'b', 'j', 'a']",1,"[0.7408592998981476, 0.8768380000256002, 1.0050033999141306, 1.2129969999659806, 1.349009099882096]",167.80604779999703,None,167.80596690005623,167.90608350001276,,,,,,,,,,,,s217_11092023,001,2023-11-09_16h11.01.929,test_typingtask_norepeats,2020.2.10,59.986095270871,
pykka,pykka,,,,,0,13,13,13,,,,,,,,173.30606149998493,None,"['p', 'y', 'k', 'k', 'a']",1,"[0.760834600077942, 1.0088257000315934, 1.3768372999038547, 1.5049673998728395, 1.6650636000558734]",173.30606149998493,None,173.30597449988127,173.4060716999229,,,,,,,,,,,,s217_11092023,001,2023-11-09_16h11.01.929,test_typingtask_norepeats,2020.2.10,59.986095270871,
therm,therm,,,,,0,14,14,14,,,,,,,,178.80612930003554,None,"['t', 'h', 'e', 'r', 'm']",1,"[0.620781899895519, 0.7567646999377757, 0.8369816998019814, 0.9170584999956191, 1.004751699976623]",178.80612930003554,None,178.80599859994837,178.90608550002798,,,,,,,,,,,,s217_11092023,001,2023-11-09_16h11.01.929,test_typingtask_norepeats,2020.2.10,59.986095270871,
theme,theme,,,,,0,15,15,15,,,,,,,,184.30614660005085,None,"['t', 'h', 'e', 'm', 'e']",1,"[0.7127839000895619, 0.8247571000829339, 0.8888290000613779, 1.0247416999191046, 1.0888620999176055]",184.30614660005085,None,184.3060247000307,184.40614510001615,,,,,,,,,,,,s217_11092023,001,2023-11-09_16h11.01.929,test_typingtask_norepeats,2020.2.10,59.986095270871,
kremp,kremp,,,,,0,16,16,16,,,,,,,,189.8061607000418,None,"['k', 'r', 'e', 'm', 'p']",1,"[0.732825999846682, 0.8448263998143375, 0.9487952999770641, 0.9968392997980118, 1.1807253998704255]",189.8061607000418,None,189.8060194999911,189.9061694999691,,,,,,,,,,,,s217_11092023,001,2023-11-09_16h11.01.929,test_typingtask_norepeats,2020.2.10,59.986095270871,
think,think,,,,,0,17,17,17,,,,,,,,195.30618329998106,None,"['t', 'h', 'i', 'n', 'k']",1,"[0.6328150001354516, 0.7207137001678348, 0.8007157000247389, 0.9528440001886338, 1.072691700188443]",195.30618329998106,None,195.30607489994728,195.4061781000346,,,,,,,,,,,,s217_11092023,001,2023-11-09_16h11.01.929,test_typingtask_norepeats,2020.2.10,59.986095270871,
haole,haole,,,,,0,18,18,18,,,,,,,,200.80620099999942,None,"['h', 'a', 'o', 'l', 'e']",1,"[0.7407265999354422, 0.8286913000047207, 0.9727080999873579, 1.1807933000382036, 1.2768202999141067]",200.80620099999942,None,200.80609940001742,200.90620579989627,,,,,,,,,,,,s217_11092023,001,2023-11-09_16h11.01.929,test_typingtask_norepeats,2020.2.10,59.986095270871,
heond,heond,,,,,0,19,19,19,,,,,,,,206.30621990002692,None,"['h', 'e', 'o', 'n', 'd']",1,"[0.8246802999638021, 0.9366987999528646, 1.0328430000226945, 1.1606988001149148, 1.3047504001297057]",206.30621990002692,None,206.30609579999,206.4062274999451,,,,,,,,,,,,s217_11092023,001,2023-11-09_16h11.01.929,test_typingtask_norepeats,2020.2.10,59.986095270871,
would,would,,,,,0,20,20,20,,,,,,,,211.80624810000882,None,"['w', 'o', 'u', 'l', 'd']",1,"[0.6206840998493135, 0.7167082000523806, 0.8367873998358846, 0.9887844999320805, 1.124816499883309]",211.80624810000882,None,211.80609370009043,211.906244300073,,,,,,,,,,,,s217_11092023,001,2023-11-09_16h11.01.929,test_typingtask_norepeats,2020.2.10,59.986095270871,
buddy,buddy,,,,,0,21,21,21,,,,,,,,217.30622170004062,None,"['b', 'u', 'd', 'd', 'y']",1,"[0.712711300002411, 0.8888302999548614, 1.0648089998867363, 1.2246973000001162, 1.3528783000074327]",217.30622170004062,None,217.3061557999812,217.40623000008054,,,,,,,,,,,,s217_11092023,001,2023-11-09_16h11.01.929,test_typingtask_norepeats,2020.2.10,59.986095270871,
druze,druze,,,,,0,22,22,22,,,,,,,,222.80627160007134,None,"['d', 'r', 'u', 'z', 'e']",1,"[0.8366700999904424, 1.0366368999239057, 1.1647695999126881, 1.332697100006044, 1.524882399942726]",222.80627160007134,None,222.80641970001162,222.90628769993782,,,,,,,,,,,,s217_11092023,001,2023-11-09_16h11.01.929,test_typingtask_norepeats,2020.2.10,59.986095270871,
haole,haole,,,,,0,23,23,23,,,,,,,,228.3063171999529,None,"['h', 'a', 'o', 'l', 'e']",1,"[0.6726185001898557, 0.7447265000082552, 0.8806021001655608, 1.0805893000215292, 1.1447281001601368]",228.3063171999529,None,228.30616720006802,228.40631120000035,,,,,,,,,,,,s217_11092023,001,2023-11-09_16h11.01.929,test_typingtask_norepeats,2020.2.10,59.986095270871,
champ,champ,,,,,0,24,24,24,,,,,,,,233.80628939997405,None,"['c', 'h', 'a', 'm', 'p']",1,"[0.6046687001362443, 0.7007067000959069, 0.7887531002052128, 0.924715300090611, 1.108770800055936]",233.80628939997405,None,233.80620930003934,233.90628869994543,,,,,,,,,,,,s217_11092023,001,2023-11-09_16h11.01.929,test_typingtask_norepeats,2020.2.10,59.986095270871,
therm,therm,,,,,0,25,25,25,,,,,,,,239.30635339999571,None,"['t', 'h', 'e', 'r', 'm']",1,"[0.6006100999657065, 0.7046078001148999, 0.7928131001535803, 0.8806027001701295, 0.9365654999855906]",239.30635339999571,None,239.3062232999131,239.4063230000902,,,,,,,,,,,,s217_11092023,001,2023-11-09_16h11.01.929,test_typingtask_norepeats,2020.2.10,59.986095270871,
edthe,edthe,,,,,0,26,26,26,,,,,,,,244.8063709998969,None,"['e', 'd', 't', 'h', 'e']",1,"[0.6925751999951899, 0.8925693000201136, 1.0366851000580937, 1.156556500121951, 1.2525647000875324]",244.8063709998969,None,244.80630290005357,None,,,,,,,,,,,,s217_11092023,001,2023-11-09_16h11.01.929,test_typingtask_norepeats,2020.2.10,59.986095270871,
kremp,kremp,,,,,0,27,27,27,,,,,,,,250.3064003000036,None,"['k', 'r', 'e', 'm', 'p']",1,"[0.7845604999456555, 0.9205372999422252, 1.0086699998937547, 1.0646746000275016, 1.248670700006187]",250.3064003000036,None,250.3065099998843,250.40639419993386,,,,,,,,,,,,s217_11092023,001,2023-11-09_16h11.01.929,test_typingtask_norepeats,2020.2.10,59.986095270871,
cooed,cooed,,,,,0,28,28,28,,,,,,,,255.8063835001085,None,"['c', 'o', 'o', 'e', 'd']",1,"[0.780581200029701, 0.9325674001593143, 1.1166766001842916, 1.2846735001076013, 1.4846149999648333]",255.8063835001085,None,255.80629919990898,255.90641819988377,,,,,,,,,,,,s217_11092023,001,2023-11-09_16h11.01.929,test_typingtask_norepeats,2020.2.10,59.986095270871,
vanru,vanru,,,,,0,29,29,29,,,,,,,,261.3064081999473,None,"['v', 'a', 'n', 'r', 'u']",1,"[1.472560100024566, 1.5925292000174522, 1.720582399982959, 1.8487639999948442, 1.952668400015682]",261.3064081999473,None,261.30632559987714,261.4064549000468,,,,,,,,,,,,s217_11092023,001,2023-11-09_16h11.01.929,test_typingtask_norepeats,2020.2.10,59.986095270871,
cooed,cooed,,,,,0,30,30,30,,,,,,,,266.80643530003726,None,"['c', 'o', 'o', 'e', 'd']",1,"[0.6127556001301855, 0.772625100100413, 0.9327022000215948, 1.0686733999755234, 1.2525845000054687]",266.80643530003726,None,266.80645270003004,266.90648159990087,,,,,,,,,,,,s217_11092023,001,2023-11-09_16h11.01.929,test_typingtask_norepeats,2020.2.10,59.986095270871,
about,about,,,,,0,31,31,31,,,,,,,,272.30644949991256,None,"['a', 'b', 'o', 'u', 't']",1,"[0.6725308999884874, 0.8085263001266867, 0.9526504999957979, 1.1365004000253975, 1.288542800117284]",272.30644949991256,None,272.3063834999688,272.4064919000957,,,,,,,,,,,,s217_11092023,001,2023-11-09_16h11.01.929,test_typingtask_norepeats,2020.2.10,59.986095270871,
theme,theme,,,,,0,32,32,32,,,,,,,,277.80648129992187,None,"['t', 'h', 'e', 'm', 'e']",1,"[0.7885059998370707, 0.9085968998260796, 0.9884854999836534, 1.1405306998640299, 1.2204661997966468]",277.80648129992187,None,277.8064352000132,277.90648090001196,,,,,,,,,,,,s217_11092023,001,2023-11-09_16h11.01.929,test_typingtask_norepeats,2020.2.10,59.986095270871,
zibja,zibja,,,,,0,33,33,33,,,,,,,,283.30654089991003,None,"['z', 'i', 'b', 'j', 'a']",1,"[0.7364420001395047, 0.8484217000659555, 0.968442500103265, 1.2006709000561386, 1.3605541000142694]",283.30654089991003,None,283.3063949000556,283.4064950000029,,,,,,,,,,,,s217_11092023,001,2023-11-09_16h11.01.929,test_typingtask_norepeats,2020.2.10,59.986095270871,
pykka,pykka,,,,,0,34,34,34,,,,,,,,288.8065516001079,None,"['p', 'y', 'k', 'k', 'a']",1,"[0.6924262000247836, 0.9244363000616431, 1.3009144000243396, 1.4365479999687523, 1.5884267999790609]",288.8065516001079,None,288.8066880000755,288.90656289993785,,,,,,,,,,,,s217_11092023,001,2023-11-09_16h11.01.929,test_typingtask_norepeats,2020.2.10,59.986095270871,
would,would,,,,,0,35,35,35,,,,,,,,294.3065510999877,None,"['w', 'o', 'u', 'l', 'd']",1,"[0.6964371001813561, 0.8245578999631107, 0.9444039000663906, 1.1045248999726027, 1.2644842001609504]",294.3065510999877,None,294.3064837999176,None,,,,,,,,,,,,s217_11092023,001,2023-11-09_16h11.01.929,test_typingtask_norepeats,2020.2.10,59.986095270871,
therm,therm,,,,,0,36,36,36,,,,,,,,299.8066225000657,None,"['t', 'h', 'e', 'r', 'm']",1,"[0.7483288999646902, 0.8603886999189854, 0.964315899880603, 1.0365077999886125, 1.1004854999482632]",299.8066225000657,None,299.8064909999724,None,,,,,,,,,,,,s217_11092023,001,2023-11-09_16h11.01.929,test_typingtask_norepeats,2020.2.10,59.986095270871,
think,think,,,,,0,37,37,37,,,,,,,,305.3066428001039,None,"['t', 'h', 'i', 'n', 'k']",1,"[0.704363000113517, 0.8243883000686765, 0.9364503000397235, 1.080468200147152, 1.2083529999945313]",305.3066428001039,None,305.30654759993774,None,,,,,,,,,,,,s217_11092023,001,2023-11-09_16h11.01.929,test_typingtask_norepeats,2020.2.10,59.986095270871,
kremp,kremp,,,,,0,38,38,38,,,,,,,,310.80665450007655,None,"['k', 'r', 'e', 'm', 'p']",1,"[0.6603521001525223, 0.820490000071004, 0.9403445001225919, 1.0124976001679897, 1.1563198000658303]",310.80665450007655,None,310.8065203000791,None,,,,,,,,,,,,s217_11092023,001,2023-11-09_16h11.01.929,test_typingtask_norepeats,2020.2.10,59.986095270871,
cooed,cooed,,,,,0,39,39,39,,,,,,,,316.30669269990176,None,"['c', 'o', 'o', 'e', 'd']",1,"[0.6562949998769909, 0.8162834998220205, 0.9842977998778224, 1.1682763998396695, 1.3683223999105394]",316.30669269990176,None,316.30660399990154,None,,,,,,,,,,,,s217_11092023,001,2023-11-09_16h11.01.929,test_typingtask_norepeats,2020.2.10,59.986095270871,
haole,haole,,,,,0,40,40,40,,,,,,,,321.80671890010126,None,"['h', 'a', 'o', 'l', 'e']",1,"[0.7323088000994176, 0.8442762000486255, 0.9882753000129014, 1.204296100186184, 1.3402553000487387]",321.80671890010126,None,321.80658070007337,None,,,,,,,,,,,,s217_11092023,001,2023-11-09_16h11.01.929,test_typingtask_norepeats,2020.2.10,59.986095270871,
puppy,puppy,,,,,0,41,41,41,,,,,,,,327.30673799989745,None,"['p', 'u', 'p', 'p', 'y']",1,"[0.5922701000235975, 0.7522541999351233, 0.8883609999902546, 1.0642505998257548, 1.2322706999257207]",327.30673799989745,None,327.3066081000492,None,,,,,,,,,,,,s217_11092023,001,2023-11-09_16h11.01.929,test_typingtask_norepeats,2020.2.10,59.986095270871,
vodka,vodka,,,,,0,42,42,42,,,,,,,,332.8067872999236,None,"['v', 'o', 'd', 'k', 'a']",1,"[0.8923702000174671, 1.004363900050521, 1.1402255999855697, 1.2842899998649955, 1.3961843999568373]",332.8067872999236,None,332.8066606000997,None,,,,,,,,,,,,s217_11092023,001,2023-11-09_16h11.01.929,test_typingtask_norepeats,2020.2.10,59.986095270871,
puppy,puppy,,,,,0,43,43,43,,,,,,,,338.30679320008494,None,"['p', 'u', 'p', 'p', 'y']",1,"[0.6722237998619676, 0.8403948000632226, 0.976281699957326, 1.1682821998838335, 1.3443758999928832]",338.30679320008494,None,338.3066669999156,None,,,,,,,,,,,,s217_11092023,001,2023-11-09_16h11.01.929,test_typingtask_norepeats,2020.2.10,59.986095270871,
faqir,faqir,,,,,0,44,44,44,,,,,,,,343.8067856999114,None,"['f', 'q', 'backspace', 'a', 'q', 'i', 'r']",0,"[0.9723565001040697, 1.2682550000026822, 1.6522276001051068, 1.900439500110224, 2.1004043000284582, 2.2921790000982583, 2.444352300139144]",343.8067856999114,None,343.8067047999706,None,,,,,,,,,,,,s217_11092023,001,2023-11-09_16h11.01.929,test_typingtask_norepeats,2020.2.10,59.986095270871,
vodka,vodka,,,,,0,45,45,45,,,,,,,,349.3068425001111,None,"['v', 'o', 'd', 'k', 'a']",1,"[0.7441807999275625, 0.840162199921906, 0.9681545000057667, 1.0641584999393672, 1.184251100057736]",349.3068425001111,None,349.30668549994004,None,,,,,,,,,,,,s217_11092023,001,2023-11-09_16h11.01.929,test_typingtask_norepeats,2020.2.10,59.986095270871,
kremp,kremp,,,,,0,46,46,46,,,,,,,,354.80700369994156,None,"['k', 'r', 'e', 'm', 'p']",1,"[0.7562430000398308, 0.9080145999323577, 0.9960054999683052, 1.075975100044161, 1.2280379000585526]",354.80700369994156,None,354.80692449989726,None,,,,,,,,,,,,s217_11092023,001,2023-11-09_16h11.01.929,test_typingtask_norepeats,2020.2.10,59.986095270871,
haole,haole,,,,,0,47,47,47,,,,,,,,360.3068742000032,None,"['h', 'a', 'o', 'l', 'e']",1,"[0.8163395998999476, 0.9842611998319626, 1.1282702998723835, 1.3442505998536944, 1.4322603000327945]",360.3068742000032,None,360.30681260009294,None,,,,,,,,,,,,s217_11092023,001,2023-11-09_16h11.01.929,test_typingtask_norepeats,2020.2.10,59.986095270871,
therm,therm,,,,,0,48,48,48,,,,,,,,365.8069209000096,None,"['t', 'h', 'e', 'r', 'm']",1,"[0.7401199999731034, 0.8280896998476237, 0.9402274000458419, 1.0202150999102741, 1.0600953998509794]",365.8069209000096,None,365.8068118999712,365.9069352000952,,,,,,,,,,,,s217_11092023,001,2023-11-09_16h11.01.929,test_typingtask_norepeats,2020.2.10,59.986095270871,
belly,belly,,,,,0,49,49,49,,,,,,,,371.30694820010103,None,"['b', 'e', 'l', 'l', 'y']",1,"[0.6640411000698805, 0.7922157000284642, 0.8721392001025379, 1.0320572999771684, 1.1520327001344413]",371.30694820010103,None,371.30684260008854,None,,,,,,,,,,,,s217_11092023,001,2023-11-09_16h11.01.929,test_typingtask_norepeats,2020.2.10,59.986095270871,
there,there,,,,,0,50,50,50,,,,,,,,376.8069817000069,None,"['t', 'h', 'e', 'r', 'e']",1,"[0.6280426001176238, 0.7320419000461698, 0.7881522001698613, 0.8760387001093477, 0.9560231000650674]",376.8069817000069,None,376.80687770000657,None,,,,,,,,,,,,s217_11092023,001,2023-11-09_16h11.01.929,test_typingtask_norepeats,2020.2.10,59.986095270871,
tithe,tithe,,,,,0,51,51,51,,,,,,,,382.30697789997794,None,"['t', 'i', 't', 'h', 'e']",1,"[0.6000568999443203, 0.696082399925217, 0.7921823000069708, 0.8641927000135183, 0.9361771999392658]",382.30697789997794,None,382.30695299999786,None,,,,,,,,,,,,s217_11092023,001,2023-11-09_16h11.01.929,test_typingtask_norepeats,2020.2.10,59.986095270871,
buddy,buddy,,,,,0,52,52,52,,,,,,,,387.8070439998992,None,"['b', 'u', 'd', 'd', 'y']",1,"[0.5960040998179466, 0.7879903998691589, 0.908009999897331, 1.0521647999994457, 1.17200249992311]",387.8070439998992,None,387.80695689991114,None,,,,,,,,,,,,s217_11092023,001,2023-11-09_16h11.01.929,test_typingtask_norepeats,2020.2.10,59.986095270871,
heond,heond,,,,,0,53,53,53,,,,,,,,393.3070638999343,None,"['h', 'e', 'o', 'n', 'd']",1,"[0.7119891000911593, 0.8159892000257969, 0.896100000012666, 0.9999790000729263, 1.104205199982971]",393.3070638999343,None,393.30696209995074,None,,,,,,,,,,,,s217_11092023,001,2023-11-09_16h11.01.929,test_typingtask_norepeats,2020.2.10,59.986095270871,
vanru,vanru,,,,,0,54,54,54,,,,,,,,398.8071010001004,None,"['v', 'a', 'n', 'r', 'u']",1,"[0.7079441000241786, 0.7959770001471043, 0.8920589000917971, 1.0360332999844104, 1.1479226001538336]",398.8071010001004,None,398.80699520008636,None,,,,,,,,,,,,s217_11092023,001,2023-11-09_16h11.01.929,test_typingtask_norepeats,2020.2.10,59.986095270871,
belly,belly,,,,,0,55,55,55,,,,,,,,404.30710240011103,None,"['b', 'e', 'l', 'l', 'y']",1,"[0.7119687001686543, 0.8320131001528352, 0.9199475001078099, 1.0800560000352561, 1.2240679999813437]",404.30710240011103,None,404.30703919995574,None,,,,,,,,,,,,s217_11092023,001,2023-11-09_16h11.01.929,test_typingtask_norepeats,2020.2.10,59.986095270871,
faqir,faqir,,,,,0,56,56,56,,,,,,,,409.80712709994987,None,"['f', 'a', 'q', 'i', 'r']",1,"[1.139948199968785, 1.4040282000787556, 1.6439167999196798, 1.8759159001056105, 2.004024399910122]",409.80712709994987,None,409.8070391000714,None,,,,,,,,,,,,s217_11092023,001,2023-11-09_16h11.01.929,test_typingtask_norepeats,2020.2.10,59.986095270871,
champ,champ,,,,,0,57,57,57,,,,,,,,415.30718849995174,None,"['c', 'h', 'a', 'm', 'p']",1,"[0.6478786999359727, 0.7358818000648171, 0.8240726999938488, 0.951971200061962, 1.0960735001135617]",415.30718849995174,None,415.3071037000976,None,,,,,,,,,,,,s217_11092023,001,2023-11-09_16h11.01.929,test_typingtask_norepeats,2020.2.10,59.986095270871,
cooed,cooed,,,,,0,58,58,58,,,,,,,,420.8071796000004,None,"['c', 'o', 'o', 'e', 'd']",1,"[0.6518828000407666, 0.795882900012657, 0.971865399973467, 1.099855599924922, 1.2999273999594152]",420.8071796000004,None,420.8070844000671,None,,,,,,,,,,,,s217_11092023,001,2023-11-09_16h11.01.929,test_typingtask_norepeats,2020.2.10,59.986095270871,
edthe,edthe,,,,,0,59,59,59,,,,,,,,426.307238599984,None,"['e', 'd', 't', 'h', 'e']",1,"[0.7758372998796403, 0.9999384998809546, 1.1599772998597473, 1.2959262998774648, 1.4079326000064611]",426.307238599984,None,426.30710949990896,None,,,,,,,,,,,,s217_11092023,001,2023-11-09_16h11.01.929,test_typingtask_norepeats,2020.2.10,59.986095270871,
theme,theme,,,,,0,60,60,60,,,,,,,,431.80727440002374,None,"['t', 'h', 'e', 'm', 'e']",1,"[0.6758030001074076, 0.8038085999432951, 0.8757820001337677, 1.0278890000190586, 1.083874500123784]",431.80727440002374,None,431.8071613999549,None,,,,,,,,,,,,s217_11092023,001,2023-11-09_16h11.01.929,test_typingtask_norepeats,2020.2.10,59.986095270871,
vodka,vodka,,,,,0,61,61,61,,,,,,,,437.30731859989464,None,"['v', 'o', 'd', 'k', 'a']",1,"[0.7602007000241429, 0.8237709000241011, 0.9677343000657856, 1.071700300090015, 1.1918385000899434]",437.30731859989464,None,437.30713599999433,None,,,,,,,,,,,,s217_11092023,001,2023-11-09_16h11.01.929,test_typingtask_norepeats,2020.2.10,59.986095270871,
edthe,edthe,,,,,0,62,62,62,,,,,,,,442.8072883998975,None,"['e', 'd', 't', 'h', 'e']",1,"[0.6357871999498457, 0.8917682999745011, 1.0277447998523712, 1.1397875000257045, 1.227881500031799]",442.8072883998975,None,442.8072475999128,None,,,,,,,,,,,,s217_11092023,001,2023-11-09_16h11.01.929,test_typingtask_norepeats,2020.2.10,59.986095270871,
champ,champ,,,,,0,63,63,63,,,,,,,,448.3073615001049,None,"['c', 'h', 'a', 'm', 'p']",1,"[0.7197330999188125, 0.8082691000308841, 0.9039777999278158, 1.0157397000584751, 1.1597337999846786]",448.3073615001049,None,448.3072426999919,None,,,,,,,,,,,,s217_11092023,001,2023-11-09_16h11.01.929,test_typingtask_norepeats,2020.2.10,59.986095270871,
pykka,pykka,,,,,0,64,64,64,,,,,,,,453.8073923001066,None,"['p', 'y', 'k', 'k', 'a']",1,"[0.6840739999897778, 0.8997905000578612, 1.1636783999856561, 1.3076941999606788, 1.451611999887973]",453.8073923001066,None,453.807272899989,None,,,,,,,,,,,,s217_11092023,001,2023-11-09_16h11.01.929,test_typingtask_norepeats,2020.2.10,59.986095270871,
would,would,,,,,0,65,65,65,,,,,,,,459.30742420000024,None,"['w', 'o', 'u', 'l', 'd']",1,"[0.6876733000390232, 0.7837178001645952, 0.9197383001446724, 1.0396535000763834, 1.1516927999909967]",459.30742420000024,None,459.30729720005763,None,,,,,,,,,,,,s217_11092023,001,2023-11-09_16h11.01.929,test_typingtask_norepeats,2020.2.10,59.986095270871,
cheer,cheer,,,,,0,66,66,66,,,,,,,,464.8074316000566,None,"['c', 'h', 'e', 'e', 'r']",1,"[0.7636627999600023, 0.867644399870187, 1.011606799904257, 1.203749599866569, 1.3876625997945666]",464.8074316000566,None,464.8073083999101,None,,,,,,,,,,,,s217_11092023,001,2023-11-09_16h11.01.929,test_typingtask_norepeats,2020.2.10,59.986095270871,
faqir,faqir,,,,,0,67,67,67,,,,,,,,470.30748110008426,None,"['f', 'a', 'q', 'i', 'r']",1,"[0.9116324000060558, 1.063659599982202, 1.3917113000061363, 1.56776660005562, 1.6956008998677135]",470.30748110008426,None,470.30732009988276,None,,,,,,,,,,,,s217_11092023,001,2023-11-09_16h11.01.929,test_typingtask_norepeats,2020.2.10,59.986095270871,
druze,druze,,,,,0,68,68,68,,,,,,,,475.80751139996573,None,"['d', 'r', 'u', 'z', 'e']",1,"[0.7235933002084494, 0.9315705001354218, 1.0997232000809163, 1.259693200001493, 1.4276879001408815]",475.80751139996573,None,475.80735200000925,None,,,,,,,,,,,,s217_11092023,001,2023-11-09_16h11.01.929,test_typingtask_norepeats,2020.2.10,59.986095270871,
zibja,zibja,,,,,0,69,69,69,,,,,,,,481.3075087000616,None,"['z', 'i', 'b', 'j', 'a']",1,"[0.959620299981907, 1.1355908999685198, 1.29555799998343, 1.847798600094393, 2.0717035999987274]",481.3075087000616,None,481.3074202000629,None,,,,,,,,,,,,s217_11092023,001,2023-11-09_16h11.01.929,test_typingtask_norepeats,2020.2.10,59.986095270871,
about,about,,,,,0,70,70,70,,,,,,,,486.8075729999691,None,"['a', 'b', 'o', 'u', 't']",1,"[0.5635727001354098, 0.6595318000763655, 0.795422499999404, 0.9396312001626939, 1.0036287000402808]",486.8075729999691,None,486.80745600010266,None,,,,,,,,,,,,s217_11092023,001,2023-11-09_16h11.01.929,test_typingtask_norepeats,2020.2.10,59.986095270871,
there,there,,,,,0,71,71,71,,,,,,,,492.3076132000424,None,"['t', 'h', 'e', 'r', 'e']",1,"[0.5915488000027835, 0.6954826000146568, 0.7516958999913186, 0.8474822000134736, 0.9355548000894487]",492.3076132000424,None,492.307504200004,None,,,,,,,,,,,,s217_11092023,001,2023-11-09_16h11.01.929,test_typingtask_norepeats,2020.2.10,59.986095270871,
faqir,faqir,,,,,0,72,72,72,,,,,,,,497.8076462999452,None,"['f', 'a', 'q', 'i', 'r']",1,"[0.9634785999078304, 1.1314807999879122, 1.4115699001122266, 1.5875768999103457, 1.707448499975726]",497.8076462999452,None,497.8075295999646,None,,,,,,,,,,,,s217_11092023,001,2023-11-09_16h11.01.929,test_typingtask_norepeats,2020.2.10,59.986095270871,
heond,heond,,,,,0,73,73,73,,,,,,,,503.30767900007777,None,"['h', 'e', 'o', 'n', 'd']",1,"[0.7354449999984354, 0.8234395000617951, 0.9115414000116289, 1.0155633999966085, 1.1514758002012968]",503.30767900007777,None,503.30754629997534,None,,,,,,,,,,,,s217_11092023,001,2023-11-09_16h11.01.929,test_typingtask_norepeats,2020.2.10,59.986095270871,
puppy,puppy,,,,,0,74,74,74,,,,,,,,508.8077076000627,None,"['p', 'u', 'p', 'p', 'y']",1,"[0.5874143000692129, 0.7476236000657082, 0.8837079999502748, 1.0755261001177132, 1.2835915999021381]",508.8077076000627,None,508.80759210009126,None,,,,,,,,,,,,s217_11092023,001,2023-11-09_16h11.01.929,test_typingtask_norepeats,2020.2.10,59.986095270871,
think,think,,,,,0,75,75,75,,,,,,,,514.3077034000307,None,"['t', 'h', 'i', 'n', 'k']",1,"[0.9594632999505848, 1.0314122999552637, 1.1514876000583172, 1.271479899995029, 1.3913472001440823]",514.3077034000307,None,514.3076119998935,None,,,,,,,,,,,,s217_11092023,001,2023-11-09_16h11.01.929,test_typingtask_norepeats,2020.2.10,59.986095270871,
vodka,vodka,,,,,0,76,76,76,,,,,,,,519.8077692000661,None,"['v', 'o', 'd', 'k', 'a']",1,"[0.779371100012213, 0.8753510001115501, 1.0273378000129014, 1.1393375999759883, 1.3153224000707269]",519.8077692000661,None,519.8076467999257,None,,,,,,,,,,,,s217_11092023,001,2023-11-09_16h11.01.929,test_typingtask_norepeats,2020.2.10,59.986095270871,
buddy,buddy,,,,,0,77,77,77,,,,,,,,525.3078034000937,None,"['b', 'u', 'd', 'd', 'y']",1,"[0.6393031000625342, 0.7994826000649482, 0.9752944000065327, 1.1352663999423385, 1.2552942999172956]",525.3078034000937,None,525.3076457999181,None,,,,,,,,,,,,s217_11092023,001,2023-11-09_16h11.01.929,test_typingtask_norepeats,2020.2.10,59.986095270871,
belly,belly,,,,,0,78,78,78,,,,,,,,530.8077962000389,None,"['b', 'e', 'l', 'l', 'y']",1,"[0.5953227998688817, 0.7153340999502689, 0.8033161999192089, 0.9713757999707013, 1.0836986999493092]",530.8077962000389,None,530.8077111999504,None,,,,,,,,,,,,s217_11092023,001,2023-11-09_16h11.01.929,test_typingtask_norepeats,2020.2.10,59.986095270871,
think,think,,,,,0,79,79,79,,,,,,,,536.3078701000195,None,"['t', 'h', 'i', 'n', 'k']",1,"[0.5912765001412481, 0.6712636000011116, 0.7594461999833584, 0.9193863000255078, 1.0073712000157684]",536.3078701000195,None,536.3077226999216,None,,,,,,,,,,,,s217_11092023,001,2023-11-09_16h11.01.929,test_typingtask_norepeats,2020.2.10,59.986095270871,
puppy,puppy,,,,,0,80,80,80,,,,,,,,541.8078658001032,None,"['p', 'u', 'p', 'p', 'y']",1,"[0.7073590001091361, 0.8673084999900311, 1.003387400181964, 1.1873894999735057, 1.3632508001755923]",541.8078658001032,None,541.8077848000452,None,,,,,,,,,,,,s217_11092023,001,2023-11-09_16h11.01.929,test_typingtask_norepeats,2020.2.10,59.986095270871,
druze,druze,,,,,0,81,81,81,,,,,,,,547.3078944999725,None,"['d', 'r', 'u', 'z', 'z', 'e']",0,"[0.6392591001931578, 0.8072313000448048, 0.9193242001347244, 1.1274741000961512, 1.3833702001720667, 1.4633547000121325]",547.3078944999725,None,547.3078460999299,None,,,,,,,,,,,,s217_11092023,001,2023-11-09_16h11.01.929,test_typingtask_norepeats,2020.2.10,59.986095270871,
champ,champ,,,,,0,82,82,82,,,,,,,,552.8079645000398,None,"['c', 'h', 'a', 'm', 'p']",1,"[0.7791809998452663, 0.9072250998578966, 0.9952840998303145, 1.1152360998094082, 1.2351883999072015]",552.8079645000398,None,552.8078474000562,None,,,,,,,,,,,,s217_11092023,001,2023-11-09_16h11.01.929,test_typingtask_norepeats,2020.2.10,59.986095270871,
lucky,lucky,,,,,0,83,83,83,,,,,,,,558.3080311000813,None,"['l', 'u', 'k', 'c', 'y']",0,"[0.5831444999203086, 0.7673664998728782, 0.9830793000292033, 1.1110874000005424, 1.2631198999006301]",558.3080311000813,None,558.307875200035,None,,,,,,,,,,,,s217_11092023,001,2023-11-09_16h11.01.929,test_typingtask_norepeats,2020.2.10,59.986095270871,
pykka,pykka,,,,,0,84,84,84,,,,,,,,563.8080295000691,None,"['p', 'y', 'k', 'k', 'a']",1,"[0.6591211000923067, 0.8676556001883, 1.2431350001133978, 1.3871018001809716, 1.5231042001396418]",563.8080295000691,None,563.8079076999333,None,,,,,,,,,,,,s217_11092023,001,2023-11-09_16h11.01.929,test_typingtask_norepeats,2020.2.10,59.986095270871,
about,about,,,,,0,85,85,85,,,,,,,,569.3080672998913,None,"['a', 'b', 'o', 'u', 't']",1,"[0.5431039000395685, 0.6630711001344025, 0.7992078999523073, 0.959064400056377, 1.0471991000231355]",569.3080672998913,None,569.3079460001085,None,,,,,,,,,,,,s217_11092023,001,2023-11-09_16h11.01.929,test_typingtask_norepeats,2020.2.10,59.986095270871,
vanru,vanru,,,,,0,86,86,86,,,,,,,,574.8081312000286,None,"['v', 'a', 'n', 'r', 'u']",1,"[1.0110404000151902, 1.1550092999823391, 1.3549996998626739, 1.5151466999668628, 1.675000799819827]",574.8081312000286,None,574.8079760001041,None,,,,,,,,,,,,s217_11092023,001,2023-11-09_16h11.01.929,test_typingtask_norepeats,2020.2.10,59.986095270871,
champ,champ,,,,,0,87,87,87,,,,,,,,580.3080919999629,None,"['c', 'h', 'a', 'm', 'p']",1,"[0.5990770000498742, 0.7032564000692219, 0.775045899907127, 0.8873038999736309, 0.9991764000151306]",580.3080919999629,None,580.3080147999339,None,,,,,,,,,,,,s217_11092023,001,2023-11-09_16h11.01.929,test_typingtask_norepeats,2020.2.10,59.986095270871,
would,would,,,,,0,88,88,88,,,,,,,,585.8081634000409,None,"['w', 'o', 'u', 'l', 'd']",1,"[0.563077500090003, 0.6349959000945091, 0.7391427999828011, 0.8914507001172751, 0.9870357001200318]",585.8081634000409,None,585.8080739000346,None,,,,,,,,,,,,s217_11092023,001,2023-11-09_16h11.01.929,test_typingtask_norepeats,2020.2.10,59.986095270871,
about,about,,,,,0,89,89,89,,,,,,,,591.3081594000105,None,"['a', 'b', 'o', 'u', 't']",1,"[0.5429944000206888, 0.6549975001253188, 0.7832625999581069, 0.9590318000409752, 1.070987000130117]",591.3081594000105,None,591.3080813999753,None,,,,,,,,,,,,s217_11092023,001,2023-11-09_16h11.01.929,test_typingtask_norepeats,2020.2.10,59.986095270871,
there,there,,,,,0,90,90,90,,,,,,,,596.8082125999499,None,"['t', 'h', 'e', 'r', 'e']",1,"[0.7069702001754194, 0.810960500035435, 0.923280700109899, 1.0191247002221644, 1.0989392001647502]",596.8082125999499,None,596.8080737000331,None,,,,,,,,,,,,s217_11092023,001,2023-11-09_16h11.01.929,test_typingtask_norepeats,2020.2.10,59.986095270871,
zibja,zibja,,,,,0,91,91,91,,,,,,,,602.3082467000932,None,"['z', 'i', 'b', 'j', 'a']",1,"[0.7669675999786705, 0.9189281999133527, 1.0629207000602037, 1.2549709000159055, 1.4148903999011964]",602.3082467000932,None,602.3081109000835,None,,,,,,,,,,,,s217_11092023,001,2023-11-09_16h11.01.929,test_typingtask_norepeats,2020.2.10,59.986095270871,
cheer,cheer,,,,,0,92,92,92,,,,,,,,607.8082636001054,None,"['c', 'h', 'e', 'e', 'r']",1,"[0.6029562999028713, 0.7308898998890072, 0.8348828998859972, 1.0029503998812288, 1.1070365000050515]",607.8082636001054,None,607.8081856000703,None,,,,,,,,,,,,s217_11092023,001,2023-11-09_16h11.01.929,test_typingtask_norepeats,2020.2.10,59.986095270871,
there,there,,,,,0,93,93,93,,,,,,,,613.3083363000769,None,"['t', 'h', 'e', 'r', 'e']",1,"[0.5748555001337081, 0.6628342000767589, 0.7509504000190645, 0.8149508000351489, 0.918846599990502]",613.3083363000769,None,613.308207600005,613.4083072000649,,,,,,,,,,,,s217_11092023,001,2023-11-09_16h11.01.929,test_typingtask_norepeats,2020.2.10,59.986095270871,
tithe,tithe,,,,,0,94,94,94,,,,,,,,618.8084678000305,None,"['t', 'i', 't', 'h', 'e']",1,"[0.5547041001264006, 0.6827180001419038, 0.7787562999874353, 0.8746770001016557, 0.9389957999810576]",618.8084678000305,None,618.8082631999627,618.9083696999587,,,,,,,,,,,,s217_11092023,001,2023-11-09_16h11.01.929,test_typingtask_norepeats,2020.2.10,59.986095270871,
puppy,puppy,,,,,0,95,95,95,,,,,,,,624.3084048999008,None,"['p', 'u', 'p', 'p', 'y']",1,"[0.5748135999310762, 0.718986599938944, 0.8547717998735607, 1.022831599926576, 1.1828226000070572]",624.3084048999008,None,624.3082730999216,624.4084290999454,,,,,,,,,,,,s217_11092023,001,2023-11-09_16h11.01.929,test_typingtask_norepeats,2020.2.10,59.986095270871,
pykka,pykka,,,,,0,96,96,96,,,,,,,,629.8084480001125,None,"['p', 'y', 'k', 'k', 'a']",1,"[0.6187452001031488, 0.8027282999828458, 1.1627205000258982, 1.2829684000462294, 1.4108162999618798]",629.8084480001125,None,629.808386999974,629.9084421999287,,,,,,,,,,,,s217_11092023,001,2023-11-09_16h11.01.929,test_typingtask_norepeats,2020.2.10,59.986095270871,
theme,theme,,,,,0,97,97,97,,,,,,,,635.3085398001131,None,"['t', 'h', 'e', 'm', 'e']",1,"[0.5668973999563605, 0.6786481998860836, 0.750646699918434, 0.8866457999683917, 0.8946310998871922]",635.3085398001131,None,635.3084006000776,635.4084707000293,,,,,,,,,,,,s217_11092023,001,2023-11-09_16h11.01.929,test_typingtask_norepeats,2020.2.10,59.986095270871,
cheer,cheer,,,,,0,98,98,98,,,,,,,,640.8085109998938,None,"['c', 'h', 'e', 'e', 'r']",1,"[0.570904300082475, 0.6909562000073493, 0.786777300061658, 0.9467191000003368, 1.042761699995026]",640.8085109998938,None,640.808348100027,640.9085085000843,,,,,,,,,,,,s217_11092023,001,2023-11-09_16h11.01.929,test_typingtask_norepeats,2020.2.10,59.986095270871,
think,think,,,,,0,99,99,99,,,,,,,,646.3085495999549,None,"['t', 'h', 'i', 'n', 'k']",1,"[0.6146758000832051, 0.7026346002239734, 0.8065908001735806, 0.9427531000692397, 1.0307643001433462]",646.3085495999549,None,646.3084199001081,None,,,,,,,,,,,,s217_11092023,001,2023-11-09_16h11.01.929,test_typingtask_norepeats,2020.2.10,59.986095270871,
lucky,lucky,,,,,0,100,100,100,,,,,,,,651.8085849999916,None,"['l', 'u', 'c', 'k', 'y']",1,"[0.5786241998430341, 0.7387224000412971, 0.9866126000415534, 1.1866160000208765, 1.3546000998467207]",651.8085849999916,None,651.8084666999988,None,,,,,,,,,,,,s217_11092023,001,2023-11-09_16h11.01.929,test_typingtask_norepeats,2020.2.10,59.986095270871,
cheer,cheer,,,,,0,101,101,101,,,,,,,,657.3086135000922,None,"['c', 'h', 'e', 'e', 'r']",1,"[0.5828224001452327, 0.6866276999935508, 0.8066617001313716, 0.9667585000861436, 1.0707221999764442]",657.3086135000922,None,657.3084530000109,None,,,,,,,,,,,,s217_11092023,001,2023-11-09_16h11.01.929,test_typingtask_norepeats,2020.2.10,59.986095270871,
would,would,,,,,0,102,102,102,,,,,,,,662.8086504999083,None,"['w', 'o', 'u', 'l', 'd']",1,"[0.5865860998164862, 0.6586410999298096, 0.7865724000148475, 0.9385446000378579, 1.0745065999217331]",662.8086504999083,None,662.8084886999335,None,,,,,,,,,,,,s217_11092023,001,2023-11-09_16h11.01.929,test_typingtask_norepeats,2020.2.10,59.986095270871,
there,there,,,,,0,103,103,103,,,,,,,,668.3086755000986,None,"['t', 'h', 'e', 'r', 'e']",1,"[0.590546099934727, 0.694554999936372, 0.7586415000259876, 0.8706848998554051, 0.974647699855268]",668.3086755000986,None,668.308569799969,None,,,,,,,,,,,,s217_11092023,001,2023-11-09_16h11.01.929,test_typingtask_norepeats,2020.2.10,59.986095270871,
lucky,lucky,,,,,0,104,104,104,,,,,,,,673.8087311000563,None,"['l', 'u', 'c', 'k', 'y']",1,"[0.6105120999272913, 0.7785201999358833, 0.9384731999598444, 1.082602199865505, 1.2744885999709368]",673.8087311000563,None,673.8085973000619,None,,,,,,,,,,,,s217_11092023,001,2023-11-09_16h11.01.929,test_typingtask_norepeats,2020.2.10,59.986095270871,
therm,therm,,,,,0,105,105,105,,,,,,,,679.3087621000595,None,"['t', 'h', 'e', 'r', 'e', 'm']",0,"[0.6784789999946952, 0.7904864998999983, 0.870585999917239, 0.9665653000120074, 1.078557400032878, 1.1104351000394672]",679.3087621000595,None,679.3086345999967,None,,,,,,,,,,,,s217_11092023,001,2023-11-09_16h11.01.929,test_typingtask_norepeats,2020.2.10,59.986095270871,
lucky,lucky,,,,,0,106,106,106,,,,,,,,684.8087911999319,None,"['l', 'u', 'c', 'k', 'y']",1,"[0.5864389000926167, 0.8104548000264913, 0.9704239000566304, 1.0905603999271989, 1.2506713001057506]",684.8087911999319,None,684.8086696000304,None,,,,,,,,,,,,s217_11092023,001,2023-11-09_16h11.01.929,test_typingtask_norepeats,2020.2.10,59.986095270871,
vanru,vanru,,,,,0,107,107,107,,,,,,,,690.3088303999975,None,"['v', 'a', 'n', 'r', 'u']",1,"[0.7824216999579221, 0.8865676999557763, 1.0065197001677006, 1.14251170004718, 1.2544168999884278]",690.3088303999975,None,690.308718300052,None,,,,,,,,,,,,s217_11092023,001,2023-11-09_16h11.01.929,test_typingtask_norepeats,2020.2.10,59.986095270871,
belly,belly,,,,,0,108,108,108,,,,,,,,695.8088628000114,None,"['b', 'e', 'l', 'l', 'y']",1,"[0.7784390999004245, 0.94641979993321, 1.0423657998908311, 1.2023426999803632, 1.32237539999187]",695.8088628000114,None,695.8087584998924,None,,,,,,,,,,,,s217_11092023,001,2023-11-09_16h11.01.929,test_typingtask_norepeats,2020.2.10,59.986095270871,
edthe,edthe,,,,,0,109,109,109,,,,,,,,701.3089020000771,None,"['e', 'd', 't', 'h', 'e']",1,"[0.9263369999825954, 1.1263528000563383, 1.3025082999374717, 1.4063279998954386, 1.5025947999674827]",701.3089020000771,None,701.3087948000524,None,,,,,,,,,,,,s217_11092023,001,2023-11-09_16h11.01.929,test_typingtask_norepeats,2020.2.10,59.986095270871,
faqir,faqir,,,,,0,110,110,110,,,,,,,,706.8089312999509,None,"['f', 'a', 'q', 'i', 'r']",1,"[0.9063228000886738, 1.0345234998967499, 1.314336200011894, 1.5062818999867886, 1.6104158000089228]",706.8089312999509,None,706.8088141000829,None,,,,,,,,,,,,s217_11092023,001,2023-11-09_16h11.01.929,test_typingtask_norepeats,2020.2.10,59.986095270871,
tithe,tithe,,,,,0,111,111,111,,,,,,,,712.3089791999664,None,"['t', 'i', 't', 'h', 'e']",1,"[0.6222830000333488, 0.7263854001648724, 0.838403900153935, 0.9262759999837726, 0.9903837000019848]",712.3089791999664,None,712.3088566000573,None,,,,,,,,,,,,s217_11092023,001,2023-11-09_16h11.01.929,test_typingtask_norepeats,2020.2.10,59.986095270871,
buddy,buddy,,,,,0,112,112,112,,,,,,,,717.8090099999681,None,"['b', 'u', 'd', 'd', 'y']",1,"[0.6022524000145495, 0.8184872001875192, 0.946199000114575, 1.0983349999878556, 1.2184142000041902]",717.8090099999681,None,717.8088828999083,None,,,,,,,,,,,,s217_11092023,001,2023-11-09_16h11.01.929,test_typingtask_norepeats,2020.2.10,59.986095270871,
vanru,vanru,,,,,0,113,113,113,,,,,,,,723.309011500096,None,"['v', 'a', 'n', 'r', 'u']",1,"[0.8462514001876116, 0.9183991001918912, 1.0622541001066566, 1.1902119000442326, 1.3183576001320034]",723.309011500096,None,723.3089287000242,None,,,,,,,,,,,,s217_11092023,001,2023-11-09_16h11.01.929,test_typingtask_norepeats,2020.2.10,59.986095270871,
theme,theme,,,,,0,114,114,114,,,,,,,,728.809084800072,None,"['t', 'h', 'e', 'm', 'e']",1,"[0.6182297000195831, 0.7141585999634117, 0.8102307999506593, 0.9381452999077737, 1.0022156999912113]",728.809084800072,None,728.808961799927,None,,,,,,,,,,,,s217_11092023,001,2023-11-09_16h11.01.929,test_typingtask_norepeats,2020.2.10,59.986095270871,
about,about,,,,,0,115,115,115,,,,,,,,734.3090834999457,None,"['a', 'b', 'o', 'u', 't']",1,"[0.5582737999502569, 0.6783659998327494, 0.8302004998549819, 0.9822068999055773, 1.0863810000009835]",734.3090834999457,None,734.3089953000657,None,,,,,,,,,,,,s217_11092023,001,2023-11-09_16h11.01.929,test_typingtask_norepeats,2020.2.10,59.986095270871,
tithe,tithe,,,,,0,116,116,116,,,,,,,,739.8091599000618,None,"['t', 'i', 't', 'h', 'e']",1,"[0.5461164999287575, 0.6422241998370737, 0.7462534999940544, 0.8262329997960478, 0.9062198000028729]",739.8091599000618,None,739.8090251999441,None,,,,,,,,,,,,s217_11092023,001,2023-11-09_16h11.01.929,test_typingtask_norepeats,2020.2.10,59.986095270871,
druze,druze,,,,,0,117,117,117,,,,,,,,745.3091911999509,None,"['d', 'r', 'u', 'z', 'e']",1,"[0.5580928002018481, 0.7821262001525611, 0.9341532001271844, 1.0781865001190454, 1.2380481001455337]",745.3091911999509,None,745.3090646998957,None,,,,,,,,,,,,s217_11092023,001,2023-11-09_16h11.01.929,test_typingtask_norepeats,2020.2.10,59.986095270871,
belly,belly,,,,,0,118,118,118,,,,,,,,750.809234000044,None,"['b', 'e', 'l', 'l', 'y']",1,"[0.6100417000707239, 0.7461381000466645, 0.8261392000131309, 1.010037099942565, 1.146156300092116]",750.809234000044,None,750.8090690000448,None,,,,,,,,,,,,s217_11092023,001,2023-11-09_16h11.01.929,test_typingtask_norepeats,2020.2.10,59.986095270871,
edthe,edthe,,,,,0,119,119,119,,,,,,,,756.3092485999223,None,"['e', 'd', 't', 'h', 'e']",1,"[0.6381093999370933, 0.8701914998237044, 1.0460690998006612, 1.1580784998368472, 1.2621906998101622]",756.3092485999223,None,756.3091374999843,None,,,,,,,,,,,,s217_11092023,001,2023-11-09_16h11.01.929,test_typingtask_norepeats,2020.2.10,59.986095270871,
there,there,,,,,,,,,0,0,0,0,,,,,,,,,,,,,761.8093014000915,None,784.5932873000856,None,"['t', 'h', 'e', 'r', 'e']",1,"[0.7780290001537651, 0.8500016999896616, 0.9301389001775533, 1.0259887999854982, 1.0979673999827355]",784.5932873000856,None,784.5926619000733,784.6927455000114,s217_11092023,001,2023-11-09_16h11.01.929,test_typingtask_norepeats,2020.2.10,59.986095270871,
zibja,zibja,,,,,,,,,0,1,1,1,,,,,,,,,,,,,,,790.0928207000252,None,"['z', 'i', 'b', 'j', 'a']",1,"[0.8227449001278728, 0.9346358000766486, 1.0785731000360101, 1.2544661001302302, 1.3745969000738114]",790.0928207000252,None,790.0926974998787,None,s217_11092023,001,2023-11-09_16h11.01.929,test_typingtask_norepeats,2020.2.10,59.986095270871,
belly,belly,,,,,,,,,0,2,2,2,,,,,,,,,,,,,,,795.5928628998809,None,"['b', 'e', 'l', 'l', 'y']",1,"[0.6985559000167996, 0.8264576001092792, 0.9145414000377059, 1.066437300061807, 1.1626604001503438]",795.5928628998809,None,795.5927368000615,None,s217_11092023,001,2023-11-09_16h11.01.929,test_typingtask_norepeats,2020.2.10,59.986095270871,
cooed,cooed,,,,,,,,,0,3,3,3,,,,,,,,,,,,,,,801.0929076999892,None,"['c', 'o', 'o', 'e', 'd']",1,"[0.6784077999182045, 0.7824376998469234, 0.942514699883759, 1.0383764000143856, 1.206371600041166]",801.0929076999892,None,801.0927902998868,None,s217_11092023,001,2023-11-09_16h11.01.929,test_typingtask_norepeats,2020.2.10,59.986095270871,
therm,therm,,,,,,,,,0,4,4,4,,,,,,,,,,,,,,,806.5929046999663,None,"['t', 'h', 'e', 'r', 'm']",1,"[0.698383399983868, 0.77039929991588, 0.8744437999557704, 0.970517799956724, 1.002406100044027]",806.5929046999663,None,806.5928139000665,None,s217_11092023,001,2023-11-09_16h11.01.929,test_typingtask_norepeats,2020.2.10,59.986095270871,
vanru,vanru,,,,,,,,,0,5,5,5,,,,,,,,,,,,,,,812.0929761000443,None,"['v', 'a', 'n', 'r', 'u']",1,"[0.9343507001176476, 1.0143142000306398, 1.1343134001363069, 1.2464342000894248, 1.3503590999171138]",812.0929761000443,None,812.092847700091,None,s217_11092023,001,2023-11-09_16h11.01.929,test_typingtask_norepeats,2020.2.10,59.986095270871,
zibja,zibja,,,,,,,,,0,6,6,6,,,,,,,,,,,,,,,817.5930093000643,None,"['z', 'i', 'b', 'j', 'a']",1,"[0.8263218998908997, 0.9623250998556614, 1.0982814999297261, 1.3063836998771876, 1.434429399902001]",817.5930093000643,None,817.592886600038,None,s217_11092023,001,2023-11-09_16h11.01.929,test_typingtask_norepeats,2020.2.10,59.986095270871,
think,think,,,,,,,,,0,7,7,7,,,,,,,,,,,,,,,823.0930125000887,None,"['t', 'h', 'i', 'n', 'k']",1,"[0.5743130999617279, 0.678419099887833, 0.7744082000572234, 0.9024123998824507, 1.0224146998953074]",823.0930125000887,None,823.0929190000519,None,s217_11092023,001,2023-11-09_16h11.01.929,test_typingtask_norepeats,2020.2.10,59.986095270871,
belly,belly,,,,,,,,,0,8,8,8,,,,,,,,,,,,,,,828.5930912001058,None,"['b', 'e', 'l', 'l', 'y']",1,"[0.5942383001092821, 0.7383745000697672, 0.834302700124681, 0.9942236000206321, 1.098338200012222]",828.5930912001058,None,828.5929810000583,None,s217_11092023,001,2023-11-09_16h11.01.929,test_typingtask_norepeats,2020.2.10,59.986095270871,
vodka,vodka,,,,,,,,,0,9,9,9,,,,,,,,,,,,,,,834.093088600086,None,"['v', 'o', 'd', 'k', 'a']",1,"[0.7262323000468314, 0.8062424999661744, 0.9583894999232143, 1.0303899000864476, 1.1342058998998255]",834.093088600086,None,834.0929711000994,None,s217_11092023,001,2023-11-09_16h11.01.929,test_typingtask_norepeats,2020.2.10,59.986095270871,
there,there,,,,,,,,,0,10,10,10,,,,,,,,,,,,,,,839.5931605000515,None,"['t', 'h', 'e', 'r', 'e']",1,"[0.7142084999941289, 0.786286799935624, 0.8982779998332262, 0.9941505999304354, 1.0903212998528033]",839.5931605000515,None,839.5930019999854,None,s217_11092023,001,2023-11-09_16h11.01.929,test_typingtask_norepeats,2020.2.10,59.986095270871,
theme,theme,,,,,,,,,0,11,11,11,,,,,,,,,,,,,,,845.093160700053,None,"['t', 'h', 'e', 'm', 'e']",1,"[0.6061731998343021, 0.7021689999382943, 0.7822405998595059, 0.9261031998321414, 0.9741444999817759]",845.093160700053,None,845.0930855999235,None,s217_11092023,001,2023-11-09_16h11.01.929,test_typingtask_norepeats,2020.2.10,59.986095270871,
faqir,faqir,,,,,,,,,0,12,12,12,,,,,,,,,,,,,,,850.5932205000427,None,"['f', 'a', 'q', 'i', 'r']",1,"[0.7941162998322397, 0.9543384998105466, 1.1860956000164151, 1.3620898998342454, 1.4982087998650968]",850.5932205000427,None,850.5931125998962,None,s217_11092023,001,2023-11-09_16h11.01.929,test_typingtask_norepeats,2020.2.10,59.986095270871,
edthe,edthe,,,,,,,,,0,13,13,13,,,,,,,,,,,,,,,856.093297699932,None,"['e', 'd', 't', 'h', 'e']",1,"[0.5900606999639422, 0.7900221000891179, 0.9422097001224756, 1.0221500000916421, 1.1259759000968188]",856.093297699932,None,856.093152199965,None,s217_11092023,001,2023-11-09_16h11.01.929,test_typingtask_norepeats,2020.2.10,59.986095270871,
faqir,faqir,,,,,,,,,0,14,14,14,,,,,,,,,,,,,,,861.5932938999031,None,"['f', 'a', 'q', 'i', 'r']",1,"[0.6180553999729455, 0.7700263999868184, 0.9940645999740809, 1.1384032999631017, 1.2741570000071079]",861.5932938999031,None,861.5931952000595,None,s217_11092023,001,2023-11-09_16h11.01.929,test_typingtask_norepeats,2020.2.10,59.986095270871,
about,about,,,,,,,,,0,15,15,15,,,,,,,,,,,,,,,867.0933562999126,None,"['a', 'b', 'o', 'u', 't']",1,"[0.5420118998736143, 0.6619571999181062, 0.8060023998841643, 0.9661710998043418, 1.0539659999776632]",867.0933562999126,None,867.0932327998802,None,s217_11092023,001,2023-11-09_16h11.01.929,test_typingtask_norepeats,2020.2.10,59.986095270871,
haole,haole,,,,,,,,,0,16,16,16,,,,,,,,,,,,,,,872.5933862999082,None,"['h', 'a', 'o', 'l', 'e']",1,"[0.6339944000355899, 0.729948400054127, 0.8499727000016719, 1.0259883000981063, 1.137947600102052]",872.5933862999082,None,872.5932675999123,872.6933848999906,s217_11092023,001,2023-11-09_16h11.01.929,test_typingtask_norepeats,2020.2.10,59.986095270871,
kremp,kremp,,,,,,,,,0,17,17,17,,,,,,,,,,,,,,,878.0934276001062,None,"['k', 'r', 'e', 'm', 'p']",1,"[0.6859007000457495, 0.8620164999738336, 0.949981200043112, 1.0459061001893133, 1.1900302001740783]",878.0934276001062,None,878.0932675999123,878.1934320998844,s217_11092023,001,2023-11-09_16h11.01.929,test_typingtask_norepeats,2020.2.10,59.986095270871,
about,about,,,,,,,,,0,18,18,18,,,,,,,,,,,,,,,883.5934788000304,None,"['a', 'b', 'o', 'u', 't']",1,"[0.6178828999400139, 0.7298756998497993, 0.8658566998783499, 1.0018414999358356, 1.0820190999656916]",883.5934788000304,None,883.5933406000025,883.6934905999806,s217_11092023,001,2023-11-09_16h11.01.929,test_typingtask_norepeats,2020.2.10,59.986095270871,
vodka,vodka,,,,,,,,,0,19,19,19,,,,,,,,,,,,,,,889.0935005000792,None,"['v', 'o', 'd', 'k', 'a']",1,"[0.7738647998776287, 0.8698452999815345, 1.0139830000698566, 1.0859604999423027, 1.2218341000843793]",889.0935005000792,None,889.093382800091,889.1935026999563,s217_11092023,001,2023-11-09_16h11.01.929,test_typingtask_norepeats,2020.2.10,59.986095270871,
cooed,cooed,,,,,,,,,0,20,20,20,,,,,,,,,,,,,,,894.5935100000352,None,"['c', 'o', 'o', 'e', 'd']",1,"[0.7539379999507219, 0.8818544000387192, 1.0579053000546992, 1.233928400091827, 1.42599010001868]",894.5935100000352,None,894.5934162999969,894.6935054000933,s217_11092023,001,2023-11-09_16h11.01.929,test_typingtask_norepeats,2020.2.10,59.986095270871,
think,think,,,,,,,,,0,21,21,21,,,,,,,,,,,,,,,900.0935847000219,None,"['t', 'h', 'i', 'n', 'k']",1,"[0.6297938998322934, 0.7417725999839604, 0.8537891998421401, 0.9977585999295115, 1.069936899933964]",900.0935847000219,None,900.0934291000943,900.1935749000404,s217_11092023,001,2023-11-09_16h11.01.929,test_typingtask_norepeats,2020.2.10,59.986095270871,
would,would,,,,,,,,,0,22,22,22,,,,,,,,,,,,,,,905.5936231999658,None,"['w', 'o', 'u', 'l', 'd']",1,"[0.561750799883157, 0.6498221999499947, 0.7619584000203758, 0.9057275000959635, 1.0337143000215292]",905.5936231999658,None,905.5934603000991,905.6936602001078,s217_11092023,001,2023-11-09_16h11.01.929,test_typingtask_norepeats,2020.2.10,59.986095270871,
buddy,buddy,,,,,,,,,0,23,23,23,,,,,,,,,,,,,,,911.0936221000738,None,"['b', 'u', 'd', 'd', 'y']",1,"[0.5980203000362962, 0.7738695999141783, 0.941756600048393, 1.093728099949658, 1.2138121000025421]",911.0936221000738,None,911.0935467999428,None,s217_11092023,001,2023-11-09_16h11.01.929,test_typingtask_norepeats,2020.2.10,59.986095270871,
vodka,vodka,,,,,,,,,0,24,24,24,,,,,,,,,,,,,,,916.5936904000118,None,"['v', 'o', 'd', 'k', 'a']",1,"[0.6816666000522673, 0.7936974000185728, 0.9297832001466304, 1.0017202999442816, 1.137660700129345]",916.5936904000118,None,916.5935658000875,None,s217_11092023,001,2023-11-09_16h11.01.929,test_typingtask_norepeats,2020.2.10,59.986095270871,
theme,theme,,,,,,,,,0,25,25,25,,,,,,,,,,,,,,,922.0937377999071,None,"['t', 'h', 'e', 'm', 'e']",1,"[0.6136831000912935, 0.6938235000707209, 0.8136714999563992, 0.9418363999575377, 1.0056837999727577]",922.0937377999071,None,922.0936065999325,None,s217_11092023,001,2023-11-09_16h11.01.929,test_typingtask_norepeats,2020.2.10,59.986095270871,
pykka,pykka,,,,,,,,,0,26,26,26,,,,,,,,,,,,,,,927.5937677000184,None,"['p', 'y', 'k', 'k', 'a']",1,"[0.5696233999915421, 0.753727100091055, 0.9695534999482334, 1.0977267001289874, 1.2256803000345826]",927.5937677000184,None,927.5936606999952,None,s217_11092023,001,2023-11-09_16h11.01.929,test_typingtask_norepeats,2020.2.10,59.986095270871,
cheer,cheer,,,,,,,,,0,27,27,27,,,,,,,,,,,,,,,933.0937906999607,None,"['c', 'h', 'e', 'e', 'r']",1,"[0.5896026999689639, 0.6775869000703096, 0.8058297000825405, 0.9576073000207543, 1.045705100055784]",933.0937906999607,None,933.0936971000395,None,s217_11092023,001,2023-11-09_16h11.01.929,test_typingtask_norepeats,2020.2.10,59.986095270871,
puppy,puppy,,,,,,,,,0,28,28,28,,,,,,,,,,,,,,,938.5938323999289,None,"['p', 'u', 'p', 'p', 'y']",1,"[0.5935726000461727, 0.7376800000201911, 0.8735183000098914, 1.0497496000025421, 1.2416849001310766]",938.5938323999289,None,938.5937267999165,None,s217_11092023,001,2023-11-09_16h11.01.929,test_typingtask_norepeats,2020.2.10,59.986095270871,
druze,druze,,,,,,,,,0,29,29,29,,,,,,,,,,,,,,,944.0938794999383,None,"['d', 'r', 'u', 'z', 'e']",1,"[0.6136954999528825, 0.7895690998993814, 0.8855273998342454, 1.0534986997954547, 1.22150839981623]",944.0938794999383,None,944.0937722999137,None,s217_11092023,001,2023-11-09_16h11.01.929,test_typingtask_norepeats,2020.2.10,59.986095270871,
cheer,cheer,,,,,,,,,0,30,30,30,,,,,,,,,,,,,,,949.5939136000816,None,"['c', 'h', 'e', 'e', 'r']",1,"[0.6014984000939876, 0.7298358001280576, 0.8256167999934405, 1.0015303001273423, 1.0894352002069354]",949.5939136000816,None,949.59381289999,None,s217_11092023,001,2023-11-09_16h11.01.929,test_typingtask_norepeats,2020.2.10,59.986095270871,
druze,druze,,,,,,,,,0,31,31,31,,,,,,,,,,,,,,,955.0939462999813,None,"['d', 'r', 'u', 'z', 'e']",1,"[0.8136519000399858, 0.9894977000076324, 1.1335636000148952, 1.2775020999833941, 1.437459500040859]",955.0939462999813,None,955.09386140001,None,s217_11092023,001,2023-11-09_16h11.01.929,test_typingtask_norepeats,2020.2.10,59.986095270871,
would,would,,,,,,,,,0,32,32,32,,,,,,,,,,,,,,,960.5939827000257,None,"['w', 'o', 'u', 'l', 'd']",1,"[0.8573866998776793, 0.977510399883613, 1.1053802999667823, 1.2495325999334455, 1.361405499977991]",960.5939827000257,None,960.5938449000008,None,s217_11092023,001,2023-11-09_16h11.01.929,test_typingtask_norepeats,2020.2.10,59.986095270871,
haole,haole,,,,,,,,,0,33,33,33,,,,,,,,,,,,,,,966.0940471000504,None,"['h', 'a', 'o', 'l', 'e']",1,"[0.653340799966827, 0.7334928999189287, 0.8693536999635398, 1.0453552999533713, 1.1333280999679118]",966.0940471000504,None,966.0939357998781,None,s217_11092023,001,2023-11-09_16h11.01.929,test_typingtask_norepeats,2020.2.10,59.986095270871,
zibja,zibja,,,,,,,,,0,34,34,34,,,,,,,,,,,,,,,971.5940986000933,None,"['z', 'i', 'b', 'j', 'a']",1,"[0.7214677999727428, 0.8413247000426054, 0.977366300066933, 1.1773578999564052, 1.3133205000776798]",971.5940986000933,None,971.5940186999272,None,s217_11092023,001,2023-11-09_16h11.01.929,test_typingtask_norepeats,2020.2.10,59.986095270871,
kremp,kremp,,,,,,,,,0,35,35,35,,,,,,,,,,,,,,,977.0941228000447,None,"['k', 'r', 'e', 'm', 'p']",1,"[0.8213112999219447, 0.973320199875161, 1.0854131998494267, 1.2772829998284578, 1.3495155000127852]",977.0941228000447,None,977.094006799953,None,s217_11092023,001,2023-11-09_16h11.01.929,test_typingtask_norepeats,2020.2.10,59.986095270871,
zibja,zibja,,,,,,,,,0,36,36,36,,,,,,,,,,,,,,,982.5941629998852,None,"['z', 'i', 'b', 'j', 'a']",1,"[0.7692629999946803, 0.8813795000314713, 1.0093713998794556, 1.2092553998809308, 1.3533943998627365]",982.5941629998852,None,982.5940303000156,None,s217_11092023,001,2023-11-09_16h11.01.929,test_typingtask_norepeats,2020.2.10,59.986095270871,
vanru,vanru,,,,,,,,,0,37,37,37,,,,,,,,,,,,,,,988.0941977999173,None,"['v', 'a', 'n', 'r', 'u']",1,"[0.7572484998963773, 0.8212355999276042, 0.9652073998004198, 1.0851605997886509, 1.2133616998326033]",988.0941977999173,None,988.0940556000918,None,s217_11092023,001,2023-11-09_16h11.01.929,test_typingtask_norepeats,2020.2.10,59.986095270871,
puppy,puppy,,,,,,,,,0,38,38,38,,,,,,,,,,,,,,,993.594236999983,None,"['p', 'u', 'p', 'p', 'y']",1,"[0.657237600069493, 0.809216900030151, 0.9533579999115318, 1.129156099865213, 1.2892920000012964]",993.594236999983,None,993.5940832000691,None,s217_11092023,001,2023-11-09_16h11.01.929,test_typingtask_norepeats,2020.2.10,59.986095270871,
about,about,,,,,,,,,0,39,39,39,,,,,,,,,,,,,,,999.0942945000716,None,"['a', 'b', 'o', 'u', 't']",1,"[0.5810779999010265, 0.6611261998768896, 0.805134000023827, 0.9571516998112202, 1.0931215998716652]",999.0942945000716,None,999.0942006999161,None,s217_11092023,001,2023-11-09_16h11.01.929,test_typingtask_norepeats,2020.2.10,59.986095270871,
cheer,cheer,,,,,,,,,0,40,40,40,,,,,,,,,,,,,,,1004.5943169000093,None,"['c', 'h', 'e', 'e', 'r']",1,"[0.5931431001517922, 0.7131193000823259, 0.8412234999705106, 1.0092339001130313, 1.1051592000294477]",1004.5943169000093,None,1004.594159500068,None,s217_11092023,001,2023-11-09_16h11.01.929,test_typingtask_norepeats,2020.2.10,59.986095270871,
pykka,pykka,,,,,,,,,0,41,41,41,,,,,,,,,,,,,,,1010.0943620998878,None,"['p', 'y', 'k', 'k', 'a']",1,"[0.57308020000346, 0.7570593999698758, 0.9970991001464427, 1.149199099978432, 1.2772035000380129]",1010.0943620998878,None,1010.0942175999284,None,s217_11092023,001,2023-11-09_16h11.01.929,test_typingtask_norepeats,2020.2.10,59.986095270871,
edthe,edthe,,,,,,,,,0,42,42,42,,,,,,,,,,,,,,,1015.5944052999839,None,"['e', 'd', 't', 'h', 'e']",1,"[0.5850724000483751, 0.7849742001853883, 0.9451292001176625, 1.0571363000199199, 1.161024000030011]",1015.5944052999839,None,1015.5942871999927,None,s217_11092023,001,2023-11-09_16h11.01.929,test_typingtask_norepeats,2020.2.10,59.986095270871,
heond,heond,,,,,,,,,0,43,43,43,,,,,,,,,,,,,,,1021.0944628999569,None,"['h', 'e', 'o', 'n', 'd']",1,"[0.7489785000216216, 0.8609404000453651, 0.949049900053069, 1.0690753001254052, 1.1890873000957072]",1021.0944628999569,None,1021.0943131999578,None,s217_11092023,001,2023-11-09_16h11.01.929,test_typingtask_norepeats,2020.2.10,59.986095270871,
puppy,puppy,,,,,,,,,0,44,44,44,,,,,,,,,,,,,,,1026.5945137999952,None,"['p', 'u', 'p', 'p', 'y']",1,"[0.6409408999606967, 0.7689551000948995, 0.9209769999142736, 1.0889443000778556, 1.2569391999859363]",1026.5945137999952,None,1026.5943298000843,None,s217_11092023,001,2023-11-09_16h11.01.929,test_typingtask_norepeats,2020.2.10,59.986095270871,
would,would,,,,,,,,,0,45,45,45,,,,,,,,,,,,,,,1032.0945441001095,None,"['w', 'o', 'u', 'l', 'd']",1,"[0.604863699991256, 0.7089345999993384, 0.8528785000089556, 0.9888649999629706, 1.1409708000719547]",1032.0945441001095,None,1032.0944120000117,None,s217_11092023,001,2023-11-09_16h11.01.929,test_typingtask_norepeats,2020.2.10,59.986095270871,
buddy,buddy,,,,,,,,,0,46,46,46,,,,,,,,,,,,,,,1037.594541599974,None,"['b', 'u', 'd', 'd', 'y']",1,"[0.6329527997877449, 0.8408439999911934, 1.0169406000059098, 1.1929722998756915, 1.3128323999699205]",1037.594541599974,None,1037.594433100056,None,s217_11092023,001,2023-11-09_16h11.01.929,test_typingtask_norepeats,2020.2.10,59.986095270871,
faqir,faqir,,,,,,,,,0,47,47,47,,,,,,,,,,,,,,,1043.0946064000018,None,"['f', 'a', 'q', 'i', 'r']",1,"[1.0608376001473516, 1.4770293000619859, 1.7088196000549942, 1.8369442999828607, 1.9568050999660045]",1043.0946064000018,None,1043.0944609999192,None,s217_11092023,001,2023-11-09_16h11.01.929,test_typingtask_norepeats,2020.2.10,59.986095270871,
theme,theme,,,,,,,,,0,48,48,48,,,,,,,,,,,,,,,1048.5947310000192,None,"['t', 'h', 'e', 'm', 'e']",1,"[0.6568251000717282, 0.8009528999682516, 0.8808216000907123, 1.1848574001342058, 1.368748600129038]",1048.5947310000192,None,1048.594641799899,None,s217_11092023,001,2023-11-09_16h11.01.929,test_typingtask_norepeats,2020.2.10,59.986095270871,
tithe,tithe,,,,,,,,,0,49,49,49,,,,,,,,,,,,,,,1054.0947012999095,None,"['t', 'i', 't', 'h', 'e']",1,"[0.636762399924919, 0.708697099937126, 0.8367671999149024, 0.9171189998742193, 1.0049536998849362]",1054.0947012999095,None,1054.0946300999262,None,s217_11092023,001,2023-11-09_16h11.01.929,test_typingtask_norepeats,2020.2.10,59.986095270871,
kremp,kremp,,,,,,,,,0,50,50,50,,,,,,,,,,,,,,,1059.5947455000132,None,"['k', 'r', 'e', 'm', 'p']",1,"[0.7526886998675764, 0.912630399921909, 1.024676000000909, 1.1046585999429226, 1.28063779999502]",1059.5947455000132,None,1059.5946221999825,None,s217_11092023,001,2023-11-09_16h11.01.929,test_typingtask_norepeats,2020.2.10,59.986095270871,
lucky,lucky,,,,,,,,,0,51,51,51,,,,,,,,,,,,,,,1065.09474770003,None,"['l', 'u', 'c', 'k', 'y']",1,"[0.6047053998336196, 0.8366825999692082, 1.0046794000081718, 1.1247064999770373, 1.3167683000210673]",1065.09474770003,None,1065.094628099911,None,s217_11092023,001,2023-11-09_16h11.01.929,test_typingtask_norepeats,2020.2.10,59.986095270871,
edthe,edthe,,,,,,,,,0,52,52,52,,,,,,,,,,,,,,,1070.5947920999024,None,"['e', 'd', 't', 'h', 'e']",1,"[0.6407055000308901, 0.824722999939695, 1.0248002998996526, 1.1368291999679059, 1.232647200115025]",1070.5947920999024,None,1070.5946870998946,None,s217_11092023,001,2023-11-09_16h11.01.929,test_typingtask_norepeats,2020.2.10,59.986095270871,
cooed,cooed,,,,,,,,,0,53,53,53,,,,,,,,,,,,,,,1076.0948276000563,None,"['c', 'o', 'o', 'e', 'd']",1,"[0.700660299975425, 0.8526125000789762, 1.02865989995189, 1.1887070999946445, 1.3806420001201332]",1076.0948276000563,None,1076.0947641998996,None,s217_11092023,001,2023-11-09_16h11.01.929,test_typingtask_norepeats,2020.2.10,59.986095270871,
vanru,vanru,,,,,,,,,0,54,54,54,,,,,,,,,,,,,,,1081.594849999994,None,"['v', 'a', 'n', 'r', 'u']",1,"[0.8326532000210136, 0.9445978999137878, 1.0965718999505043, 1.2245791999157518, 1.376569600077346]",1081.594849999994,None,1081.5947544999422,None,s217_11092023,001,2023-11-09_16h11.01.929,test_typingtask_norepeats,2020.2.10,59.986095270871,
heond,heond,,,,,,,,,0,55,55,55,,,,,,,,,,,,,,,1087.0948801001068,None,"['h', 'e', 'o', 'n', 'd']",1,"[0.700591100146994, 0.8366475000511855, 0.9246577001176775, 1.0527212999295443, 1.2046717000193894]",1087.0948801001068,None,1087.0948802000844,None,s217_11092023,001,2023-11-09_16h11.01.929,test_typingtask_norepeats,2020.2.10,59.986095270871,
puppy,puppy,,,,,,,,,0,56,56,56,,,,,,,,,,,,,,,1092.5949814000633,None,"['p', 'u', 'p', 'p', 'y']",1,"[0.5766686999704689, 0.7206512000411749, 0.8726520999334753, 1.0485745999030769, 1.2565059999469668]",1092.5949814000633,None,1092.5948182999623,None,s217_11092023,001,2023-11-09_16h11.01.929,test_typingtask_norepeats,2020.2.10,59.986095270871,
think,think,,,,,,,,,0,57,57,57,,,,,,,,,,,,,,,1098.0949577998836,None,"['t', 'h', 'i', 'n', 'k']",1,"[0.644518000073731, 0.7806039000861347, 0.9328799000941217, 1.0686619998887181, 1.2127382999751717]",1098.0949577998836,None,1098.0948647000828,None,s217_11092023,001,2023-11-09_16h11.01.929,test_typingtask_norepeats,2020.2.10,59.986095270871,
lucky,lucky,,,,,,,,,0,58,58,58,,,,,,,,,,,,,,,1103.595114100026,None,"['l', 'u', 'c', 'k', 'y']",1,"[0.568498200038448, 0.7525049999821931, 0.9523885999806225, 1.0885051998775452, 1.3124923000577837]",1103.595114100026,None,1103.5949320998975,None,s217_11092023,001,2023-11-09_16h11.01.929,test_typingtask_norepeats,2020.2.10,59.986095270871,
champ,champ,,,,,,,,,0,59,59,59,,,,,,,,,,,,,,,1109.0950966998935,None,"['c', 'h', 'a', 'm', 'p']",1,"[0.7163627999834716, 0.8125052999239415, 0.9404379997868091, 1.036355499876663, 1.180481499992311]",1109.0950966998935,None,1109.0949642000255,None,s217_11092023,001,2023-11-09_16h11.01.929,test_typingtask_norepeats,2020.2.10,59.986095270871,
would,would,,,,,,,,,0,60,60,60,,,,,,,,,,,,,,,1114.5951125998981,None,"['w', 'o', 'u', 'l', 'd']",1,"[0.5763395000249147, 0.7043999000452459, 0.7923624999821186, 0.9603331999387592, 1.0963643998838961]",1114.5951125998981,None,1114.594938400062,None,s217_11092023,001,2023-11-09_16h11.01.929,test_typingtask_norepeats,2020.2.10,59.986095270871,
vanru,vanru,,,,,,,,,0,61,61,61,,,,,,,,,,,,,,,1120.0951056000777,None,"['v', 'a', 'n', 'r', 'u']",1,"[0.7485280998516828, 0.8364462999161333, 0.9645130999851972, 1.0764825998339802, 1.204529299866408]",1120.0951056000777,None,1120.0950409000275,None,s217_11092023,001,2023-11-09_16h11.01.929,test_typingtask_norepeats,2020.2.10,59.986095270871,
faqir,faqir,,,,,,,,,0,62,62,62,,,,,,,,,,,,,,,1125.5952423999552,None,"['f', 'a', 'q', 'i', 'r']",1,"[0.8004153999499977, 0.9443753999657929, 1.200376900145784, 1.3524557000491768, 1.4803435001522303]",1125.5952423999552,None,1125.595199500071,1125.6951800000388,s217_11092023,001,2023-11-09_16h11.01.929,test_typingtask_norepeats,2020.2.10,59.986095270871,
champ,champ,,,,,,,,,0,63,63,63,,,,,,,,,,,,,,,1131.0952258000616,None,"['c', 'h', 'a', 'm', 'p']",1,"[0.628327100072056, 0.748256599996239, 0.8442544001154602, 0.98037080001086, 1.1322574000805616]",1131.0952258000616,None,1131.0951363000554,None,s217_11092023,001,2023-11-09_16h11.01.929,test_typingtask_norepeats,2020.2.10,59.986095270871,
therm,therm,,,,,,,,,0,64,64,64,,,,,,,,,,,,,,,1136.5952345000114,None,"['t', 'h', 'e', 'r', 'm']",1,"[0.6482813998591155, 0.7443446000106633, 0.8642831998877227, 0.9682605999987572, 1.024229999864474]",1136.5952345000114,None,1136.5950920000673,None,s217_11092023,001,2023-11-09_16h11.01.929,test_typingtask_norepeats,2020.2.10,59.986095270871,
lucky,lucky,,,,,,,,,0,65,65,65,,,,,,,,,,,,,,,1142.095285099931,None,"['l', 'u', 'c', 'k', 'y']",1,"[0.6123554999940097, 0.8042696001939476, 0.9323242001701146, 1.0522557999938726, 1.260353600140661]",1142.095285099931,None,1142.0951415999793,None,s217_11092023,001,2023-11-09_16h11.01.929,test_typingtask_norepeats,2020.2.10,59.986095270871,
tithe,tithe,,,,,,,,,0,66,66,66,,,,,,,,,,,,,,,1147.5953391001094,None,"['t', 'i', 't', 'h', 'e']",1,"[0.6321372999809682, 0.7041155002079904, 0.8321338000241667, 0.888196500018239, 0.9842105000279844]",1147.5953391001094,None,1147.5951627000236,1147.6953606999014,s217_11092023,001,2023-11-09_16h11.01.929,test_typingtask_norepeats,2020.2.10,59.986095270871,
vanru,vanru,,,,,,,,,0,67,67,67,,,,,,,,,,,,,,,1153.0953355999663,None,"['v', 'a', 'n', 'r', 'u']",1,"[0.724164400016889, 0.8121192001271993, 0.9241526001133025, 1.0602086000144482, 1.196257600095123]",1153.0953355999663,None,1153.0952009000816,None,s217_11092023,001,2023-11-09_16h11.01.929,test_typingtask_norepeats,2020.2.10,59.986095270871,
cheer,cheer,,,,,,,,,0,68,68,68,,,,,,,,,,,,,,,1158.5961213998962,None,"['c', 'h', 'e', 'e', 'r']",1,"[0.6153671001084149, 0.7353429000359029, 0.8554225000552833, 1.031342700123787, 1.1353583000600338]",1158.5961213998962,None,1158.5953183999286,None,s217_11092023,001,2023-11-09_16h11.01.929,test_typingtask_norepeats,2020.2.10,59.986095270871,
about,about,,,,,,,,,0,69,69,69,,,,,,,,,,,,,,,1164.0954835000448,None,"['a', 'b', 'o', 'u', 't']",1,"[0.6040019001811743, 0.7480150000192225, 0.9320070000831038, 1.068017499987036, 1.204022099962458]",1164.0954835000448,None,1164.0953088999727,None,s217_11092023,001,2023-11-09_16h11.01.929,test_typingtask_norepeats,2020.2.10,59.986095270871,
tithe,tithe,,,,,,,,,0,70,70,70,,,,,,,,,,,,,,,1169.5954591000918,None,"['t', 'i', 't', 'h', 'e']",1,"[0.6881244999822229, 0.752093099988997, 0.8720615999773145, 0.944013699889183, 1.0399972000159323]",1169.5954591000918,None,1169.5953799000476,None,s217_11092023,001,2023-11-09_16h11.01.929,test_typingtask_norepeats,2020.2.10,59.986095270871,
there,there,,,,,,,,,0,71,71,71,,,,,,,,,,,,,,,1175.0955364999827,None,"['t', 'h', 'e', 'r', 'e']",1,"[0.5560320999938995, 0.6281516999006271, 0.7480313999112695, 0.8280857999343425, 0.9401568998582661]",1175.0955364999827,None,1175.0954306000845,None,s217_11092023,001,2023-11-09_16h11.01.929,test_typingtask_norepeats,2020.2.10,59.986095270871,
pykka,pykka,,,,,,,,,0,72,72,72,,,,,,,,,,,,,,,1180.5955731000286,None,"['p', 'y', 'k', 'k', 'a']",1,"[0.5920418000314385, 0.7519303001463413, 0.9844522001221776, 1.1281045000068843, 1.2800803000573069]",1180.5955731000286,None,1180.59539680006,None,s217_11092023,001,2023-11-09_16h11.01.929,test_typingtask_norepeats,2020.2.10,59.986095270871,
cooed,cooed,,,,,,,,,0,73,73,73,,,,,,,,,,,,,,,1186.095625200076,None,"['c', 'o', 'o', 'e', 'd']",1,"[0.5719419999513775, 0.7078801998868585, 0.8838656998705119, 1.0359703998547047, 1.219877899857238]",1186.095625200076,None,1186.0954894000665,None,s217_11092023,001,2023-11-09_16h11.01.929,test_typingtask_norepeats,2020.2.10,59.986095270871,
about,about,,,,,,,,,0,74,74,74,,,,,,,,,,,,,,,1191.595647699898,None,"['a', 'b', 'o', 'u', 't']",1,"[0.6560225998982787, 0.8081881999969482, 0.9600418999325484, 1.1117983998265117, 1.2318412000313401]",1191.595647699898,None,1191.5955452000258,None,s217_11092023,001,2023-11-09_16h11.01.929,test_typingtask_norepeats,2020.2.10,59.986095270871,
vodka,vodka,,,,,,,,,0,75,75,75,,,,,,,,,,,,,,,1197.0957043000963,None,"['v', 'o', 'd', 'k', 'a']",1,"[0.7958027999848127, 0.8918198000174016, 1.0518600998912007, 1.1398416999727488, 1.291830699890852]",1197.0957043000963,None,1197.095552600082,None,s217_11092023,001,2023-11-09_16h11.01.929,test_typingtask_norepeats,2020.2.10,59.986095270871,
lucky,lucky,,,,,,,,,0,76,76,76,,,,,,,,,,,,,,,1202.5957112000324,None,"['l', 'u', 'c', 'k', 'y']",1,"[0.6318530000280589, 0.8158525999169797, 0.9918249999172986, 1.103766500018537, 1.3197770998813212]",1202.5957112000324,None,1202.5955645000563,None,s217_11092023,001,2023-11-09_16h11.01.929,test_typingtask_norepeats,2020.2.10,59.986095270871,
haole,haole,,,,,,,,,0,77,77,77,,,,,,,,,,,,,,,1208.095764100086,None,"['h', 'a', 'o', 'l', 'e']",1,"[0.6358302000444382, 0.7157745999284089, 0.8438977999612689, 1.0357743001077324, 1.1237975999247283]",1208.095764100086,None,1208.0955881998875,None,s217_11092023,001,2023-11-09_16h11.01.929,test_typingtask_norepeats,2020.2.10,59.986095270871,
heond,heond,,,,,,,,,0,78,78,78,,,,,,,,,,,,,,,1213.5957975001074,None,"['h', 'e', 'o', 'n', 'd']",1,"[0.6876868999097496, 0.8237234998960048, 0.9197001999709755, 1.0477146999910474, 1.1838006998877972]",1213.5957975001074,None,1213.5956662999001,None,s217_11092023,001,2023-11-09_16h11.01.929,test_typingtask_norepeats,2020.2.10,59.986095270871,
think,think,,,,,,,,,0,79,79,79,,,,,,,,,,,,,,,1219.0957875999156,None,"['t', 'h', 'i', 'n', 'k']",1,"[0.6117413998581469, 0.7077752000186592, 0.8438112998846918, 0.9718084998894483, 1.0677538998425007]",1219.0957875999156,None,1219.095669699926,None,s217_11092023,001,2023-11-09_16h11.01.929,test_typingtask_norepeats,2020.2.10,59.986095270871,
there,there,,,,,,,,,0,80,80,80,,,,,,,,,,,,,,,1224.5958247000817,None,"['t', 'h', 'e', 'r', 'e']",1,"[0.5997212000656873, 0.6957439000252634, 0.8237427000422031, 0.9197943001054227, 1.031720600090921]",1224.5958247000817,None,1224.5957042000723,1224.6958435000852,s217_11092023,001,2023-11-09_16h11.01.929,test_typingtask_norepeats,2020.2.10,59.986095270871,
belly,belly,,,,,,,,,0,81,81,81,,,,,,,,,,,,,,,1230.095888900105,None,"['b', 'g', 'e', 'l', 'l', 'y']",0,"[0.6116615000646561, 0.6196091000456363, 0.7396494999993593, 0.8436817000620067, 1.0197695000097156, 1.12362669990398]",1230.095888900105,None,1230.0957863999997,1230.195909800008,s217_11092023,001,2023-11-09_16h11.01.929,test_typingtask_norepeats,2020.2.10,59.986095270871,
edthe,edthe,,,,,,,,,0,82,82,82,,,,,,,,,,,,,,,1235.59596029995,None,"['e', 'd', 't', 'h', 'e']",1,"[0.7355857000220567, 0.983579299878329, 1.183576799929142, 1.303584299981594, 1.383578300010413]",1235.59596029995,None,1235.5958194000182,1235.6959587999154,s217_11092023,001,2023-11-09_16h11.01.929,test_typingtask_norepeats,2020.2.10,59.986095270871,
druze,druze,,,,,,,,,0,83,83,83,,,,,,,,,,,,,,,1241.0959626999684,None,"['d', 'r', 'u', 'z', 'e']",1,"[0.6116472999565303, 0.7556046999525279, 0.8835534998215735, 1.0356670999899507, 1.1875632998999208]",1241.0959626999684,None,1241.095894100005,1241.1960008000024,s217_11092023,001,2023-11-09_16h11.01.929,test_typingtask_norepeats,2020.2.10,59.986095270871,
lucky,lucky,,,,,,,,,0,84,84,84,,,,,,,,,,,,,,,1246.5960025000386,None,"['l', 'u', 'c', 'k', 'y']",1,"[0.6315168000292033, 0.8476080000400543, 1.047500800108537, 1.183608200168237, 1.351529800100252]",1246.5960025000386,None,1246.595901399944,1246.6959859998897,s217_11092023,001,2023-11-09_16h11.01.929,test_typingtask_norepeats,2020.2.10,59.986095270871,
edthe,edthe,,,,,,,,,0,85,85,85,,,,,,,,,,,,,,,1252.0960478000343,None,"['e', 'd', 't', 'h', 'e']",1,"[0.5714975001756102, 0.7714941999875009, 0.9235362999606878, 1.0275084001477808, 1.1396121999714524]",1252.0960478000343,None,1252.0959363000934,1252.1960815000348,s217_11092023,001,2023-11-09_16h11.01.929,test_typingtask_norepeats,2020.2.10,59.986095270871,
buddy,buddy,,,,,,,,,0,86,86,86,,,,,,,,,,,,,,,1257.5960562000982,None,"['b', 'u', 'd', 'd', 'y']",1,"[0.5996453000698239, 0.7995414000470191, 0.9435463999398053, 1.09555170009844, 1.207535200053826]",1257.5960562000982,None,1257.5959710000084,1257.6961056999862,s217_11092023,001,2023-11-09_16h11.01.929,test_typingtask_norepeats,2020.2.10,59.986095270871,
theme,theme,,,,,,,,,0,87,87,87,,,,,,,,,,,,,,,1263.0961174000986,None,"['t', 'h', 'e', 'm', 'e']",1,"[0.8594765001907945, 1.0034508001990616, 1.11544380011037, 1.2835316001437604, 1.3954738001339138]",1263.0961174000986,None,1263.0960672000424,1263.1961644999683,s217_11092023,001,2023-11-09_16h11.01.929,test_typingtask_norepeats,2020.2.10,59.986095270871,
champ,champ,,,,,,,,,0,88,88,88,,,,,,,,,,,,,,,1268.596157999942,None,"['c', 'h', 'a', 'm', 'p']",1,"[0.6554638999514282, 0.7594258000608534, 0.8715502999257296, 0.9675129000097513, 1.1195481000468135]",1268.596157999942,None,1268.5960348000285,1268.6961986001115,s217_11092023,001,2023-11-09_16h11.01.929,test_typingtask_norepeats,2020.2.10,59.986095270871,
buddy,buddy,,,,,,,,,0,89,89,89,,,,,,,,,,,,,,,1274.0962203999516,None,"['b', 'u', 'd', 'd', 'y']",1,"[0.6114306999370456, 0.8193308999761939, 0.9394102999940515, 1.1233236000407487, 1.2113451999612153]",1274.0962203999516,None,1274.0960821000394,None,s217_11092023,001,2023-11-09_16h11.01.929,test_typingtask_norepeats,2020.2.10,59.986095270871,
haole,haole,,,,,,,,,0,90,90,90,,,,,,,,,,,,,,,1279.5963047000114,None,"['h', 'a', 'o', 'l', 'e']",1,"[0.6632743000518531, 0.7674216001760215, 0.9112289000768214, 1.1352659000549465, 1.2553119000513107]",1279.5963047000114,None,1279.596084199939,1279.6962558999658,s217_11092023,001,2023-11-09_16h11.01.929,test_typingtask_norepeats,2020.2.10,59.986095270871,
pykka,pykka,,,,,,,,,0,91,91,91,,,,,,,,,,,,,,,1285.096296200063,None,"['p', 'y', 'k', 'k', 'a']",1,"[0.6992806999478489, 0.9233695999719203, 1.307279699947685, 1.459282400086522, 1.6273509999737144]",1285.096296200063,None,1285.0961922999472,1285.1963015000802,s217_11092023,001,2023-11-09_16h11.01.929,test_typingtask_norepeats,2020.2.10,59.986095270871,
would,would,,,,,,,,,0,92,92,92,,,,,,,,,,,,,,,1290.5962867999915,None,"['w', 'o', 'u', 'l', 'd']",1,"[0.655302899889648, 0.7752610999159515, 0.9352511998731643, 1.095303799957037, 1.335289399838075]",1290.5962867999915,None,1290.5961642000825,1290.6962848999538,s217_11092023,001,2023-11-09_16h11.01.929,test_typingtask_norepeats,2020.2.10,59.986095270871,
champ,champ,,,,,,,,,0,93,93,93,,,,,,,,,,,,,,,1296.0963910999708,None,"['c', 'h', 'a', 'm', 'p']",1,"[0.6271953000687063, 0.7472588000819087, 0.8433432001620531, 0.963192299939692, 1.1312053999863565]",1296.0963910999708,None,1296.0962458000054,1296.1964116001036,s217_11092023,001,2023-11-09_16h11.01.929,test_typingtask_norepeats,2020.2.10,59.986095270871,
therm,therm,,,,,,,,,0,94,94,94,,,,,,,,,,,,,,,1301.5963993999176,None,"['t', 'h', 'e', 'r', 'm']",1,"[0.815191299887374, 0.9433927000500262, 1.0872505998704582, 1.239221999887377, 1.3592532000038773]",1301.5963993999176,None,1301.5962393999566,1301.6964340000413,s217_11092023,001,2023-11-09_16h11.01.929,test_typingtask_norepeats,2020.2.10,59.986095270871,
theme,theme,,,,,,,,,0,95,95,95,,,,,,,,,,,,,,,1307.096399199916,None,"['t', 'h', 'e', 'm', 'e']",1,"[0.723275399999693, 0.8833365000318736, 0.9871694000903517, 1.1631299001164734, 1.299339200137183]",1307.096399199916,None,1307.0963122000453,1307.1964670999441,s217_11092023,001,2023-11-09_16h11.01.929,test_typingtask_norepeats,2020.2.10,59.986095270871,
heond,heond,,,,,,,,,0,96,96,96,,,,,,,,,,,,,,,1312.5965185000096,None,"['h', 'e', 'o', 'n', 'd']",1,"[0.719073100015521, 0.8470096001401544, 0.9590489000547677, 1.0630385000258684, 1.1910733000840992]",1312.5965185000096,None,1312.5964428001084,1312.69651899999,s217_11092023,001,2023-11-09_16h11.01.929,test_typingtask_norepeats,2020.2.10,59.986095270871,
zibja,zibja,,,,,,,,,0,97,97,97,,,,,,,,,,,,,,,1318.0964852001052,None,"['z', 'i', 'b', 'j', 'a']",1,"[0.8031146998982877, 0.9071484999731183, 1.059134499868378, 1.2511622998863459, 1.4032705998979509]",1318.0964852001052,None,1318.0963857999072,1318.1965149999596,s217_11092023,001,2023-11-09_16h11.01.929,test_typingtask_norepeats,2020.2.10,59.986095270871,
druze,druze,,,,,,,,,0,98,98,98,,,,,,,,,,,,,,,1323.5965815000236,None,"['d', 'r', 'u', 'z', 'e']",1,"[0.6709964000619948, 0.8550064000301063, 0.9990205001085997, 1.1670936001464725, 1.3510742001235485]",1323.5965815000236,None,1323.596489099879,1323.6966226000804,s217_11092023,001,2023-11-09_16h11.01.929,test_typingtask_norepeats,2020.2.10,59.986095270871,
therm,therm,,,,,,,,,0,99,99,99,,,,,,,,,,,,,,,1329.096623999998,None,"['t', 'h', 'e', 'r', 'm']",1,"[0.8989758000243455, 0.9790833999868482, 1.114973000017926, 1.2271954000461847, 1.2831910999957472]",1329.096623999998,None,1329.0965475000908,1329.1965983000118,s217_11092023,001,2023-11-09_16h11.01.929,test_typingtask_norepeats,2020.2.10,59.986095270871,
cheer,cheer,,,,,,,,,0,100,100,100,,,,,,,,,,,,,,,1334.5966203000862,None,"['c', 'h', 'e', 'e', 'r']",1,"[0.8790031000971794, 0.9909606000874192, 1.1349865000229329, 1.3109959000721574, 1.3909494001418352]",1334.5966203000862,None,1334.5964451000095,1334.6965695999097,s217_11092023,001,2023-11-09_16h11.01.929,test_typingtask_norepeats,2020.2.10,59.986095270871,
kremp,kremp,,,,,,,,,0,101,101,101,,,,,,,,,,,,,,,1340.0966280000284,None,"['k', 'r', 'e', 'm', 'p']",1,"[0.8509605000726879, 1.0269366998691112, 1.1309867999516428, 1.3149496000260115, 1.6029974999837577]",1340.0966280000284,None,1340.0965111999308,1340.196654099971,s217_11092023,001,2023-11-09_16h11.01.929,test_typingtask_norepeats,2020.2.10,59.986095270871,
faqir,faqir,,,,,,,,,0,102,102,102,,,,,,,,,,,,,,,1345.596730099991,None,"['f', 'a', 'q', 'i', 'r']",1,"[0.9028676999732852, 1.038870400050655, 1.2948574000038207, 1.438819499919191, 1.5668383999727666]",1345.596730099991,None,1345.5965882999358,1345.6966792000458,s217_11092023,001,2023-11-09_16h11.01.929,test_typingtask_norepeats,2020.2.10,59.986095270871,
pykka,pykka,,,,,,,,,0,103,103,103,,,,,,,,,,,,,,,1351.0967427999713,None,"['p', 'y', 'k', 'k', 'a']",1,"[0.5950219000224024, 0.7790289002005011, 1.027078100014478, 1.1788813001476228, 1.3070252002216876]",1351.0967427999713,None,1351.0966454000213,1351.1967863999307,s217_11092023,001,2023-11-09_16h11.01.929,test_typingtask_norepeats,2020.2.10,59.986095270871,
buddy,buddy,,,,,,,,,0,104,104,104,,,,,,,,,,,,,,,1356.5967786998954,None,"['b', 'u', 'd', 'd', 'y']",1,"[0.638841399922967, 0.8390057000797242, 0.9908308000303805, 1.1509463998954743, 1.246824499918148]",1356.5967786998954,None,1356.5966796999332,1356.696818599943,s217_11092023,001,2023-11-09_16h11.01.929,test_typingtask_norepeats,2020.2.10,59.986095270871,
vodka,vodka,,,,,,,,,0,105,105,105,,,,,,,,,,,,,,,1362.096841899911,None,"['v', 'o', 'd', 'k', 'a']",1,"[0.7387604999821633, 0.8427657000720501, 0.9788175001740456, 1.0747132000979036, 1.2027553000953048]",1362.096841899911,None,1362.096724700043,1362.1968489999417,s217_11092023,001,2023-11-09_16h11.01.929,test_typingtask_norepeats,2020.2.10,59.986095270871,
puppy,puppy,,,,,,,,,0,106,106,106,,,,,,,,,,,,,,,1367.596883600112,None,"['p', 'u', 'p', 'p', 'y']",1,"[0.7671709000132978, 1.094738599844277, 1.2549943998456001, 1.422762099886313, 1.5987552998121828]",1367.596883600112,None,1367.5967865999323,1367.6968787999358,s217_11092023,001,2023-11-09_16h11.01.929,test_typingtask_norepeats,2020.2.10,59.986095270871,
champ,champ,,,,,,,,,0,107,107,107,,,,,,,,,,,,,,,1373.0968889999203,None,"['c', 'h', 'a', 'm', 'p']",1,"[0.6267747001256794, 0.6987258000299335, 0.8027198000345379, 0.8827298001851887, 1.02673410018906]",1373.0968889999203,None,1373.0967905999628,1373.1969417999499,s217_11092023,001,2023-11-09_16h11.01.929,test_typingtask_norepeats,2020.2.10,59.986095270871,
kremp,kremp,,,,,,,,,0,108,108,108,,,,,,,,,,,,,,,1378.596913299989,None,"['k', 'r', 'e', 'm', 'p']",1,"[0.7907881001010537, 0.9587004000786692, 1.0707074999809265, 1.2387070001568645, 1.3106923999730498]",1378.596913299989,None,1378.5969733000734,1378.6969880000688,s217_11092023,001,2023-11-09_16h11.01.929,test_typingtask_norepeats,2020.2.10,59.986095270871,
heond,heond,,,,,,,,,0,109,109,109,,,,,,,,,,,,,,,1384.097077399958,None,"['h', 'e', 'o', 'n', 'd']",1,"[0.6505530001595616, 0.7785635001491755, 0.8424811000004411, 0.9625876001082361, 1.0665939999744296]",1384.097077399958,None,1384.0968602999114,1384.1969951000065,s217_11092023,001,2023-11-09_16h11.01.929,test_typingtask_norepeats,2020.2.10,59.986095270871,
haole,haole,,,,,,,,,0,110,110,110,,,,,,,,,,,,,,,1389.597015599953,None,"['h', 'a', 'o', 'l', 'e']",1,"[0.6147807999514043, 0.718574299942702, 0.8386595000047237, 1.0386632999870926, 1.1505852998234332]",1389.597015599953,None,1389.5968920000364,1389.6970524000935,s217_11092023,001,2023-11-09_16h11.01.929,test_typingtask_norepeats,2020.2.10,59.986095270871,
there,there,,,,,,,,,0,111,111,111,,,,,,,,,,,,,,,1395.0970622999594,None,"['t', 'h', 'e', 'r', 'e']",1,"[0.6506248000077903, 0.7225838000886142, 0.8505754000507295, 0.9465560999233276, 1.050616699969396]",1395.0970622999594,None,1395.0969854999335,1395.1970627999399,s217_11092023,001,2023-11-09_16h11.01.929,test_typingtask_norepeats,2020.2.10,59.986095270871,
tithe,tithe,,,,,,,,,0,112,112,112,,,,,,,,,,,,,,,1400.5970888000447,None,"['t', 'i', 't', 'h', 'e']",1,"[1.0145368999801576, 1.1425894999410957, 1.238651500083506, 1.3345437999814749, 1.438629599986598]",1400.5970888000447,None,1400.5969739999623,1400.6971297999844,s217_11092023,001,2023-11-09_16h11.01.929,test_typingtask_norepeats,2020.2.10,59.986095270871,
belly,belly,,,,,,,,,0,113,113,113,,,,,,,,,,,,,,,1406.0971580999903,None,"['b', 'e', 'l', 'l', 'y']",1,"[0.6344879001844674, 0.8105152000207454, 0.9065392999909818, 1.0907114001456648, 1.2265147001016885]",1406.0971580999903,None,1406.0970508000814,1406.1971712999512,s217_11092023,001,2023-11-09_16h11.01.929,test_typingtask_norepeats,2020.2.10,59.986095270871,
druze,druze,,,,,,,,,0,114,114,114,,,,,,,,,,,,,,,1411.5971971999388,None,"['d', 'r', 'u', 'z', 'e']",1,"[0.8145316999871284, 1.0064544000197202, 1.1344967000186443, 1.310471500037238, 1.5104540998581797]",1411.5971971999388,None,1411.5970645000693,None,s217_11092023,001,2023-11-09_16h11.01.929,test_typingtask_norepeats,2020.2.10,59.986095270871,
tithe,tithe,,,,,,,,,0,115,115,115,,,,,,,,,,,,,,,1417.0972174000926,None,"['t', 'i', 't', 'h', 'e']",1,"[0.9384725999552757, 1.034487099852413, 1.1145232999697328, 1.2185453998390585, 1.3223942997865379]",1417.0972174000926,None,1417.0971418999602,1417.197195299901,s217_11092023,001,2023-11-09_16h11.01.929,test_typingtask_norepeats,2020.2.10,59.986095270871,
cooed,cooed,,,,,,,,,0,116,116,116,,,,,,,,,,,,,,,1422.5972368000075,None,"['c', 'o', 'o', 'e', 'd']",1,"[0.6945367001462728, 0.8625545999966562, 1.0384307000786066, 1.1663850001059473, 1.342634900007397]",1422.5972368000075,None,1422.5971573000775,1422.697319000028,s217_11092023,001,2023-11-09_16h11.01.929,test_typingtask_norepeats,2020.2.10,59.986095270871,
think,think,,,,,,,,,0,117,117,117,,,,,,,,,,,,,,,1428.0973340000492,None,"['t', 'h', 'i', 'n', 'k']",1,"[0.5863933998625726, 0.7223169000353664, 0.8744846999179572, 1.0185026000253856, 1.1384767000563443]",1428.0973340000492,None,1428.0971511999146,1428.1974553999025,s217_11092023,001,2023-11-09_16h11.01.929,test_typingtask_norepeats,2020.2.10,59.986095270871,
therm,therm,,,,,,,,,0,118,118,118,,,,,,,,,,,,,,,1433.5972967999987,None,"['t', 'h', 'e', 'r', 'm']",1,"[0.6464004998560995, 0.7183440998196602, 0.854368899948895, 0.9503581000026315, 1.0064725999254733]",1433.5972967999987,None,1433.597213199921,1433.6973667999264,s217_11092023,001,2023-11-09_16h11.01.929,test_typingtask_norepeats,2020.2.10,59.986095270871,
belly,belly,,,,,,,,,0,119,119,119,,,,,,,,,,,,,,,1439.0973632000387,None,"['b', 'e', 'l', 'l', 'y']",1,"[0.62630490004085, 0.7783731000963598, 0.8582995999604464, 1.0183027000166476, 1.154312300030142]",1439.0973632000387,None,1439.097269299999,1439.1973945999052,s217_11092023,001,2023-11-09_16h11.01.929,test_typingtask_norepeats,2020.2.10,59.986095270871,
