string,corrAns,practice_trials.thisRepN,practice_trials.thisTrialN,practice_trials.thisN,practice_trials.thisIndex,trials_1.thisRepN,trials_1.thisTrialN,trials_1.thisN,trials_1.thisIndex,trials_2.thisRepN,trials_2.thisTrialN,trials_2.thisN,trials_2.thisIndex,key_resp_0.keys,key_resp_0.corr,key_resp_0.rt,text_1.started,text_1.stopped,key_resp_1.keys,key_resp_1.corr,key_resp_1.rt,key_resp_1.started,key_resp_1.stopped,sound_1A_1.started,sound_1A_1.stopped,break_time.started,break_time.stopped,text_2.started,text_2.stopped,key_resp_2.keys,key_resp_2.corr,key_resp_2.rt,key_resp_2.started,key_resp_2.stopped,sound_1A_2.started,sound_1A_2.stopped,participant,session,date,expName,psychopyVersion,frameRate,
fresh,fresh,0,0,0,0,,,,,,,,,"['f', 'r', 'e']",0,"[2.1481888219714165, 2.3641786619555205, 2.604137263027951]",,,,,,,,,,,,,,,,,,,,,s219_04132023,001,2023_Apr_13_1716,test_typingtask_norepeats,2020.2.10,59.967065362214214,
dream,dream,0,1,1,1,,,,,,,,,"['d', 'r', 'e', 'a', 'm', 'n']",0,"[1.378204076900147, 1.594173418940045, 1.7861360519891605, 2.0260900770081207, 2.1781693879747763, 2.2021772959269583]",,,,,,,,,,,,,,,,,,,,,s219_04132023,001,2023_Apr_13_1716,test_typingtask_norepeats,2020.2.10,59.967065362214214,
slime,slime,0,2,2,2,,,,,,,,,"['s', 'k', 'i', 'm', 'e']",0,"[1.0940434250514954, 1.2621220950968564, 1.5260322419926524, 2.446037120069377, 2.78213724703528]",,,,,,,,,,,,,,,,,,,,,s219_04132023,001,2023_Apr_13_1716,test_typingtask_norepeats,2020.2.10,59.967065362214214,
tithe,tithe,,,,,0,0,0,0,,,,,,,,2004.6542581509566,None,"['t', 'i', 't', 'h', 'e']",1,"[1.1689555160701275, 1.360993676004, 1.5370194660499692, 1.7050648180302233, 1.9290692820213735]",2004.6542581509566,None,2004.6479531463585,2004.747538808966,,,,,,,,,,,,s219_04132023,001,2023_Apr_13_1716,test_typingtask_norepeats,2020.2.10,59.967065362214214,
puppy,puppy,,,,,0,1,1,1,,,,,,,,2010.1639112220146,None,"['p', 'u', 'p', 'p', 'y']",1,"[1.1874267950188369, 1.4113931440515444, 1.6753794110845774, 1.8433168340707198, 2.203419503988698]",2010.1639112220146,None,2010.163841888297,2010.263949398999,,,,,,,,,,,,s219_04132023,001,2023_Apr_13_1716,test_typingtask_norepeats,2020.2.10,59.967065362214214,
buddy,buddy,,,,,0,2,2,2,,,,,,,,2015.6641299870098,None,"['b', 'u', 'd', 'd', 'y']",1,"[1.1111794860335067, 1.3191852770978585, 1.8551776270614937, 2.015179672045633, 2.1831238890299574]",2015.6641299870098,None,2015.6639598283102,2015.7637902720599,,,,,,,,,,,,s219_04132023,001,2023_Apr_13_1716,test_typingtask_norepeats,2020.2.10,59.967065362214214,
druze,druze,,,,,0,3,3,3,,,,,,,,2021.1638337660115,None,"['d', 'r', 'u', 'z', 'e']",1,"[1.0754642400424927, 1.3874805730301887, 1.6273552069906145, 2.0835113499779254, 2.3394358919467777]",2021.1638337660115,None,2021.1640418323107,2021.2638648430584,,,,,,,,,,,,s219_04132023,001,2023_Apr_13_1716,test_typingtask_norepeats,2020.2.10,59.967065362214214,
theme,theme,,,,,0,4,4,4,,,,,,,,2026.663943868014,None,"['t', 'h', 'e', 'm', 'e']",1,"[1.007288335938938, 1.1672608819790184, 1.3193526869872585, 1.5592577899806201, 1.7193807259900495]",2026.663943868014,None,2026.6640590103227,2026.7638327269815,,,,,,,,,,,,s219_04132023,001,2023_Apr_13_1716,test_typingtask_norepeats,2020.2.10,59.967065362214214,
vodka,vodka,,,,,0,5,5,5,,,,,,,,2032.1640411260305,None,"['v', 'o', 's', 'k', 'e']",0,"[1.6992826919304207, 1.8671540259383619, 2.131217594956979, 2.787302824901417, 2.9712828199844807]",2032.1640411260305,None,2032.1638718972565,2032.2638170520077,,,,,,,,,,,,s219_04132023,001,2023_Apr_13_1716,test_typingtask_norepeats,2020.2.10,59.967065362214214,
buddy,buddy,,,,,0,6,6,6,,,,,,,,2037.6638782450464,None,"['b', 'u', 'd', 'd', 'y']",1,"[1.5034972690045834, 1.719393696053885, 1.9673233210342005, 2.1273180909920484, 2.29546668601688]",2037.6638782450464,None,2037.6639240282705,2037.7638542470522,,,,,,,,,,,,s219_04132023,001,2023_Apr_13_1716,test_typingtask_norepeats,2020.2.10,59.967065362214214,
therm,therm,,,,,0,7,7,7,,,,,,,,2043.1638863040134,None,"['t', 'h', 'e', 'r', 'm', 'n']",0,"[0.9874164120992646, 1.1793876010924578, 1.5153943810146302, 1.7474153640214354, 1.9954614250455052, 1.9954614250455052]",2043.1638863040134,None,2043.164005757298,2043.2639936390333,,,,,,,,,,,,s219_04132023,001,2023_Apr_13_1716,test_typingtask_norepeats,2020.2.10,59.967065362214214,
faqir,faqir,,,,,0,8,8,8,,,,,,,,2048.664077398018,None,"['f', 'a', 'q', 'i']",0,"[1.2151900139870122, 1.7192419919883832, 2.0632362270262092, 3.3112197970040143]",2048.664077398018,None,2048.66389534726,2048.7638374679955,,,,,,,,,,,,s219_04132023,001,2023_Apr_13_1716,test_typingtask_norepeats,2020.2.10,59.967065362214214,
vodka,vodka,,,,,0,9,9,9,,,,,,,,2054.163754989975,None,"['v', 'o', 'd', 'k', 'a']",1,"[1.4115870329551399, 1.6594847119413316, 1.9155218589585274, 2.179466761997901, 2.579500790918246]",2054.163754989975,None,2054.1637860343208,2054.26388675801,,,,,,,,,,,,s219_04132023,001,2023_Apr_13_1716,test_typingtask_norepeats,2020.2.10,59.967065362214214,
would,would,,,,,0,10,10,10,,,,,,,,2059.664004715043,None,"['w', 'o', 'u', 'l', 'd']",1,"[1.375354617019184, 1.543188231997192, 1.7913191900588572, 2.047246066038497, 2.255320372991264]",2059.664004715043,None,2059.663806925283,2059.7638929090463,,,,,,,,,,,,s219_04132023,001,2023_Apr_13_1716,test_typingtask_norepeats,2020.2.10,59.967065362214214,
tithe,tithe,,,,,0,11,11,11,,,,,,,,2065.1637459379854,None,"['t', 'i', 't', 'h', 'e']",1,"[0.9394893409917131, 1.1635648250812665, 1.3315070690587163, 1.5075787450186908, 1.7075429169926792]",2065.1637459379854,None,2065.163913964282,2065.2642091909656,,,,,,,,,,,,s219_04132023,001,2023_Apr_13_1716,test_typingtask_norepeats,2020.2.10,59.967065362214214,
cheer,cheer,,,,,0,12,12,12,,,,,,,,2070.664146775962,None,"['c', 'h', 'e', 'e', 'r']",1,"[1.3111751120304689, 1.5111023490317166, 1.6872227599378675, 1.8471642440417781, 2.0231822970090434]",2070.664146775962,None,2070.6639177022616,2070.7639020569623,,,,,,,,,,,,s219_04132023,001,2023_Apr_13_1716,test_typingtask_norepeats,2020.2.10,59.967065362214214,
lucky,lucky,,,,,0,13,13,13,,,,,,,,2076.1639685980044,None,"['l', 'u', 'c', 'k', 'y']",1,"[1.0432396399555728, 1.3393066939897835, 1.643243397003971, 1.8033914929255843, 2.019335779012181]",2076.1639685980044,None,2076.1638837403034,2076.263963817968,,,,,,,,,,,,s219_04132023,001,2023_Apr_13_1716,test_typingtask_norepeats,2020.2.10,59.967065362214214,
champ,champ,,,,,0,14,14,14,,,,,,,,2081.663993683993,None,"['c', 'h', 'a', 'm', 'p', 'p']",0,"[0.9671871269820258, 1.2232557369861752, 1.4152893970021978, 1.6152367279864848, 1.8553028459427878, 2.039312297012657]",2081.663993683993,None,2081.6638388093443,2081.763878040947,,,,,,,,,,,,s219_04132023,001,2023_Apr_13_1716,test_typingtask_norepeats,2020.2.10,59.967065362214214,
cheer,cheer,,,,,0,15,15,15,,,,,,,,2087.1639616120374,None,"['c', 'h', 'e', 'e', 'r']",1,"[0.8993879149202257, 1.0754237509099767, 1.2432504229946062, 1.4033856129972264, 1.5713550109649077]",2087.1639616120374,None,2087.1640249242655,2087.263914398034,,,,,,,,,,,,s219_04132023,001,2023_Apr_13_1716,test_typingtask_norepeats,2020.2.10,59.967065362214214,
vodka,vodka,,,,,0,16,16,16,,,,,,,,2092.664003793965,None,"['v', 'o', 'd', 'k', 'a']",1,"[1.2392701209755614, 1.4953189169755206, 1.8152796159265563, 2.095259371912107, 2.311256806948222]",2092.664003793965,None,2092.6640434493193,2092.7638357209507,,,,,,,,,,,,s219_04132023,001,2023_Apr_13_1716,test_typingtask_norepeats,2020.2.10,59.967065362214214,
puppy,puppy,,,,,0,17,17,17,,,,,,,,2098.1640879119514,None,"['p', 'u', 'p', 'p', 'y']",1,"[1.011263792985119, 1.2832205470185727, 1.5232440159888938, 1.6992375659756362, 1.9231963540660217]",2098.1640879119514,None,2098.164011022297,2098.2638293219497,,,,,,,,,,,,s219_04132023,001,2023_Apr_13_1716,test_typingtask_norepeats,2020.2.10,59.967065362214214,
cooed,cooed,,,,,0,18,18,18,,,,,,,,2103.6641509879846,None,"['c', 'o', 'o', 'o', 'e', 'd']",0,"[1.063167665968649, 1.271070091985166, 1.4551707960199565, 1.615121588925831, 1.8871696999995038, 2.095217189984396]",2103.6641509879846,None,2103.664004975336,2103.764297852991,,,,,,,,,,,,s219_04132023,001,2023_Apr_13_1716,test_typingtask_norepeats,2020.2.10,59.967065362214214,
tithe,tithe,,,,,0,19,19,19,,,,,,,,2109.1640456570312,None,"['t', 'i', 't', 'h', 'e']",1,"[1.1311627760296687, 1.3312025170307606, 1.4753069559810683, 1.6912212169263512, 1.915265421033837]",2109.1640456570312,None,2109.1640284902996,2109.2641431039665,,,,,,,,,,,,s219_04132023,001,2023_Apr_13_1716,test_typingtask_norepeats,2020.2.10,59.967065362214214,
edthe,edthe,,,,,0,20,20,20,,,,,,,,2114.6641239470337,None,"['e', 't', 'h', 'd']",0,"[1.1991786130238324, 1.4392012129537761, 1.655082607991062, 2.279133131960407]",2114.6641239470337,None,2114.6640403473166,2114.7640142140444,,,,,,,,,,,,s219_04132023,001,2023_Apr_13_1716,test_typingtask_norepeats,2020.2.10,59.967065362214214,
haole,haole,,,,,0,21,21,21,,,,,,,,2120.163937016041,None,"['h', 'a', 'o', 'l', 'e']",1,"[1.52334041998256, 1.9552553739631549, 2.2193895688978955, 2.4592593979323283, 2.587362859980203]",2120.163937016041,None,2120.164001763321,2120.2639739880105,,,,,,,,,,,,s219_04132023,001,2023_Apr_13_1716,test_typingtask_norepeats,2020.2.10,59.967065362214214,
druze,druze,,,,,0,22,22,22,,,,,,,,2125.6636937259464,None,"['d', 'r', 'u', 'z', 'e']",1,"[1.0475891589885578, 1.6555128840263933, 1.871580746024847, 2.3675105889560655, 2.591620957944542]",2125.6636937259464,None,2125.6639147433334,2125.7640789250145,,,,,,,,,,,,s219_04132023,001,2023_Apr_13_1716,test_typingtask_norepeats,2020.2.10,59.967065362214214,
faqir,faqir,,,,,0,23,23,23,,,,,,,,2131.163997979951,None,"['f', 'a', 'q', 'i', 'r']",1,"[1.259203632012941, 1.683318865019828, 1.979218248045072, 2.339268052019179, 2.547283648047596]",2131.163997979951,None,2131.163939162262,2131.2640703410143,,,,,,,,,,,,s219_04132023,001,2023_Apr_13_1716,test_typingtask_norepeats,2020.2.10,59.967065362214214,
puppy,puppy,,,,,0,24,24,24,,,,,,,,2136.6638535930542,None,"['p', 'u', 'u', 'p', 'y']",0,"[1.0154560139635578, 1.3034830018877983, 1.447449644911103, 1.6794168918859214, 2.007403443916701]",2136.6638535930542,None,2136.6640015923067,2136.7639927880373,,,,,,,,,,,,s219_04132023,001,2023_Apr_13_1716,test_typingtask_norepeats,2020.2.10,59.967065362214214,
haole,haole,,,,,0,25,25,25,,,,,,,,2142.1640253999503,None,"['h', 'a', 'o', 'l', 'e']",1,"[1.2192900510272011, 1.4511813450371847, 2.1472535660723224, 2.363348470069468, 2.5152062790002674]",2142.1640253999503,None,2142.163903581316,2142.2640403519617,,,,,,,,,,,,s219_04132023,001,2023_Apr_13_1716,test_typingtask_norepeats,2020.2.10,59.967065362214214,
there,there,,,,,0,26,26,26,,,,,,,,2147.664032706991,None,"['t', 'h', 'e', 'r', 'e']",1,"[0.9511726830387488, 1.1192507520318031, 1.2632569500710815, 1.4633088480914012, 1.6632314500166103]",2147.664032706991,None,2147.6639067462993,2147.7640203599585,,,,,,,,,,,,s219_04132023,001,2023_Apr_13_1716,test_typingtask_norepeats,2020.2.10,59.967065362214214,
think,think,,,,,0,27,27,27,,,,,,,,2153.164077174035,None,"['t', 'h', 'i', 'n', 'k']",1,"[0.9152375939302146, 1.0832406349945813, 1.291240679915063, 1.5152285859221593, 1.71523070090916]",2153.164077174035,None,2153.163906379358,2153.2644212140003,,,,,,,,,,,,s219_04132023,001,2023_Apr_13_1716,test_typingtask_norepeats,2020.2.10,59.967065362214214,
vodka,vodka,,,,,0,28,28,28,,,,,,,,2158.6640313880052,None,"['v', 'o', 'd', 'k', 'a']",1,"[1.431227347929962, 1.7033589800121263, 1.967180100036785, 2.479209527024068, 2.6632683819625527]",2158.6640313880052,None,2158.664016213256,2158.7638912040275,,,,,,,,,,,,s219_04132023,001,2023_Apr_13_1716,test_typingtask_norepeats,2020.2.10,59.967065362214214,
pykka,pykka,,,,,0,29,29,29,,,,,,,,2164.164075470995,None,"['p', 'y', 'k', 'k', 'a']",1,"[1.4032835520338267, 1.9311729229521006, 2.63528177596163, 2.7952252669492736, 3.0992421800037846]",2164.164075470995,None,2164.164069143345,2164.263955125003,,,,,,,,,,,,s219_04132023,001,2023_Apr_13_1716,test_typingtask_norepeats,2020.2.10,59.967065362214214,
vanru,vanru,,,,,0,30,30,30,,,,,,,,2169.6641503160354,None,"['v', 'a', 'n', 'r', 'u']",1,"[1.2710655089467764, 1.6471719850087538, 1.8071770180249587, 2.15104349097237, 2.447165702935308]",2169.6641503160354,None,2169.6641856323577,2169.7639368999517,,,,,,,,,,,,s219_04132023,001,2023_Apr_13_1716,test_typingtask_norepeats,2020.2.10,59.967065362214214,
about,about,,,,,0,31,31,31,,,,,,,,2175.164215145982,None,"['a', 'b', 'o', 'u', 't']",1,"[0.9550088320393115, 1.1549989900086075, 1.4030596010852605, 1.635028529097326, 1.8509956269990653]",2175.164215145982,None,2175.164160463365,2175.2640640289756,,,,,,,,,,,,s219_04132023,001,2023_Apr_13_1716,test_typingtask_norepeats,2020.2.10,59.967065362214214,
edthe,edthe,,,,,0,32,32,32,,,,,,,,2180.6644390380243,None,"['e', 'd', 't', 'h', 'e']",1,"[1.3668397649889812, 1.606889384915121, 1.8468192209256813, 2.030814946978353, 2.198939992929809]",2180.6644390380243,None,2180.664055808319,2180.764041546965,,,,,,,,,,,,s219_04132023,001,2023_Apr_13_1716,test_typingtask_norepeats,2020.2.10,59.967065362214214,
kremp,kremp,,,,,0,33,33,33,,,,,,,,2186.164086431032,None,"['k', 'r', 'e', 'm', 'p']",1,"[1.4271394070237875, 1.6032149130478501, 1.8592777160229161, 2.0511229230323806, 2.3471895990660414]",2186.164086431032,None,2186.164223181305,2186.2641253409674,,,,,,,,,,,,s219_04132023,001,2023_Apr_13_1716,test_typingtask_norepeats,2020.2.10,59.967065362214214,
cheer,cheer,,,,,0,34,34,34,,,,,,,,2191.663877469022,None,"['c', 'h', 'e', 'e', 'r']",1,"[1.0313996319891885, 1.2154097000602633, 1.3913748560007662, 1.5433370129903778, 1.7673311560647562]",2191.663877469022,None,2191.6640037903444,2191.7642528100405,,,,,,,,,,,,s219_04132023,001,2023_Apr_13_1716,test_typingtask_norepeats,2020.2.10,59.967065362214214,
there,there,,,,,0,35,35,35,,,,,,,,2197.163928532973,None,"['t', 'h', 'e', 'r', 'e']",1,"[0.8354750520084053, 0.9793107400182635, 1.1312874580034986, 1.3072685920633376, 1.499370814068243]",2197.163928532973,None,2197.1638576392897,2197.264118763036,,,,,,,,,,,,s219_04132023,001,2023_Apr_13_1716,test_typingtask_norepeats,2020.2.10,59.967065362214214,
cooed,cooed,,,,,0,36,36,36,,,,,,,,2202.663945585955,None,"['c', 'o', 'o', 'e', 'd']",1,"[1.1432679640129209, 1.3193632650654763, 1.4873556270031258, 1.6713014360284433, 1.8473787090042606]",2202.663945585955,None,2202.6640797733444,2202.7641241740203,,,,,,,,,,,,s219_04132023,001,2023_Apr_13_1716,test_typingtask_norepeats,2020.2.10,59.967065362214214,
think,think,,,,,0,37,37,37,,,,,,,,2208.1639662720263,None,"['t', 'h', 'i', 'n', 'k']",1,"[0.8512457000324503, 0.9553031210089102, 1.147336630965583, 1.363251080038026, 1.5473169180331752]",2208.1639662720263,None,2208.164198452362,2208.264523927006,,,,,,,,,,,,s219_04132023,001,2023_Apr_13_1716,test_typingtask_norepeats,2020.2.10,59.967065362214214,
cooed,cooed,,,,,0,38,38,38,,,,,,,,2213.664227214991,None,"['c', 'o', 'o', 'e', 'd']",1,"[0.8630657478934154, 1.079025687999092, 1.255091333994642, 1.4789883519988507, 1.6630702359834686]",2213.664227214991,None,2213.6641046602626,2213.764393763966,,,,,,,,,,,,s219_04132023,001,2023_Apr_13_1716,test_typingtask_norepeats,2020.2.10,59.967065362214214,
think,think,,,,,0,39,39,39,,,,,,,,2219.164156364044,None,"['t', 'h', 'i', 'n', 'k']",1,"[0.8351592050166801, 1.0111421510810032, 1.2751671380829066, 1.8430515750078484, 2.0831354060210288]",2219.164156364044,None,2219.164292968332,2219.2641864430625,,,,,,,,,,,,s219_04132023,001,2023_Apr_13_1716,test_typingtask_norepeats,2020.2.10,59.967065362214214,
puppy,puppy,,,,,0,40,40,40,,,,,,,,2224.664485107991,None,"['p', 'u', 'p', 'p', 'y']",1,"[1.0068295280216262, 1.2547988760052249, 1.5188117580255494, 1.7109311110107228, 1.9667143230326474]",2224.664485107991,None,2224.663992697361,2224.7640585709596,,,,,,,,,,,,s219_04132023,001,2023_Apr_13_1716,test_typingtask_norepeats,2020.2.10,59.967065362214214,
vanru,vanru,,,,,0,41,41,41,,,,,,,,2230.164032050059,None,"['v', 'a', 'n', 'r', 'u']",1,"[1.1872570009436458, 1.4511794949648902, 1.6033334808889776, 1.8272322479169816, 2.0671919289743528]",2230.164032050059,None,2230.164001666347,2230.264153870987,,,,,,,,,,,,s219_04132023,001,2023_Apr_13_1716,test_typingtask_norepeats,2020.2.10,59.967065362214214,
champ,champ,,,,,0,42,42,42,,,,,,,,2235.6642517989967,None,"['c', 'h', 'a', 'm', 'p']",1,"[0.9750219569541514, 1.1429510719608516, 1.3430608549388126, 1.542955158976838, 1.7669919800246134]",2235.6642517989967,None,2235.664232932252,2235.763990567997,,,,,,,,,,,,s219_04132023,001,2023_Apr_13_1716,test_typingtask_norepeats,2020.2.10,59.967065362214214,
think,think,,,,,0,43,43,43,,,,,,,,2241.1650116130477,None,"['t', 'h', 'i', 'n', 'k']",1,"[0.770323314005509, 0.9382941549411044, 1.1622835280140862, 1.418290133937262, 1.6822576340055093]",2241.1650116130477,None,2241.164504008356,2241.263992269989,,,,,,,,,,,,s219_04132023,001,2023_Apr_13_1716,test_typingtask_norepeats,2020.2.10,59.967065362214214,
tithe,tithe,,,,,0,44,44,44,,,,,,,,2246.664247725974,None,"['t', 'i', 't', 'h', 'e']",1,"[0.9989951009629294, 1.1990402019582689, 1.375048529007472, 1.5429189179558307, 1.7509168969700113]",2246.664247725974,None,2246.664220540307,2246.76432183804,,,,,,,,,,,,s219_04132023,001,2023_Apr_13_1716,test_typingtask_norepeats,2020.2.10,59.967065362214214,
there,there,,,,,0,45,45,45,,,,,,,,2252.164265393978,None,"['t', 'h', 'e', 'r', 'e']",1,"[0.8190189960878342, 0.9789249810855836, 1.130987017066218, 1.315140365040861, 1.4990673509892076]",2252.164265393978,None,2252.1642753822844,2252.2643738719635,,,,,,,,,,,,s219_04132023,001,2023_Apr_13_1716,test_typingtask_norepeats,2020.2.10,59.967065362214214,
lucky,lucky,,,,,0,46,46,46,,,,,,,,2257.664276094991,None,"['l', 'u', 'c', 'k', 'y']",1,"[1.1190316129941493, 1.4630017649615183, 1.9030456589534879, 2.087063294951804, 2.303031311952509]",2257.664276094991,None,2257.664208447316,2257.7641560160555,,,,,,,,,,,,s219_04132023,001,2023_Apr_13_1716,test_typingtask_norepeats,2020.2.10,59.967065362214214,
haole,haole,,,,,0,47,47,47,,,,,,,,2263.1642059430014,None,"['h', 'a', 'o', 'l', 'e']",1,"[1.3310121120885015, 1.5551080810837448, 1.9550639600493014, 2.2191146250115708, 2.395074597094208]",2263.1642059430014,None,2263.164366289263,2263.2641256490024,,,,,,,,,,,,s219_04132023,001,2023_Apr_13_1716,test_typingtask_norepeats,2020.2.10,59.967065362214214,
zibja,zibja,,,,,0,48,48,48,,,,,,,,2268.664539337973,None,"['z', 'i', 'b', 'j', 'a']",1,"[1.4868919550208375, 1.686729972017929, 1.9827214600518346, 2.5747889099875465, 3.2467781950253993]",2268.664539337973,None,2268.6642292482893,2268.764169877977,,,,,,,,,,,,s219_04132023,001,2023_Apr_13_1716,test_typingtask_norepeats,2020.2.10,59.967065362214214,
druze,druze,,,,,0,49,49,49,,,,,,,,2274.164268077002,None,"['d', 'r', 'u', 'z', 'e']",1,"[1.147046598023735, 1.3629875519545749, 1.6830490139545873, 2.178991499939002, 2.435009693959728]",2274.164268077002,None,2274.1641981133607,2274.2643083940493,,,,,,,,,,,,s219_04132023,001,2023_Apr_13_1716,test_typingtask_norepeats,2020.2.10,59.967065362214214,
kremp,kremp,,,,,0,50,50,50,,,,,,,,2279.664218851947,None,"['k', 'r', 'e', 'm', 'p']",1,"[1.4629952099639922, 1.639096420025453, 1.8310345619684085, 1.9991136519238353, 2.199106919928454]",2279.664218851947,None,2279.6641754043403,2279.7642164760036,,,,,,,,,,,,s219_04132023,001,2023_Apr_13_1716,test_typingtask_norepeats,2020.2.10,59.967065362214214,
champ,champ,,,,,0,51,51,51,,,,,,,,2285.164172673947,None,"['c', 'h', 'a', 'm', 'p']",1,"[1.1071772980503738, 1.2831494499696419, 1.4831427100580186, 1.6590347309829667, 1.9071522949961945]",2285.164172673947,None,2285.1641033133374,2285.264225597959,,,,,,,,,,,,s219_04132023,001,2023_Apr_13_1716,test_typingtask_norepeats,2020.2.10,59.967065362214214,
would,would,,,,,0,52,52,52,,,,,,,,2290.664336277987,None,"['w', 'o', 'u', 'l', 'd']",1,"[1.054999491898343, 1.2389302619267255, 1.478947284980677, 1.7269263128982857, 1.9269182569114491]",2290.664336277987,None,2290.664125401282,2290.764368048054,,,,,,,,,,,,s219_04132023,001,2023_Apr_13_1716,test_typingtask_norepeats,2020.2.10,59.967065362214214,
theme,theme,,,,,0,53,53,53,,,,,,,,2296.164415345993,None,"['t', 'h', 'e', 'm', 'e']",1,"[0.9389092660276219, 1.1307815850013867, 1.36285539297387, 2.1388514740392566, 2.306898773065768]",2296.164415345993,None,2296.1641043883164,2296.264339476009,,,,,,,,,,,,s219_04132023,001,2023_Apr_13_1716,test_typingtask_norepeats,2020.2.10,59.967065362214214,
therm,therm,,,,,0,54,54,54,,,,,,,,2301.664070021012,None,"['t', 'h', 'e', 'r', 'm']",1,"[0.9511833949945867, 1.0952166710048914, 1.2472384449793026, 1.4152313090162352, 1.5832172079244629]",2301.664070021012,None,2301.664099880366,2301.7639798950404,,,,,,,,,,,,s219_04132023,001,2023_Apr_13_1716,test_typingtask_norepeats,2020.2.10,59.967065362214214,
faqir,faqir,,,,,0,55,55,55,,,,,,,,2307.1643681529677,None,"['f', 'a', 'q', 'i', 'r']",1,"[1.226830448023975, 1.538955974043347, 1.874944181065075, 2.1389209020417184, 2.3629341650521383]",2307.1643681529677,None,2307.164207411336,2307.2640110830544,,,,,,,,,,,,s219_04132023,001,2023_Apr_13_1716,test_typingtask_norepeats,2020.2.10,59.967065362214214,
kremp,kremp,,,,,0,56,56,56,,,,,,,,2312.664263546001,None,"['k', 'r', 'e', 'm', 'p']",1,"[1.462971244007349, 1.6230504480190575, 1.8230069989804178, 1.9909610210452229, 2.190948602044955]",2312.664263546001,None,2312.6644928823107,2312.764174118056,,,,,,,,,,,,s219_04132023,001,2023_Apr_13_1716,test_typingtask_norepeats,2020.2.10,59.967065362214214,
champ,champ,,,,,0,57,57,57,,,,,,,,2318.1643231409835,None,"['c', 'h', 'e', 'a', 'm', 'p']",0,"[0.9549007070017979, 1.106998709961772, 1.2989883549744263, 1.8588912429986522, 2.1069001120049506, 2.3149257749319077]",2318.1643231409835,None,2318.1645331702775,2318.2644098589662,,,,,,,,,,,,s219_04132023,001,2023_Apr_13_1716,test_typingtask_norepeats,2020.2.10,59.967065362214214,
about,about,,,,,0,58,58,58,,,,,,,,2323.6644374110037,None,"['a', 'b', 'o', 'u', 't']",1,"[0.910856431000866, 1.0788161020027474, 1.2948818180011585, 1.5668601361103356, 1.7267648400738835]",2323.6644374110037,None,2323.6642219963132,2323.7645892329747,,,,,,,,,,,,s219_04132023,001,2023_Apr_13_1716,test_typingtask_norepeats,2020.2.10,59.967065362214214,
edthe,edthe,,,,,0,59,59,59,,,,,,,,2329.164116383996,None,"['a', 'd', 't', 'h', 'e']",0,"[1.0031769500346854, 1.8751985490089282, 2.1872595390304923, 2.331131390063092, 2.4911619510967284]",2329.164116383996,None,2329.1643998983664,2329.2643352419836,,,,,,,,,,,,s219_04132023,001,2023_Apr_13_1716,test_typingtask_norepeats,2020.2.10,59.967065362214214,
theme,theme,,,,,0,60,60,60,,,,,,,,2334.6641501949634,None,"['t', 'h', 'e', 'm', 'e']",1,"[0.8871967599261552, 1.0231614880030975, 1.1751186209730804, 1.3590453549986705, 1.4791138659929857]",2334.6641501949634,None,2334.6644599302554,2334.7642703639576,,,,,,,,,,,,s219_04132023,001,2023_Apr_13_1716,test_typingtask_norepeats,2020.2.10,59.967065362214214,
buddy,buddy,,,,,0,61,61,61,,,,,,,,2340.1641753260046,None,"['b', 'u', 'd', 'd', 'y']",1,"[1.0430339659797028, 1.2590469729620963, 1.499135022982955, 1.6670644789701328, 1.9150765229715034]",2340.1641753260046,None,2340.1643355772712,2340.2643296109745,,,,,,,,,,,,s219_04132023,001,2023_Apr_13_1716,test_typingtask_norepeats,2020.2.10,59.967065362214214,
heond,heond,,,,,0,62,62,62,,,,,,,,2345.664305352024,None,"['h', 'e', 'o', 'n', 'd']",1,"[1.166899117990397, 1.3910340900765732, 1.72692885203287, 1.983011623029597, 2.519011553027667]",2345.664305352024,None,2345.6643831613355,2345.7645750810625,,,,,,,,,,,,s219_04132023,001,2023_Apr_13_1716,test_typingtask_norepeats,2020.2.10,59.967065362214214,
zibja,zibja,,,,,0,63,63,63,,,,,,,,2351.164253226947,None,"['z', 'i', 'b', 'j', 'a']",1,"[1.2269435279304162, 1.442955294973217, 2.6750516039319336, 2.8669199019204825, 3.147047306993045]",2351.164253226947,None,2351.1642278883255,2351.264482229948,,,,,,,,,,,,s219_04132023,001,2023_Apr_13_1716,test_typingtask_norepeats,2020.2.10,59.967065362214214,
puppy,puppy,,,,,0,64,64,64,,,,,,,,2356.6642736300128,None,"['p', 'u', 'p', 'p', 'y']",1,"[0.9429383219685405, 1.2149871899746358, 1.479004375054501, 1.6629458910319954, 1.9991253099869937]",2356.6642736300128,None,2356.66433446632,2356.7642516120104,,,,,,,,,,,,s219_04132023,001,2023_Apr_13_1716,test_typingtask_norepeats,2020.2.10,59.967065362214214,
vanru,vanru,,,,,0,65,65,65,,,,,,,,2362.1815332069527,None,"['v', 'a', 'n', 'r', 'u']",1,"[1.1698292180662975, 1.4096626120153815, 1.5697461920790374, 1.817774177994579, 2.0976823060773313]",2362.1815332069527,None,2362.181059505313,2362.281189440051,,,,,,,,,,,,s219_04132023,001,2023_Apr_13_1716,test_typingtask_norepeats,2020.2.10,59.967065362214214,
champ,champ,,,,,0,66,66,66,,,,,,,,2367.6810145339696,None,"['c', 'h', 'a', 'm', 'p']",1,"[0.8621990140527487, 1.04620659397915, 1.2542803949909285, 1.4542173199588433, 1.6942981970496476]",2367.6810145339696,None,2367.681100061268,2367.780981868971,,,,,,,,,,,,s219_04132023,001,2023_Apr_13_1716,test_typingtask_norepeats,2020.2.10,59.967065362214214,
would,would,,,,,0,67,67,67,,,,,,,,2373.18106945802,None,"['w', 'o', 'u', 'l', 'd']",1,"[1.050216652918607, 1.2582647310337052, 1.4981830710312352, 1.746149793965742, 1.946165230940096]",2373.18106945802,None,2373.1812383002716,2373.2810021180194,,,,,,,,,,,,s219_04132023,001,2023_Apr_13_1716,test_typingtask_norepeats,2020.2.10,59.967065362214214,
belly,belly,,,,,0,68,68,68,,,,,,,,2378.681209165021,None,"['b', 'e', 'l', 'l', 'y']",1,"[1.0381183020072058, 1.7259980340022594, 1.91810747992713, 2.094052169006318, 2.2461290629580617]",2378.681209165021,None,2378.68110759136,2378.78126856999,,,,,,,,,,,,s219_04132023,001,2023_Apr_13_1716,test_typingtask_norepeats,2020.2.10,59.967065362214214,
zibja,zibja,,,,,0,69,69,69,,,,,,,,2384.18100828398,None,"['z', 'i', 'b', 'j', 'a']",1,"[1.4662281490163878, 1.6743266129633412, 1.9303651560330763, 2.4421911910176277, 2.618264641962014]",2384.18100828398,None,2384.1809498083194,2384.281036942033,,,,,,,,,,,,s219_04132023,001,2023_Apr_13_1716,test_typingtask_norepeats,2020.2.10,59.967065362214214,
belly,belly,,,,,0,70,70,70,,,,,,,,2389.6810936450493,None,"['b', 'e', 'l', 'l', 'y']",1,"[0.9581362080061808, 1.2062214500037953, 1.3662197209196165, 1.5421055079204962, 1.7021903810091317]",2389.6810936450493,None,2389.681122306257,2389.781137921964,,,,,,,,,,,,s219_04132023,001,2023_Apr_13_1716,test_typingtask_norepeats,2020.2.10,59.967065362214214,
vanru,vanru,,,,,0,71,71,71,,,,,,,,2395.1809461830417,None,"['v', 'a', 'n', 'r', 'u']",1,"[1.010253053973429, 1.2903194190002978, 1.4583384520374238, 1.7303528500488028, 1.9783519770717248]",2395.1809461830417,None,2395.1811762793104,2395.28103666706,,,,,,,,,,,,s219_04132023,001,2023_Apr_13_1716,test_typingtask_norepeats,2020.2.10,59.967065362214214,
cheer,cheer,,,,,0,72,72,72,,,,,,,,2400.68094775395,None,"['c', 'h', 'e', 'e', 'r']",1,"[0.8223772379569709, 1.0223863539285958, 1.2383651729905978, 1.398294689017348, 1.5742717229295522]",2400.68094775395,None,2400.681040477345,2400.781414477038,,,,,,,,,,,,s219_04132023,001,2023_Apr_13_1716,test_typingtask_norepeats,2020.2.10,59.967065362214214,
faqir,faqir,,,,,0,73,73,73,,,,,,,,2406.181184099987,None,"['f', 'a', 'q', 'i', 'r']",1,"[0.9620176060125232, 1.3141012080013752, 1.7380910880165175, 2.3701491249958053, 2.5460267330054194]",2406.181184099987,None,2406.1811390393295,2406.2811937710503,,,,,,,,,,,,s219_04132023,001,2023_Apr_13_1716,test_typingtask_norepeats,2020.2.10,59.967065362214214,
pykka,pykka,,,,,0,74,74,74,,,,,,,,2411.680933373049,None,"['p', 'y', 'k', 'k', 'e']",0,"[1.8943202919326723, 2.382394977961667, 2.6783642800292, 2.830364290974103, 3.0143259690376]",2411.680933373049,None,2411.6809916082884,2411.781022593961,,,,,,,,,,,,s219_04132023,001,2023_Apr_13_1716,test_typingtask_norepeats,2020.2.10,59.967065362214214,
about,about,,,,,0,75,75,75,,,,,,,,2417.181084034033,None,"['a', 'b', 'o', 'u', 't']",1,"[0.8341225179610774, 1.0261195049388334, 1.3702526789857075, 1.6181710349628702, 1.8101243759738281]",2417.181084034033,None,2417.1809351462753,2417.281029704027,,,,,,,,,,,,s219_04132023,001,2023_Apr_13_1716,test_typingtask_norepeats,2020.2.10,59.967065362214214,
theme,theme,,,,,0,76,76,76,,,,,,,,2422.6811499539763,None,"['t', 'h', 'e', 'm', 'e']",1,"[0.8621806190349162, 1.0141041780589148, 1.182178877061233, 1.3980680030072108, 1.558056332054548]",2422.6811499539763,None,2422.6810468332724,2422.78102625499,,,,,,,,,,,,s219_04132023,001,2023_Apr_13_1716,test_typingtask_norepeats,2020.2.10,59.967065362214214,
vanru,vanru,,,,,0,77,77,77,,,,,,,,2428.181134794024,None,"['v', 'a', 'n', 'r', 'u']",1,"[1.218069117050618, 1.5061795270303264, 1.6901953719789162, 1.96218116406817, 2.1781630710465834]",2428.181134794024,None,2428.1808915552565,2428.281102012028,,,,,,,,,,,,s219_04132023,001,2023_Apr_13_1716,test_typingtask_norepeats,2020.2.10,59.967065362214214,
heond,heond,,,,,0,78,78,78,,,,,,,,2433.681054427987,None,"['h', 'e', 'o', 'n', 'd']",1,"[1.086235155002214, 1.3422252630116418, 1.6622613540384918, 1.9422236339887604, 2.534150274004787]",2433.681054427987,None,2433.680984947353,2433.780965854996,,,,,,,,,,,,s219_04132023,001,2023_Apr_13_1716,test_typingtask_norepeats,2020.2.10,59.967065362214214,
about,about,,,,,0,79,79,79,,,,,,,,2439.1812138740206,None,"['a', 'b', 'o', 'u', 't']",1,"[0.9221043090801686, 1.0900536470580846, 1.3380591049790382, 1.5780713080894202, 1.809984899009578]",2439.1812138740206,None,2439.1811896233003,2439.281013782951,,,,,,,,,,,,s219_04132023,001,2023_Apr_13_1716,test_typingtask_norepeats,2020.2.10,59.967065362214214,
faqir,faqir,,,,,0,80,80,80,,,,,,,,2444.681295576971,None,"['f', 'a', 'q', 'i', 'r']",1,"[1.6860436039278284, 2.045932002016343, 2.317987203015946, 2.645941435941495, 2.8380414359271526]",2444.681295576971,None,2444.681112866255,2444.781146095018,,,,,,,,,,,,s219_04132023,001,2023_Apr_13_1716,test_typingtask_norepeats,2020.2.10,59.967065362214214,
pykka,pykka,,,,,0,81,81,81,,,,,,,,2450.1813112669624,None,"['p', 'y', 'k', 'k', 'a']",1,"[1.2580174980685115, 2.145942009985447, 2.4259047920349985, 2.593982435995713, 2.777952774078585]",2450.1813112669624,None,2450.1810862313605,2450.2812003559666,,,,,,,,,,,,s219_04132023,001,2023_Apr_13_1716,test_typingtask_norepeats,2020.2.10,59.967065362214214,
cheer,cheer,,,,,0,82,82,82,,,,,,,,2455.681502348045,None,"['c', 'h', 'e', 'e', 'r']",1,"[0.8378250669920817, 0.9977127689635381, 1.1577790179289877, 1.31773346895352, 1.5018118990119547]",2455.681502348045,None,2455.681166063284,2455.7813221020624,,,,,,,,,,,,s219_04132023,001,2023_Apr_13_1716,test_typingtask_norepeats,2020.2.10,59.967065362214214,
buddy,buddy,,,,,0,83,83,83,,,,,,,,2461.1811666670255,None,"['b', 'u', 'd', 'd', 'y']",1,"[1.0021044099703431, 1.1940558110363781, 1.41008309496101, 1.562080436036922, 1.7541136860381812]",2461.1811666670255,None,2461.18116246931,2461.2814353540307,,,,,,,,,,,,s219_04132023,001,2023_Apr_13_1716,test_typingtask_norepeats,2020.2.10,59.967065362214214,
belly,belly,,,,,0,84,84,84,,,,,,,,2466.680940064951,None,"['b', 'e', 'l', 'l', 'y']",1,"[0.9102457790868357, 1.190375604084693, 1.3903333470225334, 1.5823373430175707, 1.7503163480432704]",2466.680940064951,None,2466.6811096833435,2466.781081130961,,,,,,,,,,,,s219_04132023,001,2023_Apr_13_1716,test_typingtask_norepeats,2020.2.10,59.967065362214214,
zibja,zibja,,,,,0,85,85,85,,,,,,,,2472.1811407060595,None,"['z', 'i', 'b', 'j', 'a']",1,"[1.3941375779686496, 1.6180924220243469, 2.6901737930020317, 2.906192871974781, 3.1141771000111476]",2472.1811407060595,None,2472.181068720284,2472.281263121986,,,,,,,,,,,,s219_04132023,001,2023_Apr_13_1716,test_typingtask_norepeats,2020.2.10,59.967065362214214,
kremp,kremp,,,,,0,86,86,86,,,,,,,,2477.681114481995,None,"['k', 'r', 'e', 'm', 'p']",1,"[1.2461321540176868, 1.4141454960918054, 1.6141314570559189, 1.7981417190749198, 2.0382143401075155]",2477.681114481995,None,2477.6810337522647,2477.7814543909626,,,,,,,,,,,,s219_04132023,001,2023_Apr_13_1716,test_typingtask_norepeats,2020.2.10,59.967065362214214,
edthe,edthe,,,,,0,87,87,87,,,,,,,,2483.1808785899775,None,"['e', 'd', 't', 'h', 'e']",1,"[1.2903316889423877, 1.9783962100045756, 2.2504007760435343, 2.4263259399449453, 2.5863786169793457]",2483.1808785899775,None,2483.181022048334,2483.280924236984,,,,,,,,,,,,s219_04132023,001,2023_Apr_13_1716,test_typingtask_norepeats,2020.2.10,59.967065362214214,
therm,therm,,,,,0,88,88,88,,,,,,,,2488.681330792024,None,"['t', 'h', 'e', 'r', 'm']",1,"[0.9499513590708375, 1.1098684900207445, 1.2699748399900272, 1.4540379890240729, 1.6539743869798258]",2488.681330792024,None,2488.6809665253268,2488.781147475005,,,,,,,,,,,,s219_04132023,001,2023_Apr_13_1716,test_typingtask_norepeats,2020.2.10,59.967065362214214,
haole,haole,,,,,0,89,89,89,,,,,,,,2494.181180668995,None,"['h', 'a', 'o', 'l', 'e']",1,"[1.0901158220367506, 1.3781044309725985, 1.7940506329759955, 2.0180874440120533, 2.2020553089678288]",2494.181180668995,None,2494.180966936273,2494.2811308209784,,,,,,,,,,,,s219_04132023,001,2023_Apr_13_1716,test_typingtask_norepeats,2020.2.10,59.967065362214214,
heond,heond,,,,,0,90,90,90,,,,,,,,2499.6810994070256,None,"['h', 'e', 'o', 'n', 'd']",1,"[1.3261067250277847, 1.574224930955097, 1.782193877035752, 2.0301937379408628, 2.4222290499601513]",2499.6810994070256,None,2499.6810721263637,2499.7812146190554,,,,,,,,,,,,s219_04132023,001,2023_Apr_13_1716,test_typingtask_norepeats,2020.2.10,59.967065362214214,
about,about,,,,,0,91,91,91,,,,,,,,2505.1811175419716,None,"['a', 'b', 'o', 'u', 't']",1,"[1.4821921429829672, 1.6662067109718919, 1.9222079740138724, 2.1623349600704387, 2.3781868449877948]",2505.1811175419716,None,2505.181163725315,2505.2810508810217,,,,,,,,,,,,s219_04132023,001,2023_Apr_13_1716,test_typingtask_norepeats,2020.2.10,59.967065362214214,
there,there,,,,,0,92,92,92,,,,,,,,2510.6811121799983,None,"['t', 'h', 'e', 'r', 'e']",1,"[0.9661628620233387, 1.1021395330317318, 1.2542025810107589, 1.422100853989832, 1.622100239037536]",2510.6811121799983,None,2510.681345412263,2510.781091011013,,,,,,,,,,,,s219_04132023,001,2023_Apr_13_1716,test_typingtask_norepeats,2020.2.10,59.967065362214214,
druze,druze,,,,,0,93,93,93,,,,,,,,2516.1813045419985,None,"['d', 'r', 'u', 'z', 'e']",1,"[1.0500191170722246, 1.281984040979296, 1.513982258969918, 2.0500077049946412, 2.3380236630328]",2516.1813045419985,None,2516.181219385343,2516.281007959973,,,,,,,,,,,,s219_04132023,001,2023_Apr_13_1716,test_typingtask_norepeats,2020.2.10,59.967065362214214,
pykka,pykka,,,,,0,94,94,94,,,,,,,,2521.681356571964,None,"['p', 'y', 'k', 'k', 'a']",1,"[1.1419556699693203, 1.893853839021176, 2.2299196219537407, 2.4059163130586967, 2.6379708379972726]",2521.681356571964,None,2521.68130650731,2521.78136353998,,,,,,,,,,,,s219_04132023,001,2023_Apr_13_1716,test_typingtask_norepeats,2020.2.10,59.967065362214214,
kremp,kremp,,,,,0,95,95,95,,,,,,,,2527.181534340023,None,"['k', 'r', 'e', 'm', 'p', 'o']",0,"[1.6176696280017495, 1.8497389829717577, 2.0657545139547437, 2.2577431940007955, 2.5138012159150094, 2.521818597917445]",2527.181534340023,None,2527.1812653812694,2527.2812596330186,,,,,,,,,,,,s219_04132023,001,2023_Apr_13_1716,test_typingtask_norepeats,2020.2.10,59.967065362214214,
lucky,lucky,,,,,0,96,96,96,,,,,,,,2532.69771338196,None,"['l', 'u', 'c', 'k', 'y']",1,"[1.037606569007039, 1.4456242859596387, 1.7415721080033109, 1.9256388869835064, 2.1575676719658077]",2532.69771338196,None,2532.6978689673006,2532.7982003180077,,,,,,,,,,,,s219_04132023,001,2023_Apr_13_1716,test_typingtask_norepeats,2020.2.10,59.967065362214214,
buddy,buddy,,,,,0,97,97,97,,,,,,,,2538.1980479420163,None,"['b', 'u', 'd', 'd', 'y']",1,"[1.1212858739309013, 1.3212789009558037, 1.561252154991962, 1.7212387999752536, 1.9612519550137222]",2538.1980479420163,None,2538.198016432335,2538.298056444037,,,,,,,,,,,,s219_04132023,001,2023_Apr_13_1716,test_typingtask_norepeats,2020.2.10,59.967065362214214,
heond,heond,,,,,0,98,98,98,,,,,,,,2543.6979811879573,None,"['h', 'e', 'o', 'n', 'd']",1,"[1.0213223909959197, 1.26930850406643, 1.469317794078961, 1.7333249360090122, 2.1413463060744107]",2543.6979811879573,None,2543.697726073314,2543.797832826036,,,,,,,,,,,,s219_04132023,001,2023_Apr_13_1716,test_typingtask_norepeats,2020.2.10,59.967065362214214,
haole,haole,,,,,0,99,99,99,,,,,,,,2549.1981168079656,None,"['h', 'a', 'o', 'l', 'e']",1,"[1.0892151519656181, 1.3532519319560379, 1.7291094310348853, 1.9851986840367317, 2.1930910509545356]",2549.1981168079656,None,2549.19787202134,2549.2978259769734,,,,,,,,,,,,s219_04132023,001,2023_Apr_13_1716,test_typingtask_norepeats,2020.2.10,59.967065362214214,
belly,belly,,,,,0,100,100,100,,,,,,,,2554.698000796954,None,"['b', 'e', 'l', 'l', 'y']",1,"[0.909222227986902, 1.1333135690074414, 1.4053211939753965, 1.5812283210689202, 1.86129756399896]",2554.698000796954,None,2554.697867770318,2554.79776499304,,,,,,,,,,,,s219_04132023,001,2023_Apr_13_1716,test_typingtask_norepeats,2020.2.10,59.967065362214214,
cooed,cooed,,,,,0,101,101,101,,,,,,,,2560.19803757302,None,"['c', 'o', 'o', 'e', 'd']",1,"[1.137258199043572, 1.3532848190516233, 1.553290943033062, 1.8652427929919213, 2.089184717973694]",2560.19803757302,None,2560.198043115309,2560.297817921033,,,,,,,,,,,,s219_04132023,001,2023_Apr_13_1716,test_typingtask_norepeats,2020.2.10,59.967065362214214,
vodka,vodka,,,,,0,102,102,102,,,,,,,,2565.698010980035,None,"['v', 'o', 'd', 'k', 'a']",1,"[1.4291969540063292, 1.7171881439862773, 2.0533191489521414, 2.3413134509464726, 2.645220833015628]",2565.698010980035,None,2565.6979929463587,2565.7977247040253,,,,,,,,,,,,s219_04132023,001,2023_Apr_13_1716,test_typingtask_norepeats,2020.2.10,59.967065362214214,
edthe,edthe,,,,,0,103,103,103,,,,,,,,2571.1985137900338,None,"['e', 'd', 't', 'h', 'e']",1,"[1.1207512059481815, 1.4807124369544908, 1.7847970119910315, 1.9286935939453542, 2.064769687014632]",2571.1985137900338,None,2571.198467501311,2571.297850067029,,,,,,,,,,,,s219_04132023,001,2023_Apr_13_1716,test_typingtask_norepeats,2020.2.10,59.967065362214214,
therm,therm,,,,,0,104,104,104,,,,,,,,2576.6978975880193,None,"['t', 'h', 'e', 'r', 'm']",1,"[0.8772722299909219, 1.0133163479622453, 1.1574008609168231, 1.3333876569522545, 1.5653813669923693]",2576.6978975880193,None,2576.6983056063646,2576.798011607025,,,,,,,,,,,,s219_04132023,001,2023_Apr_13_1716,test_typingtask_norepeats,2020.2.10,59.967065362214214,
theme,theme,,,,,0,105,105,105,,,,,,,,2582.19793155801,None,"['t', 'h', 'e', 'm', 'e']",1,"[0.8493112040450796, 0.961341513087973, 1.1292260810732841, 1.3693499281071126, 1.5292699200799689]",2582.19793155801,None,2582.197833902307,2582.2979368000524,,,,,,,,,,,,s219_04132023,001,2023_Apr_13_1716,test_typingtask_norepeats,2020.2.10,59.967065362214214,
zibja,zibja,,,,,0,106,106,106,,,,,,,,2587.6980342280585,None,"['z', 'i', 'b', 'j', 'a']",1,"[1.453325198031962, 1.6212434429908171, 1.861286852043122, 2.1571749970316887, 2.4932117550633848]",2587.6980342280585,None,2587.6978930793584,2587.7980274329893,,,,,,,,,,,,s219_04132023,001,2023_Apr_13_1716,test_typingtask_norepeats,2020.2.10,59.967065362214214,
pykka,pykka,,,,,0,107,107,107,,,,,,,,2593.19779620599,None,"['p', 'y', 'k', 'k', 'a']",1,"[1.4495195089839399, 2.2734284580219537, 2.577408642973751, 2.745507357059978, 2.9454757990315557]",2593.19779620599,None,2593.1979975213644,2593.29795831698,,,,,,,,,,,,s219_04132023,001,2023_Apr_13_1716,test_typingtask_norepeats,2020.2.10,59.967065362214214,
cooed,cooed,,,,,0,108,108,108,,,,,,,,2598.6979697779752,None,"['c', 'o', 'o', 'e', 'd']",1,"[1.0932653319323435, 1.277267591911368, 1.437354929978028, 1.733347455970943, 1.949305618996732]",2598.6979697779752,None,2598.6979947823447,2598.798090051976,,,,,,,,,,,,s219_04132023,001,2023_Apr_13_1716,test_typingtask_norepeats,2020.2.10,59.967065362214214,
would,would,,,,,0,109,109,109,,,,,,,,2604.197950577014,None,"['w', 'o', 'u', 'l', 'd']",1,"[1.0573279549134895, 1.2172363509889692, 1.4172569739166647, 1.6893791049951687, 1.9132616589777172]",2604.197950577014,None,2604.1980115863144,2604.2979485279648,,,,,,,,,,,,s219_04132023,001,2023_Apr_13_1716,test_typingtask_norepeats,2020.2.10,59.967065362214214,
lucky,lucky,,,,,0,110,110,110,,,,,,,,2609.6979547319934,None,"['l', 'u', 'c', 'k', 'y']",1,"[1.3572418739786372, 1.613283361075446, 1.8533695270307362, 2.0293117880355567, 2.3172404459910467]",2609.6979547319934,None,2609.697820559365,2609.7980104980525,,,,,,,,,,,,s219_04132023,001,2023_Apr_13_1716,test_typingtask_norepeats,2020.2.10,59.967065362214214,
therm,therm,,,,,0,111,111,111,,,,,,,,2615.19817049196,None,"['t', 'h', 'e', 'r', 'm']",1,"[0.8331460489425808, 0.9691512529971078, 1.1371707879006863, 1.329045480932109, 1.401035716990009]",2615.19817049196,None,2615.197855590365,2615.297861124971,,,,,,,,,,,,s219_04132023,001,2023_Apr_13_1716,test_typingtask_norepeats,2020.2.10,59.967065362214214,
tithe,tithe,,,,,0,112,112,112,,,,,,,,2620.6981298379833,None,"['t', 'i', 't', 'h', 'e']",1,"[0.8930846160510555, 1.1010889729950577, 1.2770714370999485, 1.4451748750871047, 1.6131871540565044]",2620.6981298379833,None,2620.697848014289,2620.79814030102,,,,,,,,,,,,s219_04132023,001,2023_Apr_13_1716,test_typingtask_norepeats,2020.2.10,59.967065362214214,
there,there,,,,,0,113,113,113,,,,,,,,2626.198275713017,None,"['t', 'h', 'e', 'r', 'e']",1,"[0.7690385699970648, 0.9370186630403623, 1.0970202180324122, 1.320954033988528, 1.496981799020432]",2626.198275713017,None,2626.197806045285,2626.2983804099495,,,,,,,,,,,,s219_04132023,001,2023_Apr_13_1716,test_typingtask_norepeats,2020.2.10,59.967065362214214,
think,think,,,,,0,114,114,114,,,,,,,,2631.6979975029826,None,"['t', 'h', 'i', 'n', 'k']",1,"[0.8292630759533495, 1.0053284280002117, 1.2212210709694773, 1.549257487989962, 1.9012087059672922]",2631.6979975029826,None,2631.697987332346,2631.7978767959867,,,,,,,,,,,,s219_04132023,001,2023_Apr_13_1716,test_typingtask_norepeats,2020.2.10,59.967065362214214,
heond,heond,,,,,0,115,115,115,,,,,,,,2637.197995777009,None,"['h', 'e', 'o', 'n', 'd']",1,"[1.1612416610587388, 1.513297644094564, 1.7053355569951236, 2.0572905390290543, 2.2973157330416143]",2637.197995777009,None,2637.1981879603,2637.2978625190444,,,,,,,,,,,,s219_04132023,001,2023_Apr_13_1716,test_typingtask_norepeats,2020.2.10,59.967065362214214,
would,would,,,,,0,116,116,116,,,,,,,,2642.6980767749483,None,"['w', 'o', 'u', 'l', 'd']",1,"[1.2132717639906332, 1.4291578739648685, 1.71713153203018, 2.0132768099429086, 2.301146743935533]",2642.6980767749483,None,2642.6980198953415,2642.7979497499764,,,,,,,,,,,,s219_04132023,001,2023_Apr_13_1716,test_typingtask_norepeats,2020.2.10,59.967065362214214,
lucky,lucky,,,,,0,117,117,117,,,,,,,,2648.198311798973,None,"['l', 'u', 'c', 'k', 'y']",1,"[1.2330198850249872, 1.5929003129713237, 1.976892570964992, 2.200935921049677, 2.536965898005292]",2648.198311798973,None,2648.198077877273,2648.298130106996,,,,,,,,,,,,s219_04132023,001,2023_Apr_13_1716,test_typingtask_norepeats,2020.2.10,59.967065362214214,
belly,belly,,,,,0,118,118,118,,,,,,,,2653.698055193061,None,"['b', 'e', 'l', 'l', 'y']",1,"[1.1253173860022798, 1.3892611779738218, 1.5892627809662372, 1.8291903119534254, 2.069253745023161]",2653.698055193061,None,2653.698107842344,2653.7981619019993,,,,,,,,,,,,s219_04132023,001,2023_Apr_13_1716,test_typingtask_norepeats,2020.2.10,59.967065362214214,
druze,druze,,,,,0,119,119,119,,,,,,,,2659.197895893012,None,"['d', 'r', 'u', 'z', 'e']",1,"[1.401313549024053, 1.6573817449389026, 1.8974493800196797, 2.3293404009891674, 2.6093590250238776]",2659.197895893012,None,2659.197923001356,2659.2981126200175,,,,,,,,,,,,s219_04132023,001,2023_Apr_13_1716,test_typingtask_norepeats,2020.2.10,59.967065362214214,
would,would,,,,,,,,,0,0,0,0,,,,,,,,,,,,,2664.6980436299928,None,2914.1734827429755,None,"['w', 'o', 'u', 'l', 'd']",1,"[1.289771776064299, 1.4897298880387098, 1.7057684540050104, 1.9618661199929193, 2.1058205700246617]",2914.1734827429755,None,2914.165589828265,2914.2654726910405,s219_04132023,001,2023_Apr_13_1716,test_typingtask_norepeats,2020.2.10,59.967065362214214,
champ,champ,,,,,,,,,0,1,1,1,,,,,,,,,,,,,,,2919.681665866985,None,"['c', 'h', 'a', 'm', 'p']",1,"[0.9975692009320483, 1.1416531939757988, 1.3975964830024168, 1.565662748995237, 1.8056470449082553]",2919.681665866985,None,2919.681724879297,2919.781444614986,s219_04132023,001,2023_Apr_13_1716,test_typingtask_norepeats,2020.2.10,59.967065362214214,
heond,heond,,,,,,,,,0,2,2,2,,,,,,,,,,,,,,,2925.1818495310144,None,"['h', 'e', 'o', 'm', 'n', 'g']",0,"[0.9933501039631665, 1.193406083039008, 1.3614926220616326, 1.6173600989859551, 2.1054859700379893, 2.769450813997537]",2925.1818495310144,None,2925.181878875347,2925.2818286239635,s219_04132023,001,2023_Apr_13_1716,test_typingtask_norepeats,2020.2.10,59.967065362214214,
vanru,vanru,,,,,,,,,0,3,3,3,,,,,,,,,,,,,,,2930.682002722984,None,"['v', 'a', 'n', 'r', 'u']",1,"[0.9413133459165692, 1.2452597349183634, 1.4452709989855066, 1.605236801900901, 1.8452269159024581]",2930.682002722984,None,2930.6819459902936,2930.7820498039946,s219_04132023,001,2023_Apr_13_1716,test_typingtask_norepeats,2020.2.10,59.967065362214214,
lucky,lucky,,,,,,,,,0,4,4,4,,,,,,,,,,,,,,,2936.181754017016,None,"['l', 'u', 'c', 'k', 'y']",1,"[0.969563856953755, 1.3135368879884481, 1.5774799209320918, 1.6975391010055318, 1.9215220179175958]",2936.181754017016,None,2936.1818468383162,2936.281788200955,s219_04132023,001,2023_Apr_13_1716,test_typingtask_norepeats,2020.2.10,59.967065362214214,
puppy,puppy,,,,,,,,,0,5,5,5,,,,,,,,,,,,,,,2941.6817718930542,None,"['p', 'u', 'p', 'p', 'y']",1,"[0.9575532210292295, 1.2374952629907057, 1.493455296033062, 1.685518981073983, 1.9735038409708068]",2941.6817718930542,None,2941.6818800353094,2941.781842696015,s219_04132023,001,2023_Apr_13_1716,test_typingtask_norepeats,2020.2.10,59.967065362214214,
cheer,cheer,,,,,,,,,0,6,6,6,,,,,,,,,,,,,,,2947.181714989012,None,"['c', 'h', 'e', 'e', 'r']",1,"[1.01749184995424, 1.2016068199882284, 1.4015512709738687, 1.5775379789993167, 1.7536384479608387]",2947.181714989012,None,2947.1817793652763,2947.2817274549743,s219_04132023,001,2023_Apr_13_1716,test_typingtask_norepeats,2020.2.10,59.967065362214214,
vodka,vodka,,,,,,,,,0,7,7,7,,,,,,,,,,,,,,,2952.681787534035,None,"['v', 'o', 'd', 'k', 'a']",1,"[1.9415371009381488, 2.5494924220256507, 2.8135052899597213, 3.0294465499464422, 3.205431221984327]",2952.681787534035,None,2952.6817536883636,2952.78181474295,s219_04132023,001,2023_Apr_13_1716,test_typingtask_norepeats,2020.2.10,59.967065362214214,
about,about,,,,,,,,,0,8,8,8,,,,,,,,,,,,,,,2958.1817621099763,None,"['a', 'b', 'o', 'u', 't']",1,"[0.8894291600445285, 1.0575677460292354, 1.2735480039846152, 1.5294273439794779, 1.6815597990062088]",2958.1817621099763,None,2958.1818631132946,2958.281856116024,s219_04132023,001,2023_Apr_13_1716,test_typingtask_norepeats,2020.2.10,59.967065362214214,
haole,haole,,,,,,,,,0,9,9,9,,,,,,,,,,,,,,,2963.681824979023,None,"['h', 'a', 'o', 'l', 'e']",1,"[0.9733824200229719, 1.2294149119406939, 1.453509871964343, 1.6933854739181697, 1.8134686569683254]",2963.681824979023,None,2963.681897133344,2963.7818481590366,s219_04132023,001,2023_Apr_13_1716,test_typingtask_norepeats,2020.2.10,59.967065362214214,
about,about,,,,,,,,,0,10,10,10,,,,,,,,,,,,,,,2969.18187555403,None,"['a', 'b', 'o', 'u', 't']",1,"[1.1293766270391643, 1.2894538070540875, 1.537455186014995, 1.7774165429873392, 1.9534308459842578]",2969.18187555403,None,2969.1816324422716,2969.281738169957,s219_04132023,001,2023_Apr_13_1716,test_typingtask_norepeats,2020.2.10,59.967065362214214,
edthe,edthe,,,,,,,,,0,11,11,11,,,,,,,,,,,,,,,2974.681972082006,None,"['e', 'd', 't', 'h', 'e']",1,"[1.0213453070027754, 1.2693503230111673, 1.5013142209500074, 1.6453676279634237, 1.789315341040492]",2974.681972082006,None,2974.6816408072946,2974.781838912051,s219_04132023,001,2023_Apr_13_1716,test_typingtask_norepeats,2020.2.10,59.967065362214214,
about,about,,,,,,,,,0,12,12,12,,,,,,,,,,,,,,,2980.181871204055,None,"['a', 'b', 'o', 'u', 't']",1,"[0.8574094829382375, 1.0654291940154508, 1.417321088956669, 1.665448446990922, 1.8734047160251066]",2980.181871204055,None,2980.1817818042937,2980.2819552790606,s219_04132023,001,2023_Apr_13_1716,test_typingtask_norepeats,2020.2.10,59.967065362214214,
cooed,cooed,,,,,,,,,0,13,13,13,,,,,,,,,,,,,,,2985.6817599009955,None,"['c', 'o', 'o', 'e', 'd']",1,"[0.8615699229994789, 1.0695710360305384, 1.2535263289464638, 1.4535284389276057, 1.6375905249733478]",2985.6817599009955,None,2985.6818431033635,2985.7816602019593,s219_04132023,001,2023_Apr_13_1716,test_typingtask_norepeats,2020.2.10,59.967065362214214,
champ,champ,,,,,,,,,0,14,14,14,,,,,,,,,,,,,,,2991.183038091054,None,"['c', 'h', 'a', 'm', 'p']",1,"[0.800151819945313, 0.9842499109217897, 1.2002044189721346, 1.4242847269633785, 1.6882209460018203]",2991.183038091054,None,2991.1822587282977,2991.2818122820463,s219_04132023,001,2023_Apr_13_1716,test_typingtask_norepeats,2020.2.10,59.967065362214214,
there,there,,,,,,,,,0,15,15,15,,,,,,,,,,,,,,,2996.682012298028,None,"['t', 'h', 'e', 'r', 'e']",1,"[0.7412792179966345, 0.8532928039785475, 1.037286629085429, 1.221330768079497, 1.4052535030059516]",2996.682012298028,None,2996.681828576361,2996.7817750830436,s219_04132023,001,2023_Apr_13_1716,test_typingtask_norepeats,2020.2.10,59.967065362214214,
therm,therm,,,,,,,,,0,16,16,16,,,,,,,,,,,,,,,3002.1820135640446,None,"['t', 'h', 'e', 'r', 'm']",1,"[0.8172022519866005, 0.9452839499572292, 1.0893035639310256, 1.2572546969167888, 1.4412597080226988]",3002.1820135640446,None,3002.1820840942555,3002.2822678619996,s219_04132023,001,2023_Apr_13_1716,test_typingtask_norepeats,2020.2.10,59.967065362214214,
haole,haole,,,,,,,,,0,17,17,17,,,,,,,,,,,,,,,3007.682149061002,None,"['h', 'a', 'o', 'l', 'e']",1,"[1.1090742950327694, 1.3410513090202585, 1.5891262310324237, 1.8531790759880096, 2.0371176509652287]",3007.682149061002,None,3007.6818992412764,3007.7820422790246,s219_04132023,001,2023_Apr_13_1716,test_typingtask_norepeats,2020.2.10,59.967065362214214,
puppy,puppy,,,,,,,,,0,18,18,18,,,,,,,,,,,,,,,3013.181945540011,None,"['p', 'u', 'p', 'p', 't']",0,"[1.0253443859983236, 1.2973308049840853, 1.5773240430280566, 1.7613634549779817, 2.0092591689899564]",3013.181945540011,None,3013.1819236623005,3013.2822676589713,s219_04132023,001,2023_Apr_13_1716,test_typingtask_norepeats,2020.2.10,59.967065362214214,
think,think,,,,,,,,,0,19,19,19,,,,,,,,,,,,,,,3018.681830144953,None,"['t', 'h', 'i', 'n', 'k']",1,"[0.7414940990274772, 0.893382880021818, 1.093387219007127, 1.333359666983597, 1.509355050045997]",3018.681830144953,None,3018.6819758773663,3018.7818008670583,s219_04132023,001,2023_Apr_13_1716,test_typingtask_norepeats,2020.2.10,59.967065362214214,
zibja,zibja,,,,,,,,,0,20,20,20,,,,,,,,,,,,,,,3024.18183954095,None,"['z', 'i', 'b', 'j', 'a']",1,"[1.4173550580162555, 1.6334766210056841, 2.1615075479494408, 2.473486114991829, 2.721447183052078]",3024.18183954095,None,3024.1817688563488,3024.281903497991,s219_04132023,001,2023_Apr_13_1716,test_typingtask_norepeats,2020.2.10,59.967065362214214,
haole,haole,,,,,,,,,0,21,21,21,,,,,,,,,,,,,,,3029.6817012339598,None,"['h', 'a', 'o', 'l', 'e']",1,"[1.0456254839664325, 1.2695502690039575, 1.4536406400147825, 1.7095074669923633, 1.8616119209909812]",3029.6817012339598,None,3029.6817692343493,3029.7819616909837,s219_04132023,001,2023_Apr_13_1716,test_typingtask_norepeats,2020.2.10,59.967065362214214,
vodka,vodka,,,,,,,,,0,22,22,22,,,,,,,,,,,,,,,3035.1817685499554,None,"['v', 'o', 'd', 'k', 'a']",1,"[1.4735480609815568, 2.073556325980462, 2.6735041429055855, 2.865500963991508, 3.025653127930127]",3035.1817685499554,None,3035.181970318302,3035.2819630439626,s219_04132023,001,2023_Apr_13_1716,test_typingtask_norepeats,2020.2.10,59.967065362214214,
therm,therm,,,,,,,,,0,23,23,23,,,,,,,,,,,,,,,3040.6820409620414,None,"['t', 'h', 'e', 'r', 'm']",1,"[0.8532378430245444, 1.0132568309782073, 1.1731642299564555, 1.3652779499534518, 1.5571767209330574]",3040.6820409620414,None,3040.6819142262566,3040.781923908973,s219_04132023,001,2023_Apr_13_1716,test_typingtask_norepeats,2020.2.10,59.967065362214214,
belly,belly,,,,,,,,,0,24,24,24,,,,,,,,,,,,,,,3046.1819975089747,None,"['b', 'e', 'l', 'l', 'y']",1,"[0.8812743229791522, 1.1213296740315855, 1.3213302720105276, 1.4892800939269364, 1.6493400679901242]",3046.1819975089747,None,3046.1817489033447,3046.2822074970463,s219_04132023,001,2023_Apr_13_1716,test_typingtask_norepeats,2020.2.10,59.967065362214214,
puppy,puppy,,,,,,,,,0,25,25,25,,,,,,,,,,,,,,,3051.6818047589622,None,"['p', 'u', 'p', 'p', 'y']",1,"[0.9335261709056795, 1.213490073918365, 1.4854695789981633, 1.6774028049549088, 1.9255533429095522]",3051.6818047589622,None,3051.6817196903166,3051.7816586040426,s219_04132023,001,2023_Apr_13_1716,test_typingtask_norepeats,2020.2.10,59.967065362214214,
tithe,tithe,,,,,,,,,0,26,26,26,,,,,,,,,,,,,,,3057.1820717400406,None,"['t', 'i', 't', 'h', 'e']",1,"[0.7212552769342437, 1.0572051709750667, 1.3051973360124975, 1.4892457099631429, 1.6811430020025]",3057.1820717400406,None,3057.18186392436,3057.28166239697,s219_04132023,001,2023_Apr_13_1716,test_typingtask_norepeats,2020.2.10,59.967065362214214,
heond,heond,,,,,,,,,0,27,27,27,,,,,,,,,,,,,,,3062.6818419729825,None,"['h', 'e', 'o', 'n', 'd']",1,"[0.9893615649780259, 1.22141353902407, 1.4294215999543667, 1.7414154580328614, 1.9974669700022787]",3062.6818419729825,None,3062.681922845298,3062.7818168950034,s219_04132023,001,2023_Apr_13_1716,test_typingtask_norepeats,2020.2.10,59.967065362214214,
lucky,lucky,,,,,,,,,0,28,28,28,,,,,,,,,,,,,,,3068.182108997018,None,"['l', 'u', 'c', 'k', 'y']",1,"[0.8091687880223617, 1.0892180529190227, 1.6010979099664837, 1.8251769029302523, 2.217081540962681]",3068.182108997018,None,3068.182131280296,3068.2822273659986,s219_04132023,001,2023_Apr_13_1716,test_typingtask_norepeats,2020.2.10,59.967065362214214,
edthe,edthe,,,,,,,,,0,29,29,29,,,,,,,,,,,,,,,3073.6821085939882,None,"['e', 'd', 't', 'h', 'e']",1,"[0.8770883869146928, 1.10111099795904, 1.3492257999023423, 1.5170965319266543, 1.645199259975925]",3073.6821085939882,None,3073.6818309873224,3073.7820123049896,s219_04132023,001,2023_Apr_13_1716,test_typingtask_norepeats,2020.2.10,59.967065362214214,
theme,theme,,,,,,,,,0,30,30,30,,,,,,,,,,,,,,,3079.1820862820605,None,"['t', 'h', 'e', 'm', 'e']",1,"[0.7052488289773464, 0.8571862929966301, 0.9931238399585709, 1.2492431689752266, 1.3852289220085368]",3079.1820862820605,None,3079.1819258403148,3079.282153047039,s219_04132023,001,2023_Apr_13_1716,test_typingtask_norepeats,2020.2.10,59.967065362214214,
champ,champ,,,,,,,,,0,31,31,31,,,,,,,,,,,,,,,3084.682000481058,None,"['c', 'h', 'a', 'm', 'p']",1,"[0.8772004069760442, 1.03732234693598, 1.2372978850034997, 1.4692853149026632, 2.1812527899164706]",3084.682000481058,None,3084.68201446532,3084.782101789955,s219_04132023,001,2023_Apr_13_1716,test_typingtask_norepeats,2020.2.10,59.967065362214214,
zibja,zibja,,,,,,,,,0,32,32,32,,,,,,,,,,,,,,,3090.182009989978,None,"['z', 'i', 'b', 'j', 'a']",1,"[1.5292216941015795, 1.7132652980508283, 2.9612964590778574, 3.1452671251026914, 3.3452336500631645]",3090.182009989978,None,3090.181915814278,3090.2821351069724,s219_04132023,001,2023_Apr_13_1716,test_typingtask_norepeats,2020.2.10,59.967065362214214,
theme,theme,,,,,,,,,0,33,33,33,,,,,,,,,,,,,,,3095.6819113310194,None,"['t', 'h', 'e', 'm', 'e']",1,"[0.725460760993883, 0.8614474560599774, 1.0373906639870256, 1.2213766650529578, 1.36536331102252]",3095.6819113310194,None,3095.6820729413184,3095.78201213805,s219_04132023,001,2023_Apr_13_1716,test_typingtask_norepeats,2020.2.10,59.967065362214214,
heond,heond,,,,,,,,,0,34,34,34,,,,,,,,,,,,,,,3101.1818931490416,None,"['h', 'e', 'o', 'n', 'd']",1,"[1.177294880966656, 1.4734219609526917, 1.7694143559783697, 2.0653862999752164, 2.6094262480037287]",3101.1818931490416,None,3101.1819431902722,3101.2820007139817,s219_04132023,001,2023_Apr_13_1716,test_typingtask_norepeats,2020.2.10,59.967065362214214,
faqir,faqir,,,,,,,,,0,35,35,35,,,,,,,,,,,,,,,3106.6819399839733,None,"['f', 'a', 'q', 'i', 'r']",1,"[1.309423703001812, 1.5493379589170218, 2.037391688907519, 2.2693778349785134, 2.6213843409204856]",3106.6819399839733,None,3106.6820075292953,3106.782527594012,s219_04132023,001,2023_Apr_13_1716,test_typingtask_norepeats,2020.2.10,59.967065362214214,
cooed,cooed,,,,,,,,,0,36,36,36,,,,,,,,,,,,,,,3112.1821718600113,None,"['c', 'o', 'o', 'e', 'd']",1,"[1.0330974280368537, 1.2650768080493435, 1.489146847045049, 1.7130573689937592, 1.9210625509731472]",3112.1821718600113,None,3112.1819488482897,3112.2819817579584,s219_04132023,001,2023_Apr_13_1716,test_typingtask_norepeats,2020.2.10,59.967065362214214,
tithe,tithe,,,,,,,,,0,37,37,37,,,,,,,,,,,,,,,3117.682125475956,None,"['t', 'i', 't', 'h', 'e']",1,"[0.8930823960108683, 1.1331954029155895, 1.3010815269080922, 1.5331908059306443, 1.7010833359090611]",3117.682125475956,None,3117.6817561603266,3117.781820146949,s219_04132023,001,2023_Apr_13_1716,test_typingtask_norepeats,2020.2.10,59.967065362214214,
vodka,vodka,,,,,,,,,0,38,38,38,,,,,,,,,,,,,,,3123.1819298800547,None,"['v', 'o', 'd', 'k', 'a']",1,"[1.0653839339502156, 1.345341379987076, 1.657383710029535, 1.9292976210126653, 2.1373677699593827]",3123.1819298800547,None,3123.18198265332,3123.282019848004,s219_04132023,001,2023_Apr_13_1716,test_typingtask_norepeats,2020.2.10,59.967065362214214,
cheer,cheer,,,,,,,,,0,39,39,39,,,,,,,,,,,,,,,3128.682108510053,None,"['c', 'h', 'e', 'e', 'r']",1,"[1.0210982679855078, 1.221104569034651, 1.4931117839878425, 1.661187093006447, 1.8931320799747482]",3128.682108510053,None,3128.6819185083614,3128.782080392004,s219_04132023,001,2023_Apr_13_1716,test_typingtask_norepeats,2020.2.10,59.967065362214214,
champ,champ,,,,,,,,,0,40,40,40,,,,,,,,,,,,,,,3134.18207042804,None,"['c', 'h', 'a', 'm', 'p']",1,"[0.8492646079976112, 1.1372053900267929, 1.3852469039848074, 1.6092183629516512, 1.889179305988364]",3134.18207042804,None,3134.1820720432906,3134.282000308973,s219_04132023,001,2023_Apr_13_1716,test_typingtask_norepeats,2020.2.10,59.967065362214214,
vanru,vanru,,,,,,,,,0,41,41,41,,,,,,,,,,,,,,,3139.6821350449463,None,"['v', 'a', 'n', 'r', 'u']",1,"[1.2290813639992848, 1.52508289902471, 1.701063034008257, 1.997124674031511, 2.3010800720658153]",3139.6821350449463,None,3139.6819426793254,3139.7819046629593,s219_04132023,001,2023_Apr_13_1716,test_typingtask_norepeats,2020.2.10,59.967065362214214,
faqir,faqir,,,,,,,,,0,42,42,42,,,,,,,,,,,,,,,3145.1821473849704,None,"['f', 'a', 'q', 'i', 'r']",1,"[1.281117220991291, 1.6810698970220983, 1.9930689160246402, 2.233176931971684, 2.4571839859709144]",3145.1821473849704,None,3145.1822242413064,3145.2823036150075,s219_04132023,001,2023_Apr_13_1716,test_typingtask_norepeats,2020.2.10,59.967065362214214,
theme,theme,,,,,,,,,0,43,43,43,,,,,,,,,,,,,,,3150.6820514489664,None,"['t', 'h', 'e', 'm', 'e']",1,"[0.877136975992471, 1.0532751879654825, 1.2212653328897431, 1.4692727889632806, 1.6372211879352108]",3150.6820514489664,None,3150.6820124132673,3150.782143058954,s219_04132023,001,2023_Apr_13_1716,test_typingtask_norepeats,2020.2.10,59.967065362214214,
zibja,zibja,,,,,,,,,0,44,44,44,,,,,,,,,,,,,,,3156.182089218055,None,"['z', 'i', 'b', 'j', 'a']",1,"[1.5931229080306366, 1.865201611071825, 2.5452150190249085, 2.8252410710556433, 3.02524358604569]",3156.182089218055,None,3156.1820686283636,3156.282067792956,s219_04132023,001,2023_Apr_13_1716,test_typingtask_norepeats,2020.2.10,59.967065362214214,
faqir,faqir,,,,,,,,,0,45,45,45,,,,,,,,,,,,,,,3161.682112948969,None,"['f', 'a', 'q', 'i', 'r']",1,"[0.8852047548862174, 1.2211651699617505, 2.077119720983319, 2.317197651951574, 2.645147894974798]",3161.682112948969,None,3161.6821776092866,3161.78208453604,s219_04132023,001,2023_Apr_13_1716,test_typingtask_norepeats,2020.2.10,59.967065362214214,
about,about,,,,,,,,,0,46,46,46,,,,,,,,,,,,,,,3167.1820451889653,None,"['a', 'b', 'o', 'u', 't']",1,"[0.8012071250705048, 1.0092363740550354, 1.3132979760412127, 1.6572838129941374, 1.969229155103676]",3167.1820451889653,None,3167.182109784323,3167.2821367720608,s219_04132023,001,2023_Apr_13_1716,test_typingtask_norepeats,2020.2.10,59.967065362214214,
would,would,,,,,,,,,0,47,47,47,,,,,,,,,,,,,,,3172.68200285302,None,"['w', 'o', 'u', 'l', 'd']",1,"[0.9412752310745418, 1.3172311980742961, 1.5812155900057405, 1.8932107740547508, 2.1493098830105737]",3172.68200285302,None,3172.681967034342,3172.782050553011,s219_04132023,001,2023_Apr_13_1716,test_typingtask_norepeats,2020.2.10,59.967065362214214,
theme,theme,,,,,,,,,0,48,48,48,,,,,,,,,,,,,,,3178.1820666310377,None,"['t', 'h', 'e', 'm', 'e']",1,"[0.9052461850224063, 1.0812462429748848, 1.3132455949671566, 1.5372599189868197, 1.705137134063989]",3178.1820666310377,None,3178.1820701332645,3178.28211417899,s219_04132023,001,2023_Apr_13_1716,test_typingtask_norepeats,2020.2.10,59.967065362214214,
there,there,,,,,,,,,0,49,49,49,,,,,,,,,,,,,,,3183.682126282947,None,"['t', 'h', 'e', 'r', 'e']",1,"[0.7971882519777864, 0.9331177900312468, 1.1251816239673644, 1.3170798900537193, 1.5170779479667544]",3183.682126282947,None,3183.6820443393544,3183.7819656790234,s219_04132023,001,2023_Apr_13_1716,test_typingtask_norepeats,2020.2.10,59.967065362214214,
kremp,kremp,,,,,,,,,0,50,50,50,,,,,,,,,,,,,,,3189.1821008089464,None,"['k', 'r', 'e', 'm', 'p']",1,"[1.465209070011042, 1.681115770014003, 1.881150271045044, 2.033211398986168, 2.28915365296416]",3189.1821008089464,None,3189.182084783318,3189.2824908350594,s219_04132023,001,2023_Apr_13_1716,test_typingtask_norepeats,2020.2.10,59.967065362214214,
would,would,,,,,,,,,0,51,51,51,,,,,,,,,,,,,,,3194.682233224041,None,"['w', 'o', 'u', 'l', 'd']",1,"[0.7809778979280964, 0.9410900169750676, 1.5009732539765537, 2.100969209917821, 2.3649781169369817]",3194.682233224041,None,3194.6819781133554,3194.7819961609785,s219_04132023,001,2023_Apr_13_1716,test_typingtask_norepeats,2020.2.10,59.967065362214214,
kremp,kremp,,,,,,,,,0,52,52,52,,,,,,,,,,,,,,,3200.1821146609727,None,"['k', 'r', 'e', 'm', 'p']",1,"[1.209136956022121, 1.4651989390840754, 1.6732129460433498, 1.833162384107709, 2.1131697091041133]",3200.1821146609727,None,3200.182069785299,3200.2821391680045,s219_04132023,001,2023_Apr_13_1716,test_typingtask_norepeats,2020.2.10,59.967065362214214,
belly,belly,,,,,,,,,0,53,53,53,,,,,,,,,,,,,,,3205.682147316984,None,"['b', 'e', 'l', 'l', 'y']",1,"[1.0131265789968893, 1.2691677189432085, 1.4851684919558465, 1.669145833933726, 1.869104748009704]",3205.682147316984,None,3205.682237419288,3205.782128409017,s219_04132023,001,2023_Apr_13_1716,test_typingtask_norepeats,2020.2.10,59.967065362214214,
vodka,vodka,,,,,,,,,0,54,54,54,,,,,,,,,,,,,,,3211.1823973989813,None,"['v', 'o', 'd', 'k', 'a']",1,"[1.0168088929494843, 1.304798534954898, 1.6808552800212055, 1.912876536953263, 2.1208240719279274]",3211.1823973989813,None,3211.1823318742563,3211.28208349098,s219_04132023,001,2023_Apr_13_1716,test_typingtask_norepeats,2020.2.10,59.967065362214214,
cooed,cooed,,,,,,,,,0,55,55,55,,,,,,,,,,,,,,,3216.68225685996,None,"['c', 'o', 'o', 'e', 'd']",1,"[0.7969912759726867, 1.0209534000605345, 1.2210264650639147, 1.3889764429768547, 1.589016026002355]",3216.68225685996,None,3216.6823105582616,3216.7819788670167,s219_04132023,001,2023_Apr_13_1716,test_typingtask_norepeats,2020.2.10,59.967065362214214,
lucky,lucky,,,,,,,,,0,56,56,56,,,,,,,,,,,,,,,3222.182392257033,None,"['l', 'u', 'c', 'k', 'y']",1,"[0.9448995110578835, 1.2969276120420545, 1.616802956094034, 1.7928177980938926, 2.032929396023974]",3222.182392257033,None,3222.1821254263514,3222.2824321769876,s219_04132023,001,2023_Apr_13_1716,test_typingtask_norepeats,2020.2.10,59.967065362214214,
pykka,pykka,,,,,,,,,0,57,57,57,,,,,,,,,,,,,,,3227.682164032012,None,"['p', 'y', 'k', 'k', 'a']",1,"[1.1170279060024768, 1.7731641819700599, 2.0851001699920744, 2.2531490999972448, 2.445138668990694]",3227.682164032012,None,3227.682303321303,3227.7824998049764,s219_04132023,001,2023_Apr_13_1716,test_typingtask_norepeats,2020.2.10,59.967065362214214,
think,think,,,,,,,,,0,58,58,58,,,,,,,,,,,,,,,3233.182308227988,None,"['t', 'h', 'i', 'n', 'k']",1,"[0.912962231086567, 1.1049770300742239, 1.3449877890525386, 1.5850225239992142, 1.7929102430352941]",3233.182308227988,None,3233.182202644285,3233.282162594958,s219_04132023,001,2023_Apr_13_1716,test_typingtask_norepeats,2020.2.10,59.967065362214214,
kremp,kremp,,,,,,,,,0,59,59,59,,,,,,,,,,,,,,,3238.6821202520514,None,"['k', 'r', 'e', 'm', 'p']",1,"[1.1491609509103, 1.365208326955326, 1.5492090679472312, 1.685087322955951, 1.91708716400899]",3238.6821202520514,None,3238.682284640253,3238.7821817359654,s219_04132023,001,2023_Apr_13_1716,test_typingtask_norepeats,2020.2.10,59.967065362214214,
druze,druze,,,,,,,,,0,60,60,60,,,,,,,,,,,,,,,3244.182098880061,None,"['d', 'r', 'u', 'z', 'e']",1,"[0.9291298829484731, 1.1612081159837544, 1.7771560669643804, 2.3770824779057875, 2.7051199179841205]",3244.182098880061,None,3244.182180663326,3244.2823366950033,s219_04132023,001,2023_Apr_13_1716,test_typingtask_norepeats,2020.2.10,59.967065362214214,
puppy,puppy,,,,,,,,,0,61,61,61,,,,,,,,,,,,,,,3249.682089351001,None,"['p', 'u', 'p', 'p', 'y']",1,"[1.2212391240755096, 1.5651482900138944, 2.0771031340118498, 2.261216076090932, 2.4852245070505887]",3249.682089351001,None,3249.682237107295,3249.782104043057,s219_04132023,001,2023_Apr_13_1716,test_typingtask_norepeats,2020.2.10,59.967065362214214,
heond,heond,,,,,,,,,0,62,62,62,,,,,,,,,,,,,,,3255.1822863379493,None,"['h', 'e', 'o', 'n', 'd']",1,"[1.0009086260106415, 1.280967804021202, 1.4729208989301696, 1.7289183819666505, 1.9529816770227626]",3255.1822863379493,None,3255.182083614275,3255.2819384830073,s219_04132023,001,2023_Apr_13_1716,test_typingtask_norepeats,2020.2.10,59.967065362214214,
there,there,,,,,,,,,0,63,63,63,,,,,,,,,,,,,,,3260.6822739170166,None,"['t', 'h', 'e', 'r', 'e']",1,"[0.7890155400382355, 0.9250036550220102, 1.0929341779556125, 1.2769348330330104, 1.436961845960468]",3260.6822739170166,None,3260.682102673326,3260.781870136969,s219_04132023,001,2023_Apr_13_1716,test_typingtask_norepeats,2020.2.10,59.967065362214214,
zibja,zibja,,,,,,,,,0,64,64,64,,,,,,,,,,,,,,,3266.182920160005,None,"['z', 'i', 'b', 'j', 'a']",1,"[1.3363896810915321, 1.5683819450205192, 2.832384333014488, 3.040336720063351, 3.2323864090722054]",3266.182920160005,None,3266.1820394983397,3266.282192204031,s219_04132023,001,2023_Apr_13_1716,test_typingtask_norepeats,2020.2.10,59.967065362214214,
faqir,faqir,,,,,,,,,0,65,65,65,,,,,,,,,,,,,,,3271.6821673399536,None,"['f', 'a', 'q', 'i', 'r']",1,"[0.9651486281072721, 1.2930371219990775, 1.5571226680185646, 1.8051686370745301, 2.005042855045758]",3271.6821673399536,None,3271.682292011322,3271.7822485660436,s219_04132023,001,2023_Apr_13_1716,test_typingtask_norepeats,2020.2.10,59.967065362214214,
buddy,buddy,,,,,,,,,0,66,66,66,,,,,,,,,,,,,,,3277.1822864520364,None,"['b', 'u', 'd', 'd', 'y']",1,"[1.033024204079993, 1.2490507130278274, 1.608936241012998, 1.776911101071164, 2.016920590074733]",3277.1822864520364,None,3277.182241129328,3277.282106154016,s219_04132023,001,2023_Apr_13_1716,test_typingtask_norepeats,2020.2.10,59.967065362214214,
druze,druze,,,,,,,,,0,67,67,67,,,,,,,,,,,,,,,3282.682315471,None,"['d', 'r', 'u', 'z', 'e']",1,"[1.196967558003962, 1.4609377740416676, 1.7168693330604583, 2.1008512200787663, 2.3889303610194474]",3282.682315471,None,3282.6825271693406,3282.7821422179695,s219_04132023,001,2023_Apr_13_1716,test_typingtask_norepeats,2020.2.10,59.967065362214214,
edthe,edthe,,,,,,,,,0,68,68,68,,,,,,,,,,,,,,,3288.1823948899982,None,"['e', 'd', 't', 'h', 'e']",1,"[1.2728794410359114, 1.520809230976738, 1.800805354025215, 1.9689003600506112, 2.0968946400098503]",3288.1823948899982,None,3288.182395868341,3288.2823547839653,s219_04132023,001,2023_Apr_13_1716,test_typingtask_norepeats,2020.2.10,59.967065362214214,
vanru,vanru,,,,,,,,,0,69,69,69,,,,,,,,,,,,,,,3293.6825977980625,None,"['v', 'a', 'n', 'r', 'u']",1,"[1.24467738205567, 1.5806303849676624, 1.756596231018193, 2.0046720990212634, 2.284657806972973]",3293.6825977980625,None,3293.6822112443506,3293.7823377100285,s219_04132023,001,2023_Apr_13_1716,test_typingtask_norepeats,2020.2.10,59.967065362214214,
think,think,,,,,,,,,0,70,70,70,,,,,,,,,,,,,,,3299.1822878730018,None,"['t', 'h', 'i', 'n', 'k']",1,"[0.8409971229266375, 0.9769258139422163, 1.2089345189742744, 1.4250252549536526, 1.6410206309519708]",3299.1822878730018,None,3299.1823229063184,3299.282313699019,s219_04132023,001,2023_Apr_13_1716,test_typingtask_norepeats,2020.2.10,59.967065362214214,
buddy,buddy,,,,,,,,,0,71,71,71,,,,,,,,,,,,,,,3304.6823917439906,None,"['b', 'u', 'd', 'd', 'y']",1,"[0.9728182349354029, 1.164859267999418, 1.5729326750151813, 1.7328873359365389, 1.9489303859882057]",3304.6823917439906,None,3304.6824586812754,3304.7823590850458,s219_04132023,001,2023_Apr_13_1716,test_typingtask_norepeats,2020.2.10,59.967065362214214,
pykka,pykka,,,,,,,,,0,72,72,72,,,,,,,,,,,,,,,3310.1823695900384,None,"['p', 'y', 'k', 'k', 'a']",1,"[1.2329529980197549, 1.6648481040028855, 1.9689450069563463, 2.120937795029022, 2.3449280249187723]",3310.1823695900384,None,3310.182443465327,3310.2824637669837,s219_04132023,001,2023_Apr_13_1716,test_typingtask_norepeats,2020.2.10,59.967065362214214,
heond,heond,,,,,,,,,0,73,73,73,,,,,,,,,,,,,,,3315.682166600018,None,"['h', 'e', 'o', 'n', 'd']",1,"[1.149118004948832, 1.4451329009607434, 1.6210460889851674, 2.117099688970484, 2.59714313398581]",3315.682166600018,None,3315.6822859092963,3315.7822631150484,s219_04132023,001,2023_Apr_13_1716,test_typingtask_norepeats,2020.2.10,59.967065362214214,
therm,therm,,,,,,,,,0,74,74,74,,,,,,,,,,,,,,,3321.1839673389914,None,"['t', 'h', 'e', 'r', 'm']",1,"[0.9433081999886781, 1.1032411239575595, 1.3112396739888936, 1.5032533089397475, 1.7272193899843842]",3321.1839673389914,None,3321.183006155293,3321.282987614977,s219_04132023,001,2023_Apr_13_1716,test_typingtask_norepeats,2020.2.10,59.967065362214214,
champ,champ,,,,,,,,,0,75,75,75,,,,,,,,,,,,,,,3326.682085930952,None,"['c', 'h', 'a', 'm', 'p']",1,"[1.0212351400405169, 1.1892323230858892, 1.429178545018658, 1.6211199760437012, 1.9332332300255075]",3326.682085930952,None,3326.6823881403425,3326.7823558310047,s219_04132023,001,2023_Apr_13_1716,test_typingtask_norepeats,2020.2.10,59.967065362214214,
druze,druze,,,,,,,,,0,76,76,76,,,,,,,,,,,,,,,3332.1825431640027,None,"['d', 'r', 'u', 'z', 'e']",1,"[1.04067784990184, 1.264710558927618, 1.4647083699237555, 2.0166625439887866, 2.3047853329917416]",3332.1825431640027,None,3332.1823228993335,3332.2824331549928,s219_04132023,001,2023_Apr_13_1716,test_typingtask_norepeats,2020.2.10,59.967065362214214,
haole,haole,,,,,,,,,0,77,77,77,,,,,,,,,,,,,,,3337.6824750279775,None,"['h', 'a', 'o', 'l', 'e']",1,"[1.2128777370089665, 1.3727921679383144, 1.588798642042093, 1.8368704159511253, 2.0208152330014855]",3337.6824750279775,None,3337.6822590082766,3337.782367774984,s219_04132023,001,2023_Apr_13_1716,test_typingtask_norepeats,2020.2.10,59.967065362214214,
belly,belly,,,,,,,,,0,78,78,78,,,,,,,,,,,,,,,3343.1826466720086,None,"['b', 'e', 'l', 'l', 'y']",1,"[0.7526370589621365, 0.9206289669964463, 1.1126237839926034, 1.2886795559898019, 1.512641443987377]",3343.1826466720086,None,3343.1821653803227,3343.2823791999836,s219_04132023,001,2023_Apr_13_1716,test_typingtask_norepeats,2020.2.10,59.967065362214214,
tithe,tithe,,,,,,,,,0,79,79,79,,,,,,,,,,,,,,,3348.6823101510527,None,"['t', 'i', 't', 'h', 'e']",1,"[0.6370472919661552, 0.8769054999575019, 1.164906866964884, 1.3169385249493644, 1.4689872999442741]",3348.6823101510527,None,3348.6824015662887,3348.782301575993,s219_04132023,001,2023_Apr_13_1716,test_typingtask_norepeats,2020.2.10,59.967065362214214,
think,think,,,,,,,,,0,80,80,80,,,,,,,,,,,,,,,3354.1824251230573,None,"['t', 'h', 'i', 'n', 'k']",1,"[0.7688175300136209, 0.9128070479491726, 1.0888450759230182, 1.2808365250239149, 1.4568533189594746]",3354.1824251230573,None,3354.1824730343533,3354.282652277034,s219_04132023,001,2023_Apr_13_1716,test_typingtask_norepeats,2020.2.10,59.967065362214214,
therm,therm,,,,,,,,,0,81,81,81,,,,,,,,,,,,,,,3359.682397271972,None,"['t', 'h', 'e', 'r', 'm']",1,"[0.6688491029199213, 0.8289031389867887, 0.9889215969014913, 1.1568329769652337, 1.3489216319285333]",3359.682397271972,None,3359.682386908319,3359.7822971319547,s219_04132023,001,2023_Apr_13_1716,test_typingtask_norepeats,2020.2.10,59.967065362214214,
cooed,cooed,,,,,,,,,0,82,82,82,,,,,,,,,,,,,,,3365.182477261056,None,"['c', 'o', 'o', 'e', 'd']",1,"[0.8647713949903846, 1.0488441369961947, 1.2168109500780702, 1.36881378502585, 1.5448191890027374]",3365.182477261056,None,3365.1822995482826,3365.282373702037,s219_04132023,001,2023_Apr_13_1716,test_typingtask_norepeats,2020.2.10,59.967065362214214,
belly,belly,,,,,,,,,0,83,83,83,,,,,,,,,,,,,,,3370.6823641710216,None,"['b', 'e', 'l', 'l', 'y']",1,"[0.8768508509965613, 1.0849326689494774, 1.2048321909969673, 1.372891295934096, 1.4928379770135507]",3370.6823641710216,None,3370.682326327299,3370.7823956980137,s219_04132023,001,2023_Apr_13_1716,test_typingtask_norepeats,2020.2.10,59.967065362214214,
cheer,cheer,,,,,,,,,0,84,84,84,,,,,,,,,,,,,,,3376.1824442660436,None,"['c', 'h', 'e', 'e', 'r']",1,"[0.7848061029799283, 0.9128147299634293, 1.0887712269322947, 1.232874225010164, 1.3848779279505834]",3376.1824442660436,None,3376.1823460972983,3376.282416093047,s219_04132023,001,2023_Apr_13_1716,test_typingtask_norepeats,2020.2.10,59.967065362214214,
would,would,,,,,,,,,0,85,85,85,,,,,,,,,,,,,,,3381.6822741490323,None,"['w', 'o', 'u', 'l', 'd']",1,"[0.8850187479984015, 1.0290499120019376, 1.2609717280138284, 1.5409293730044737, 1.7089569269446656]",3381.6822741490323,None,3381.6823688163304,3381.7822447670624,s219_04132023,001,2023_Apr_13_1716,test_typingtask_norepeats,2020.2.10,59.967065362214214,
lucky,lucky,,,,,,,,,0,86,86,86,,,,,,,,,,,,,,,3387.1823924169876,None,"['l', 'u', 'c', 'k', 'y']",1,"[0.9528745749266818, 1.3049183459952474, 1.552920370013453, 1.736902298987843, 1.9768109519500285]",3387.1823924169876,None,3387.1824188303317,3387.2826066970592,s219_04132023,001,2023_Apr_13_1716,test_typingtask_norepeats,2020.2.10,59.967065362214214,
there,there,,,,,,,,,0,87,87,87,,,,,,,,,,,,,,,3392.6822720470373,None,"['t', 'h', 'e', 'r', 'e']",1,"[0.8609879859723151, 0.9810422759037465, 1.1649624119745567, 1.349066040944308, 1.5249431629199535]",3392.6822720470373,None,3392.682395951345,3392.782504927949,s219_04132023,001,2023_Apr_13_1716,test_typingtask_norepeats,2020.2.10,59.967065362214214,
tithe,tithe,,,,,,,,,0,88,88,88,,,,,,,,,,,,,,,3398.1822935809614,None,"['t', 'i', 't', 'h', 'e']",1,"[0.7289094029692933, 0.9290162010584027, 1.1129303330089897, 1.264922020956874, 1.4249708619900048]",3398.1822935809614,None,3398.1824393343295,3398.2827893960057,s219_04132023,001,2023_Apr_13_1716,test_typingtask_norepeats,2020.2.10,59.967065362214214,
buddy,buddy,,,,,,,,,0,89,89,89,,,,,,,,,,,,,,,3403.682424793951,None,"['b', 'u', 'd', 'd', 'y']",1,"[1.4688895019935444, 1.6848307310137898, 1.9648249479942024, 2.116842685965821, 2.284831644035876]",3403.682424793951,None,3403.682339067326,3403.782286002999,s219_04132023,001,2023_Apr_13_1716,test_typingtask_norepeats,2020.2.10,59.967065362214214,
cheer,cheer,,,,,,,,,0,90,90,90,,,,,,,,,,,,,,,3409.182364783017,None,"['c', 'h', 'e', 'e', 'r']",1,"[0.8889588919701055, 1.0489620110020041, 1.2088509990135208, 1.3689167770789936, 1.5449479820672423]",3409.182364783017,None,3409.1822222672517,3409.2828124139924,s219_04132023,001,2023_Apr_13_1716,test_typingtask_norepeats,2020.2.10,59.967065362214214,
would,would,,,,,,,,,0,91,91,91,,,,,,,,,,,,,,,3414.6823646960547,None,"['w', 'o', 'u', 'l', 'd']",1,"[0.8449176610447466, 1.0289186530280858, 1.2768449949799106, 1.5409516680520028, 1.7569357430329546]",3414.6823646960547,None,3414.6822934503316,3414.782363772043,s219_04132023,001,2023_Apr_13_1716,test_typingtask_norepeats,2020.2.10,59.967065362214214,
there,there,,,,,,,,,0,92,92,92,,,,,,,,,,,,,,,3420.1825718600303,None,"['t', 'h', 'e', 'r', 'e']",1,"[0.816711938008666, 0.9527106590103358, 1.1208052689908072, 1.312643563025631, 1.5046317300293595]",3420.1825718600303,None,3420.182337368361,3420.2825483740307,s219_04132023,001,2023_Apr_13_1716,test_typingtask_norepeats,2020.2.10,59.967065362214214,
lucky,lucky,,,,,,,,,0,93,93,93,,,,,,,,,,,,,,,3425.6825182950124,None,"['l', 'u', 'c', 'k', 'y']",1,"[0.9167186319828033, 1.220773720066063, 1.5487575270235538, 1.732780585065484, 1.972730559995398]",3425.6825182950124,None,3425.682469117327,3425.782567000948,s219_04132023,001,2023_Apr_13_1716,test_typingtask_norepeats,2020.2.10,59.967065362214214,
think,think,,,,,,,,,0,94,94,94,,,,,,,,,,,,,,,3431.1825459119864,None,"['t', 'h', 'i', 'n', 'k']",1,"[0.7047929429681972, 0.8567692949436605, 1.072783136041835, 1.3047807730035856, 1.5126888699596748]",3431.1825459119864,None,3431.182453104283,3431.282505700947,s219_04132023,001,2023_Apr_13_1716,test_typingtask_norepeats,2020.2.10,59.967065362214214,
therm,therm,,,,,,,,,0,95,95,95,,,,,,,,,,,,,,,3436.6827090380248,None,"['t', 'h', 'e', 'r', 'm']",1,"[0.7004903880879283, 0.8445466459961608, 0.9645349960774183, 1.1404792320681736, 1.3004879640648142]",3436.6827090380248,None,3436.6825786842846,3436.7830925349845,s219_04132023,001,2023_Apr_13_1716,test_typingtask_norepeats,2020.2.10,59.967065362214214,
pykka,pykka,,,,,,,,,0,96,96,96,,,,,,,,,,,,,,,3442.182533249026,None,"['p', 'y', 'k', 'k', 'a']",1,"[1.2967344449134544, 1.816762588918209, 2.1126731869298965, 2.3046666169539094, 2.6727858369704336]",3442.182533249026,None,3442.1825256493057,3442.282568517956,s219_04132023,001,2023_Apr_13_1716,test_typingtask_norepeats,2020.2.10,59.967065362214214,
puppy,puppy,,,,,,,,,0,97,97,97,,,,,,,,,,,,,,,3447.6825715700397,None,"['p', 'u', 'p', 'p', 'y']",1,"[1.0766653689788654, 1.39677092700731, 1.6447608430171385, 1.8447597810300067, 2.2287233249517158]",3447.6825715700397,None,3447.6825181223567,3447.782454813947,s219_04132023,001,2023_Apr_13_1716,test_typingtask_norepeats,2020.2.10,59.967065362214214,
edthe,edthe,,,,,,,,,0,98,98,98,,,,,,,,,,,,,,,3453.1824118250515,None,"['e', 'd', 't', 'h', 'e']",1,"[1.4568696760106832, 1.9449229730525985, 2.304918497102335, 2.512806987040676, 2.800791957997717]",3453.1824118250515,None,3453.182555299357,3453.282410235028,s219_04132023,001,2023_Apr_13_1716,test_typingtask_norepeats,2020.2.10,59.967065362214214,
vanru,vanru,,,,,,,,,0,99,99,99,,,,,,,,,,,,,,,3458.682548785,None,"['v', 'a', 'n', 'r', 'u']",1,"[1.6447838318999857, 1.8527323899324983, 2.004677406977862, 2.236798696918413, 2.4926592980045825]",3458.682548785,None,3458.6824830403666,3458.7826957149664,s219_04132023,001,2023_Apr_13_1716,test_typingtask_norepeats,2020.2.10,59.967065362214214,
cooed,cooed,,,,,,,,,0,100,100,100,,,,,,,,,,,,,,,3464.1824753240217,None,"['c', 'o', 'o', 'e', 'd']",1,"[0.9127628720598295, 1.3847456990042701, 1.6007208600640297, 1.7927317810244858, 2.0327983839670196]",3464.1824753240217,None,3464.1821716172735,3464.2825766110327,s219_04132023,001,2023_Apr_13_1716,test_typingtask_norepeats,2020.2.10,59.967065362214214,
tithe,tithe,,,,,,,,,0,101,101,101,,,,,,,,,,,,,,,3469.6823167080292,None,"['t', 'i', 't', 'h', 'e']",1,"[1.2530012410134077, 1.3648952710209414, 1.5409464419353753, 1.7008840559283271, 1.8769018639577553]",3469.6823167080292,None,3469.6824032253235,3469.782769107027,s219_04132023,001,2023_Apr_13_1716,test_typingtask_norepeats,2020.2.10,59.967065362214214,
kremp,kremp,,,,,,,,,0,102,102,102,,,,,,,,,,,,,,,3475.1824571270263,None,"['k', 'r', 'e', 'm', 'p']",1,"[1.2328639589250088, 1.4488725699484348, 1.648824617965147, 1.7927477449411526, 2.008873071987182]",3475.1824571270263,None,3475.1824416143236,3475.28233845497,s219_04132023,001,2023_Apr_13_1716,test_typingtask_norepeats,2020.2.10,59.967065362214214,
faqir,faqir,,,,,,,,,0,103,103,103,,,,,,,,,,,,,,,3480.6826317380182,None,"['f', 'a', 'q', 'i', 'r']",1,"[0.9406959400512278, 1.4446637369692326, 1.6925605949945748, 1.980652551050298, 2.236688120989129]",3480.6826317380182,None,3480.6822740352827,3480.7825119650224,s219_04132023,001,2023_Apr_13_1716,test_typingtask_norepeats,2020.2.10,59.967065362214214,
edthe,edthe,,,,,,,,,0,104,104,104,,,,,,,,,,,,,,,3486.1827961029485,None,"['e', 'd', 't', 'h', 'e']",1,"[0.984506004024297, 1.2404901189729571, 1.4644065720494837, 1.6244306800654158, 1.7044093810254708]",3486.1827961029485,None,3486.1823561823576,3486.282608189038,s219_04132023,001,2023_Apr_13_1716,test_typingtask_norepeats,2020.2.10,59.967065362214214,
druze,druze,,,,,,,,,0,105,105,105,,,,,,,,,,,,,,,3491.6825531079667,None,"['d', 'r', 'u', 'z', 'e']",1,"[0.9887375149410218, 1.220724145998247, 1.6286965699400753, 2.020790841896087, 2.284657947951928]",3491.6825531079667,None,3491.682530384266,3491.782955794013,s219_04132023,001,2023_Apr_13_1716,test_typingtask_norepeats,2020.2.10,59.967065362214214,
buddy,buddy,,,,,,,,,0,106,106,106,,,,,,,,,,,,,,,3497.182446553954,None,"['b', 'u', 'd', 'd', 'y']",1,"[0.8647675489773974, 1.0727645539445803, 1.3208957320312038, 1.4968492550542578, 1.8889022660441697]",3497.182446553954,None,3497.182564437261,3497.2823903469834,s219_04132023,001,2023_Apr_13_1716,test_typingtask_norepeats,2020.2.10,59.967065362214214,
kremp,kremp,,,,,,,,,0,107,107,107,,,,,,,,,,,,,,,3502.682624132023,None,"['k', 'r', 'e', 'm', 'p']",1,"[1.484627124038525, 1.6605761100072414, 1.8766518899938092, 2.036742590018548, 2.2686751669971272]",3502.682624132023,None,3502.682464827306,3502.7823673710227,s219_04132023,001,2023_Apr_13_1716,test_typingtask_norepeats,2020.2.10,59.967065362214214,
cheer,cheer,,,,,,,,,0,108,108,108,,,,,,,,,,,,,,,3508.1827083820244,None,"['c', 'h', 'e', 'e', 'r']",1,"[0.888562201987952, 1.0805997719289735, 1.2405819509876892, 1.408646133961156, 1.5925379559630528]",3508.1827083820244,None,3508.1825004602897,3508.2825721619884,s219_04132023,001,2023_Apr_13_1716,test_typingtask_norepeats,2020.2.10,59.967065362214214,
vanru,vanru,,,,,,,,,0,109,109,109,,,,,,,,,,,,,,,3513.6827887130203,None,"['v', 'a', 'n', 'r', 'u']",1,"[1.140454477048479, 1.5405362870078534, 1.7725400869967416, 1.9804882849566638, 2.2204676599940285]",3513.6827887130203,None,3513.6826057083554,3513.7827123110183,s219_04132023,001,2023_Apr_13_1716,test_typingtask_norepeats,2020.2.10,59.967065362214214,
druze,druze,,,,,,,,,0,110,110,110,,,,,,,,,,,,,,,3519.182768417988,None,"['d', 'r', 'u', 'z', 'e']",1,"[0.904556889901869, 1.1444782998878509, 1.352576222969219, 1.8085532429395244, 2.0805323539534584]",3519.182768417988,None,3519.182638357265,3519.282842990011,s219_04132023,001,2023_Apr_13_1716,test_typingtask_norepeats,2020.2.10,59.967065362214214,
belly,belly,,,,,,,,,0,111,111,111,,,,,,,,,,,,,,,3524.682537254994,None,"['b', 'e', 'l', 'y']",0,"[0.9407548549352214, 1.2287617350229993, 1.6527394379954785, 2.084674798999913]",3524.682537254994,None,3524.682704184309,3524.7825675950153,s219_04132023,001,2023_Apr_13_1716,test_typingtask_norepeats,2020.2.10,59.967065362214214,
pykka,pykka,,,,,,,,,0,112,112,112,,,,,,,,,,,,,,,3530.1824956979835,None,"['p', 'y', 'k', 'k', 'a']",1,"[1.1127419689437374, 1.5527990559348837, 1.7927533709444106, 1.9528224699897692, 2.128809798974544]",3530.1824956979835,None,3530.182639276364,3530.2825631659944,s219_04132023,001,2023_Apr_13_1716,test_typingtask_norepeats,2020.2.10,59.967065362214214,
vodka,vodka,,,,,,,,,0,113,113,113,,,,,,,,,,,,,,,3535.6825659930473,None,"['v', 'o', 'd', 'k', 'a']",1,"[1.0207949168980122, 1.2926300049293786, 1.7567617138847709, 1.9646455129841343, 2.164694479899481]",3535.6825659930473,None,3535.6826002643093,3535.782613937976,s219_04132023,001,2023_Apr_13_1716,test_typingtask_norepeats,2020.2.10,59.967065362214214,
haole,haole,,,,,,,,,0,114,114,114,,,,,,,,,,,,,,,3541.1825037410017,None,"['h', 'a', 'o', 'l', 'e']",1,"[0.9767081020399928, 1.176703201024793, 1.3688141260063276, 1.648779081995599, 2.128841469064355]",3541.1825037410017,None,3541.1826808852957,3541.2826996019576,s219_04132023,001,2023_Apr_13_1716,test_typingtask_norepeats,2020.2.10,59.967065362214214,
buddy,buddy,,,,,,,,,0,115,115,115,,,,,,,,,,,,,,,3546.682459649979,None,"['b', 'u', 'd', 'd', 'y']",1,"[0.9647925419267267, 1.188748671906069, 1.4448753009783104, 1.5887814209563658, 1.812745142960921]",3546.682459649979,None,3546.6825782363185,3546.782687903964,s219_04132023,001,2023_Apr_13_1716,test_typingtask_norepeats,2020.2.10,59.967065362214214,
about,about,,,,,,,,,0,116,116,116,,,,,,,,,,,,,,,3552.1826017900603,None,"['a', 'b', 'o', 'u', 't']",1,"[0.9367386259837076, 1.0646281249355525, 1.2807127599371597, 1.4967278509866446, 1.7047272060299292]",3552.1826017900603,None,3552.1826247352756,3552.282889493974,s219_04132023,001,2023_Apr_13_1716,test_typingtask_norepeats,2020.2.10,59.967065362214214,
theme,theme,,,,,,,,,0,117,117,117,,,,,,,,,,,,,,,3557.682702410966,None,"['t', 'h', 'e', 'm', 'e']",1,"[0.7565059158951044, 0.9325697849271819, 1.0845084208995104, 1.5326030879514292, 1.7246275179786608]",3557.682702410966,None,3557.6823757443226,3557.782663405058,s219_04132023,001,2023_Apr_13_1716,test_typingtask_norepeats,2020.2.10,59.967065362214214,
pykka,pykka,,,,,,,,,0,118,118,118,,,,,,,,,,,,,,,3563.1826290320605,None,"['p', 'y', 'k', 'k', 'a']",1,"[1.0246435949811712, 1.4246465250616893, 1.7526578680844977, 1.9526495140744373, 2.288696621078998]",3563.1826290320605,None,3563.182521025289,3563.282812681049,s219_04132023,001,2023_Apr_13_1716,test_typingtask_norepeats,2020.2.10,59.967065362214214,
zibja,zibja,,,,,,,,,0,119,119,119,,,,,,,,,,,,,,,3568.6826969790272,None,"['z', 'i', 'b', 'j', 'a']",1,"[1.4045927530387416, 1.6686161200050265, 2.292516659013927, 2.6286316530313343, 2.892555244034156]",3568.6826969790272,None,3568.6828283773384,3568.782651780988,s219_04132023,001,2023_Apr_13_1716,test_typingtask_norepeats,2020.2.10,59.967065362214214,
