string,corrAns,practice_trials.thisRepN,practice_trials.thisTrialN,practice_trials.thisN,practice_trials.thisIndex,trials_1.thisRepN,trials_1.thisTrialN,trials_1.thisN,trials_1.thisIndex,trials_2.thisRepN,trials_2.thisTrialN,trials_2.thisN,trials_2.thisIndex,key_resp_0.keys,key_resp_0.corr,key_resp_0.rt,text_1.started,text_1.stopped,key_resp_1.keys,key_resp_1.corr,key_resp_1.rt,key_resp_1.started,key_resp_1.stopped,sound_1A_1.started,sound_1A_1.stopped,break_time.started,break_time.stopped,text_2.started,text_2.stopped,key_resp_2.keys,key_resp_2.corr,key_resp_2.rt,key_resp_2.started,key_resp_2.stopped,sound_1A_2.started,sound_1A_2.stopped,participant,session,date,expName,psychopyVersion,frameRate,
fresh,fresh,0,0,0,0,,,,,,,,,"['f', 'r', 'e', 'f', 'r', 'e', 's', 'h']",0,"[0.9621099419891834, 1.1621132970321923, 1.314208233030513, 2.266225747996941, 2.4501000980380923, 2.658198540098965, 2.8341836240142584, 2.9302098881453276]",,,,,,,,,,,,,,,,,,,,,s224_04212023,001,2023_Apr_21_1302,test_typingtask_norepeats,2020.2.10,59.96137765417639,
dream,dream,0,1,1,1,,,,,,,,,"['d', 'r', 'e', 'a', 'm', 'space']",0,"[0.9085701040457934, 1.1085760900750756, 1.2764120530337095, 1.3885250561870635, 1.4844106012023985, 2.4525310571771115]",,,,,,,,,,,,,,,,,,,,,s224_04212023,001,2023_Apr_21_1302,test_typingtask_norepeats,2020.2.10,59.96137765417639,
slime,slime,0,2,2,2,,,,,,,,,"['s', 'i', 'm', 'e']",0,"[0.8483666009269655, 1.1443995719309896, 1.6483747898600996, 1.7443712828680873]",,,,,,,,,,,,,,,,,,,,,s224_04212023,001,2023_Apr_21_1302,test_typingtask_norepeats,2020.2.10,59.96137765417639,
haole,haole,,,,,0,0,0,0,,,,,,,,1580.7829783391207,None,"['h', 'a', 'o', 'l', 'e']",1,"[1.0634733901824802, 1.2795377320144325, 1.7035186171997339, 1.895417686086148, 1.9915359311271459]",1580.7829783391207,None,1580.7775282117539,1580.877487345133,,,,,,,,,,,,s224_04212023,001,2023_Apr_21_1302,test_typingtask_norepeats,2020.2.10,59.96137765417639,
cooed,cooed,,,,,0,1,1,1,,,,,,,,1586.2942261421122,None,"['c', 'o', 'o', 'e', 'd']",1,"[0.8561859780456871, 0.9682613578625023, 1.1282599798869342, 1.2563012389000505, 1.424178991932422]",1586.2942261421122,None,1586.2939645727631,1586.3940925451461,,,,,,,,,,,,s224_04212023,001,2023_Apr_21_1302,test_typingtask_norepeats,2020.2.10,59.96137765417639,
champ,champ,,,,,0,2,2,2,,,,,,,,1591.7939230790362,None,"['c', 'h', 'a', 'm', 'p']",1,"[0.9325808139983565, 1.0205960990861058, 1.1565465251915157, 1.236590923042968, 1.476483206031844]",1591.7939230790362,None,1591.7939707166981,1591.8939090301283,,,,,,,,,,,,s224_04212023,001,2023_Apr_21_1302,test_typingtask_norepeats,2020.2.10,59.96137765417639,
heond,heond,,,,,0,3,3,3,,,,,,,,1597.294031420024,None,"['h', 'e', 'o', 'n', 'd']",1,"[1.2324383861850947, 1.4484870100859553, 1.7124198901001364, 1.9044099950697273, 2.056375232990831]",1597.294031420024,None,1597.2940739307553,1597.3943492551334,,,,,,,,,,,,s224_04212023,001,2023_Apr_21_1302,test_typingtask_norepeats,2020.2.10,59.96137765417639,
lucky,lucky,,,,,0,4,4,4,,,,,,,,1602.793905090075,None,"['l', 'u', 'c', 'k', 'y']",1,"[0.7725449809804559, 0.9965701159089804, 1.084500540047884, 1.2125649668741971, 1.300480091944337]",1602.793905090075,None,1602.7939021885861,1602.8940007670317,,,,,,,,,,,,s224_04212023,001,2023_Apr_21_1302,test_typingtask_norepeats,2020.2.10,59.96137765417639,
about,about,,,,,0,5,5,5,,,,,,,,1608.2939211011399,None,"['a', 'b', 'o', 'u', 't']",1,"[0.7125131939537823, 0.9206022650469095, 0.992559416918084, 1.1205717250704765, 1.1925735550466925]",1608.2939211011399,None,1608.2939492436592,1608.394310034113,,,,,,,,,,,,s224_04212023,001,2023_Apr_21_1302,test_typingtask_norepeats,2020.2.10,59.96137765417639,
tithe,tithe,,,,,0,6,6,6,,,,,,,,1613.793786779046,None,"['t', 'i', 't', 'h', 'e']",1,"[2.0207072510384023, 2.2046480251010507, 2.364626689115539, 2.516728605143726, 2.6927801489364356]",1613.793786779046,None,1613.7940466995817,1613.8940369121265,,,,,,,,,,,,s224_04212023,001,2023_Apr_21_1302,test_typingtask_norepeats,2020.2.10,59.96137765417639,
theme,theme,,,,,0,7,7,7,,,,,,,,1619.2942065091338,None,"['t', 'h', 'e', 'm', 'e']",1,"[0.8642256718594581, 0.9363670160528272, 1.0802888609468937, 1.216308819828555, 1.2723286850377917]",1619.2942065091338,None,1619.2942961815745,1619.3941649619956,,,,,,,,,,,,s224_04212023,001,2023_Apr_21_1302,test_typingtask_norepeats,2020.2.10,59.96137765417639,
about,about,,,,,0,8,8,8,,,,,,,,1624.7939954111353,None,"['a', 'b', 'o', 'u', 't']",1,"[0.7325177730526775, 0.9405298219062388, 1.004480306059122, 1.1325185459572822, 1.2124563490506262]",1624.7939954111353,None,1624.7938845425845,1624.8942710540723,,,,,,,,,,,,s224_04212023,001,2023_Apr_21_1302,test_typingtask_norepeats,2020.2.10,59.96137765417639,
there,there,,,,,0,9,9,9,,,,,,,,1630.2940163321327,None,"['t', 'h', 'e', 'r', 'e']",1,"[0.704437020001933, 0.7444377390202135, 0.8725309781730175, 1.0244984421879053, 1.1684898410458118]",1630.2940163321327,None,1630.293825139571,1630.3939269031398,,,,,,,,,,,,s224_04212023,001,2023_Apr_21_1302,test_typingtask_norepeats,2020.2.10,59.96137765417639,
tithe,tithe,,,,,0,10,10,10,,,,,,,,1635.7938196060713,None,"['t', 'i', 't', 'h', 'e']",1,"[0.8287078789435327, 1.7167007660027593, 2.3166895259637386, 2.5005856319330633, 2.6207122679334134]",1635.7938196060713,None,1635.7939185437747,1635.8939008039888,,,,,,,,,,,,s224_04212023,001,2023_Apr_21_1302,test_typingtask_norepeats,2020.2.10,59.96137765417639,
think,think,,,,,0,11,11,11,,,,,,,,1641.2940300740302,None,"['t', 'h', 'i', 'n', 'k']",1,"[0.7204832679126412, 0.808459232095629, 0.9364934400655329, 1.0724453700240701, 1.2003709669224918]",1641.2940300740302,None,1641.2940903597512,1641.3937959771138,,,,,,,,,,,,s224_04212023,001,2023_Apr_21_1302,test_typingtask_norepeats,2020.2.10,59.96137765417639,
kremp,kremp,,,,,0,12,12,12,,,,,,,,1646.7940803980455,None,"['k', 'r', 'e', 'm', 'p']",1,"[1.228411135962233, 1.308383401017636, 1.4684416789095849, 1.532442094059661, 1.6923874609638005]",1646.7940803980455,None,1646.7940366745927,1646.893654147163,,,,,,,,,,,,s224_04212023,001,2023_Apr_21_1302,test_typingtask_norepeats,2020.2.10,59.96137765417639,
champ,champ,,,,,0,13,13,13,,,,,,,,1652.29402820603,None,"['c', 'h', 'a', 'm', 'p']",1,"[0.7044894839636981, 0.8003509389236569, 0.9204959799535573, 1.0004026698879898, 1.1445239279419184]",1652.29402820603,None,1652.2939645827748,1652.394099844154,,,,,,,,,,,,s224_04212023,001,2023_Apr_21_1302,test_typingtask_norepeats,2020.2.10,59.96137765417639,
buddy,buddy,,,,,0,14,14,14,,,,,,,,1657.7940564260352,None,"['b', 'u', 'd', 'd', 'y']",1,"[0.7564189089462161, 0.900423435959965, 0.9884095888119191, 1.1084644568618387, 1.16434736084193]",1657.7940564260352,None,1657.7940578826704,1657.8943599781487,,,,,,,,,,,,s224_04212023,001,2023_Apr_21_1302,test_typingtask_norepeats,2020.2.10,59.96137765417639,
theme,theme,,,,,0,15,15,15,,,,,,,,1663.294020808069,None,"['t', 'h', 'e', 'm', 'e']",1,"[0.704460543114692, 0.7684783190488815, 0.8883731719106436, 0.9923838719259948, 1.0484960658941418]",1663.294020808069,None,1663.2940177396406,1663.3941296490375,,,,,,,,,,,,s224_04212023,001,2023_Apr_21_1302,test_typingtask_norepeats,2020.2.10,59.96137765417639,
druze,druze,,,,,0,16,16,16,,,,,,,,1668.7938715040218,None,"['d', 'r', 'u', 'z', 'e']",1,"[0.8925539979245514, 1.0605607968755066, 1.1326075289398432, 1.3406153989490122, 1.53263378306292]",1668.7938715040218,None,1668.7940977076535,1668.8939374100883,,,,,,,,,,,,s224_04212023,001,2023_Apr_21_1302,test_typingtask_norepeats,2020.2.10,59.96137765417639,
pykka,pykka,,,,,0,17,17,17,,,,,,,,1674.293920319993,None,"['p', 'y', 'k', 'k', 'a']",1,"[1.1285493150353432, 1.3764712028205395, 1.8405500818043947, 1.9844806669279933, 2.09650862403214]",1674.293920319993,None,1674.2941340506543,1674.3940344660077,,,,,,,,,,,,s224_04212023,001,2023_Apr_21_1302,test_typingtask_norepeats,2020.2.10,59.96137765417639,
faqir,faqir,,,,,0,18,18,18,,,,,,,,1679.7939274020027,None,"['f', 'q', 'i', 'r']",0,"[1.0124629829078913, 1.3644846808165312, 1.7165741168428212, 2.1084727679844946]",1679.7939274020027,None,1679.7939264106565,1679.8941263139714,,,,,,,,,,,,s224_04212023,001,2023_Apr_21_1302,test_typingtask_norepeats,2020.2.10,59.96137765417639,
champ,champ,,,,,0,19,19,19,,,,,,,,1685.2939632830676,None,"['c', 'h', 'm', 'backspace']",0,"[0.8485184940509498, 0.9285407969728112, 1.152527566999197, 1.8085441829171032]",1685.2939632830676,None,1685.2940323455725,1685.3941173451021,,,,,,,,,,,,s224_04212023,001,2023_Apr_21_1302,test_typingtask_norepeats,2020.2.10,59.96137765417639,
vanru,vanru,,,,,0,20,20,20,,,,,,,,1690.7941335779615,None,"['v', 'a', 'n', 'r', 'u']",1,"[1.0603100680746138, 1.1883892249315977, 1.332390211056918, 1.5962836539838463, 1.7163396230898798]",1690.7941335779615,None,1690.7942107017618,1690.8942048009485,,,,,,,,,,,,s224_04212023,001,2023_Apr_21_1302,test_typingtask_norepeats,2020.2.10,59.96137765417639,
would,would,,,,,0,21,21,21,,,,,,,,1696.2942903840449,None,"['w', 'o', 'u', 'l', 'd']",1,"[0.8082273621112108, 0.9202300170436502, 1.0402374002151191, 1.240235745208338, 1.320226107025519]",1696.2942903840449,None,1696.2942660956644,1696.3944427119568,,,,,,,,,,,,s224_04212023,001,2023_Apr_21_1302,test_typingtask_norepeats,2020.2.10,59.96137765417639,
tithe,tithe,,,,,0,22,22,22,,,,,,,,1701.7942604359705,None,"['t', 'h']",0,"[0.8443141400348395, 1.036192563129589]",1701.7942604359705,None,1701.7943165386562,1701.8943359141704,,,,,,,,,,,,s224_04212023,001,2023_Apr_21_1302,test_typingtask_norepeats,2020.2.10,59.96137765417639,
druze,druze,,,,,0,23,23,23,,,,,,,,1707.2943364591338,None,"['d', 'r', 'u', 'z', 'e']",1,"[0.7760652059223503, 0.9441637240815908, 1.0561813348904252, 1.2081926660612226, 1.39206561492756]",1707.2943364591338,None,1707.2945153017529,1707.394387974171,,,,,,,,,,,,s224_04212023,001,2023_Apr_21_1302,test_typingtask_norepeats,2020.2.10,59.96137765417639,
lucky,lucky,,,,,0,24,24,24,,,,,,,,1712.79420922813,None,"['l', 'u', 'c', 'k', 'y']",1,"[0.7802353848237544, 0.9403014287818223, 1.0522050918079913, 1.2121900648344308, 1.236301451921463]",1712.79420922813,None,1712.7940533126705,1712.8939183170442,,,,,,,,,,,,s224_04212023,001,2023_Apr_21_1302,test_typingtask_norepeats,2020.2.10,59.96137765417639,
vodka,vodka,,,,,0,25,25,25,,,,,,,,1718.2943059799727,None,"['v', 'o', 'd', 'k', 'a']",1,"[1.0961055711377412, 1.2241756150033325, 1.384097150992602, 1.6001701971981674, 1.712127021048218]",1718.2943059799727,None,1718.2943949506619,1718.3942297210451,,,,,,,,,,,,s224_04212023,001,2023_Apr_21_1302,test_typingtask_norepeats,2020.2.10,59.96137765417639,
haole,haole,,,,,0,26,26,26,,,,,,,,1723.794222627068,None,"['h', 'a', 'o', 'l', 'e']",1,"[0.9322879759129137, 1.2362103399354964, 1.4761932499241084, 1.7642074751202017, 1.9402655689045787]",1723.794222627068,None,1723.7942056425848,1723.8940937740263,,,,,,,,,,,,s224_04212023,001,2023_Apr_21_1302,test_typingtask_norepeats,2020.2.10,59.96137765417639,
heond,heond,,,,,0,27,27,27,,,,,,,,1729.2943387499545,None,"['h', 'e', 'o', 'n', 'd']",1,"[0.816173043102026, 1.0481491240207106, 1.3521731591317803, 1.5760695589706302, 1.7121366129722446]",1729.2943387499545,None,1729.2941371906084,1729.3943763589486,,,,,,,,,,,,s224_04212023,001,2023_Apr_21_1302,test_typingtask_norepeats,2020.2.10,59.96137765417639,
about,about,,,,,0,28,28,28,,,,,,,,1734.7942600580864,None,"['a', 'b', 'o', 'u', 't']",1,"[0.6282416009344161, 0.852233693934977, 0.9402165410574526, 1.0761450019199401, 1.116224016994238]",1734.7942600580864,None,1734.7942479986698,1734.8940180551726,,,,,,,,,,,,s224_04212023,001,2023_Apr_21_1302,test_typingtask_norepeats,2020.2.10,59.96137765417639,
belly,belly,,,,,0,29,29,29,,,,,,,,1740.2940416000783,None,"['b', 'e', 'l', 'l', 'y']",1,"[0.720467085018754, 0.832469382090494, 1.024363337084651, 1.2324579381383955, 1.480473189149052]",1740.2940416000783,None,1740.294276155578,1740.3942065499723,,,,,,,,,,,,s224_04212023,001,2023_Apr_21_1302,test_typingtask_norepeats,2020.2.10,59.96137765417639,
theme,theme,,,,,0,30,30,30,,,,,,,,1745.793991863029,None,"['t', 'h', 'e', 'm', 'e']",1,"[0.8684182290453464, 0.9644053359515965, 1.0924215058330446, 1.2045310838147998, 1.2685245289467275]",1745.793991863029,None,1745.7941576776095,1745.8944350930396,,,,,,,,,,,,s224_04212023,001,2023_Apr_21_1302,test_typingtask_norepeats,2020.2.10,59.96137765417639,
cooed,cooed,,,,,0,31,31,31,,,,,,,,1751.2940716310404,None,"['c', 'o', 'o', 'e', 'd']",1,"[0.7364082150161266, 0.8403914330992848, 0.984327546088025, 1.0804225490428507, 1.2324181790463626]",1751.2940716310404,None,1751.2941484007054,1751.394227538025,,,,,,,,,,,,s224_04212023,001,2023_Apr_21_1302,test_typingtask_norepeats,2020.2.10,59.96137765417639,
edthe,edthe,,,,,0,32,32,32,,,,,,,,1756.794021951966,None,"['e', 'd', 't', 'h', 'e']",1,"[1.044445764971897, 1.236447149887681, 1.4364554800558835, 1.5324842259287834, 1.7004565228708088]",1756.794021951966,None,1756.794218577724,1756.8942835640628,,,,,,,,,,,,s224_04212023,001,2023_Apr_21_1302,test_typingtask_norepeats,2020.2.10,59.96137765417639,
zibja,zibja,,,,,0,33,33,33,,,,,,,,1762.2940248621162,None,"['z', 'i', 'b', 'j', 'a']",1,"[1.1843804931268096, 1.2724993901792914, 1.4564872721675783, 1.6004143981263041, 1.7124637891538441]",1762.2940248621162,None,1762.2941896105651,1762.3942723381333,,,,,,,,,,,,s224_04212023,001,2023_Apr_21_1302,test_typingtask_norepeats,2020.2.10,59.96137765417639,
would,would,,,,,0,34,34,34,,,,,,,,1767.794147754088,None,"['w', 'o', 'u', 'l', 'd']",1,"[0.7002445519901812, 0.7803376391530037, 0.908375115133822, 1.0922548789530993, 1.1562506291083992]",1767.794147754088,None,1767.7940305516124,1767.8939686531667,,,,,,,,,,,,s224_04212023,001,2023_Apr_21_1302,test_typingtask_norepeats,2020.2.10,59.96137765417639,
haole,haole,,,,,0,35,35,35,,,,,,,,1773.294289228972,None,"['h', 'a', 'o', 'l', 'e']",1,"[1.2961471970193088, 1.4802161240950227, 1.6481221539434046, 1.8562311651185155, 1.9521810940932482]",1773.294289228972,None,1773.294043230638,1773.3942415439524,,,,,,,,,,,,s224_04212023,001,2023_Apr_21_1302,test_typingtask_norepeats,2020.2.10,59.96137765417639,
zibja,zibja,,,,,0,36,36,36,,,,,,,,1778.7941327940207,None,"['z', 'i', 'b', 'j', 'a']",1,"[1.2203308099415153, 1.348258004989475, 1.660258511081338, 1.8123225190211087, 1.9402714110910892]",1778.7941327940207,None,1778.7940655046143,1778.8941554331686,,,,,,,,,,,,s224_04212023,001,2023_Apr_21_1302,test_typingtask_norepeats,2020.2.10,59.96137765417639,
puppy,puppy,,,,,0,37,37,37,,,,,,,,1784.2945222151466,None,"['p', 'u', 'p', 'p', 'y']",1,"[0.8079538568854332, 0.9838796989060938, 1.1280367719009519, 1.2720027570612729, 1.5838790519628674]",1784.2945222151466,None,1784.2945294306148,1784.3944583230186,,,,,,,,,,,,s224_04212023,001,2023_Apr_21_1302,test_typingtask_norepeats,2020.2.10,59.96137765417639,
edthe,edthe,,,,,0,38,38,38,,,,,,,,1789.7942214319482,None,"['e', 'd', 't', 'h', 'e']",1,"[0.8282402150798589, 1.0121954979840666, 1.196191597962752, 1.3002618439495564, 1.4121747410390526]",1789.7942214319482,None,1789.794418859575,1789.8940508840606,,,,,,,,,,,,s224_04212023,001,2023_Apr_21_1302,test_typingtask_norepeats,2020.2.10,59.96137765417639,
cheer,cheer,,,,,0,39,39,39,,,,,,,,1795.2940974039957,None,"['c', 'h', 'e', 'e', 'r']",1,"[0.6804098580032587, 0.7684095879085362, 0.8724209300708026, 1.0163870849646628, 1.1603260489646345]",1795.2940974039957,None,1795.2942109536846,1795.394644326996,,,,,,,,,,,,s224_04212023,001,2023_Apr_21_1302,test_typingtask_norepeats,2020.2.10,59.96137765417639,
kremp,kremp,,,,,0,40,40,40,,,,,,,,1800.7943799700588,None,"['k', 'r', 'e', 'm', 'p']",1,"[0.940069941105321, 1.0120314999949187, 1.1561312300618738, 1.2441133989486843, 1.4040651249233633]",1800.7943799700588,None,1800.7942099546083,1800.8941555381753,,,,,,,,,,,,s224_04212023,001,2023_Apr_21_1302,test_typingtask_norepeats,2020.2.10,59.96137765417639,
theme,theme,,,,,0,41,41,41,,,,,,,,1806.294136702083,None,"['t', 'h', 'e', 'm', 'e']",1,"[0.7123697050847113, 0.7842557551339269, 0.896274683997035, 1.0243881600908935, 1.0563917912077159]",1806.294136702083,None,1806.2942642907612,1806.3943345181178,,,,,,,,,,,,s224_04212023,001,2023_Apr_21_1302,test_typingtask_norepeats,2020.2.10,59.96137765417639,
edthe,edthe,,,,,0,42,42,42,,,,,,,,1811.794655251084,None,"['e', 'd', 't', 'h', 'e']",1,"[0.7558790810871869, 0.9158136330079287, 1.0917574940249324, 1.187833143165335, 1.275753963040188]",1811.794655251084,None,1811.794491935568,1811.8944085750263,,,,,,,,,,,,s224_04212023,001,2023_Apr_21_1302,test_typingtask_norepeats,2020.2.10,59.96137765417639,
would,would,,,,,0,43,43,43,,,,,,,,1817.2940676889848,None,"['w', 'o', 'u', 'l', 'd']",1,"[0.6324086948297918, 0.7204999658279121, 0.8484078359324485, 1.0403605259489268, 1.0884525149594992]",1817.2940676889848,None,1817.294235754572,1817.394191968022,,,,,,,,,,,,s224_04212023,001,2023_Apr_21_1302,test_typingtask_norepeats,2020.2.10,59.96137765417639,
heond,heond,,,,,0,44,44,44,,,,,,,,1822.794094860088,None,"['h', 'e', 'o', 'n', 'd']",1,"[1.044357992010191, 1.1483168001286685, 1.2683202009648085, 1.4284276620019227, 1.53239998803474]",1822.794094860088,None,1822.7941687587183,1822.8941849011462,,,,,,,,,,,,s224_04212023,001,2023_Apr_21_1302,test_typingtask_norepeats,2020.2.10,59.96137765417639,
puppy,puppy,,,,,0,45,45,45,,,,,,,,1828.2940922791604,None,"['p', 'u', 'p', 'p', 'y']",1,"[0.7124982080422342, 0.8884355549234897, 1.0324585209600627, 1.1923094228841364, 1.3763966939877719]",1828.2940922791604,None,1828.2941609926522,1828.3944026741665,,,,,,,,,,,,s224_04212023,001,2023_Apr_21_1302,test_typingtask_norepeats,2020.2.10,59.96137765417639,
therm,therm,,,,,0,46,46,46,,,,,,,,1833.7940993830562,None,"['t', 'h', 'e', 'r', 'm']",1,"[0.7643233619164675, 0.9084287639707327, 1.0603019720874727, 1.1963312500156462, 1.3003826509229839]",1833.7940993830562,None,1833.7942054116168,1833.8941517570056,,,,,,,,,,,,s224_04212023,001,2023_Apr_21_1302,test_typingtask_norepeats,2020.2.10,59.96137765417639,
cooed,cooed,,,,,0,47,47,47,,,,,,,,1839.2943026400171,None,"['c', 'o', 'e', 'e', 'd']",0,"[1.0562583007849753, 1.1442224979400635, 1.2722250749357045, 1.4082287058699876, 1.5681751538068056]",1839.2943026400171,None,1839.2942910455633,1839.3941833111458,,,,,,,,,,,,s224_04212023,001,2023_Apr_21_1302,test_typingtask_norepeats,2020.2.10,59.96137765417639,
puppy,puppy,,,,,0,48,48,48,,,,,,,,1844.7941072920803,None,"['p', 'u', 'p', 'p', 'y']",1,"[0.7483310841489583, 0.9403589460998774, 1.1084296610206366, 1.2682915690820664, 1.3483051399234682]",1844.7941072920803,None,1844.7940263236408,1844.894010826014,,,,,,,,,,,,s224_04212023,001,2023_Apr_21_1302,test_typingtask_norepeats,2020.2.10,59.96137765417639,
champ,champ,,,,,0,49,49,49,,,,,,,,1850.2943546811584,None,"['c', 'h', 'a', 'm', 'p']",1,"[0.7201499231159687, 0.8241605630610138, 0.9361174372024834, 1.040084487060085, 1.1920419360976666]",1850.2943546811584,None,1850.2941475175787,1850.3943576861639,,,,,,,,,,,,s224_04212023,001,2023_Apr_21_1302,test_typingtask_norepeats,2020.2.10,59.96137765417639,
cheer,cheer,,,,,0,50,50,50,,,,,,,,1855.7942775231786,None,"['c', 'h', 'e', 'e', 'r']",1,"[0.6761272209696472, 0.7562659338582307, 0.868115825811401, 1.0042421449907124, 1.1721831560134888]",1855.7942775231786,None,1855.794421020709,1855.894395057112,,,,,,,,,,,,s224_04212023,001,2023_Apr_21_1302,test_typingtask_norepeats,2020.2.10,59.96137765417639,
buddy,buddy,,,,,0,51,51,51,,,,,,,,1861.2942958660424,None,"['b', 'u', 'd', 'd', 'y']",1,"[0.7841055989265442, 0.9681275319308043, 1.0401767469011247, 1.1841055369004607, 1.3042229448910803]",1861.2942958660424,None,1861.2943736715708,1861.394155108137,,,,,,,,,,,,s224_04212023,001,2023_Apr_21_1302,test_typingtask_norepeats,2020.2.10,59.96137765417639,
druze,druze,,,,,0,52,52,52,,,,,,,,1866.7943864089902,None,"['d', 'r', 'u', 'z', 'e']",1,"[1.172151847044006, 1.332117365207523, 1.4520867131650448, 1.708143579075113, 1.9000090691260993]",1866.7943864089902,None,1866.794426947646,1866.8941995771602,,,,,,,,,,,,s224_04212023,001,2023_Apr_21_1302,test_typingtask_norepeats,2020.2.10,59.96137765417639,
faqir,faqir,,,,,0,53,53,53,,,,,,,,1872.2944174190052,None,"['f', 'a', 'q', 'i', 'r']",1,"[0.8480317899957299, 1.0320741990581155, 1.3839867028873414, 1.5679799208883196, 1.7280749308411032]",1872.2944174190052,None,1872.294332417706,1872.3943483929615,,,,,,,,,,,,s224_04212023,001,2023_Apr_21_1302,test_typingtask_norepeats,2020.2.10,59.96137765417639,
there,there,,,,,0,54,54,54,,,,,,,,1877.7945056420285,None,"['t', 'h', 'e', 'r', 'e']",1,"[0.8598906651604921, 0.9639738530386239, 1.0599231561645865, 1.2199696111492813, 1.347946556052193]",1877.7945056420285,None,1877.7944192516618,1877.8942600041628,,,,,,,,,,,,s224_04212023,001,2023_Apr_21_1302,test_typingtask_norepeats,2020.2.10,59.96137765417639,
zibja,zibja,,,,,0,55,55,55,,,,,,,,1883.2970497619826,None,"['z', 'i', 'b', 'j', 'a']",1,"[0.7254377598874271, 0.8854744450654835, 1.077441121917218, 1.389419242972508, 1.5254411699716002]",1883.2970497619826,None,1883.2949728137348,1883.3948299740441,,,,,,,,,,,,s224_04212023,001,2023_Apr_21_1302,test_typingtask_norepeats,2020.2.10,59.96137765417639,
therm,therm,,,,,0,56,56,56,,,,,,,,1888.8110280120745,None,"['t', 'h', 'e', 'r', 'm']",1,"[0.6915027729701251, 0.7714875270612538, 0.9074348760768771, 1.0433956780470908, 1.139400630025193]",1888.8110280120745,None,1888.8110314477701,1888.9110739219468,,,,,,,,,,,,s224_04212023,001,2023_Apr_21_1302,test_typingtask_norepeats,2020.2.10,59.96137765417639,
haole,haole,,,,,0,57,57,57,,,,,,,,1894.3108873360325,None,"['h', 'a', 'o', 'l', 'e']",1,"[0.8475652309134603, 0.9915064829401672, 1.079586847918108, 1.2476612809114158, 1.3116412009112537]",1894.3108873360325,None,1894.3107742176392,1894.4109459400643,,,,,,,,,,,,s224_04212023,001,2023_Apr_21_1302,test_typingtask_norepeats,2020.2.10,59.96137765417639,
would,would,,,,,0,58,58,58,,,,,,,,1899.8111341460608,None,"['w', 'o', 'u', 'l', 'd']",1,"[0.8833434430416673, 0.9713216989766806, 1.0833237438928336, 1.2833498490508646, 1.3393917449284345]",1899.8111341460608,None,1899.810808781581,1899.9110580780543,,,,,,,,,,,,s224_04212023,001,2023_Apr_21_1302,test_typingtask_norepeats,2020.2.10,59.96137765417639,
lucky,lucky,,,,,0,59,59,59,,,,,,,,1905.3111502011307,None,"['l', 'u', 'c', 'k', 'y']",1,"[0.7512632780708373, 0.9432514121290296, 1.063359744148329, 1.1993655320256948, 1.2792672191280872]",1905.3111502011307,None,1905.3109178096522,1905.410983886104,,,,,,,,,,,,s224_04212023,001,2023_Apr_21_1302,test_typingtask_norepeats,2020.2.10,59.96137765417639,
faqir,faqir,,,,,0,60,60,60,,,,,,,,1910.810918851057,None,"['f', 'a', 'q', 'i', 'r']",1,"[0.6674808820243925, 0.8594906867947429, 1.1555981310084462, 1.2835920858196914, 1.4115758738480508]",1910.810918851057,None,1910.8111256575678,1910.9109285939485,,,,,,,,,,,,s224_04212023,001,2023_Apr_21_1302,test_typingtask_norepeats,2020.2.10,59.96137765417639,
pykka,pykka,,,,,0,61,61,61,,,,,,,,1916.3113390060607,None,"['p', 'y', 'k', 'k', 'a']",1,"[1.0551869659684598, 1.3750835990067571, 1.671056617051363, 1.8311109161004424, 1.9590658089146018]",1916.3113390060607,None,1916.3114466206637,1916.4111169320531,,,,,,,,,,,,s224_04212023,001,2023_Apr_21_1302,test_typingtask_norepeats,2020.2.10,59.96137765417639,
cooed,cooed,,,,,0,62,62,62,,,,,,,,1921.8111438869964,None,"['c', 'o', 'o', 'e', 'd']",1,"[0.8752982870209962, 0.9873647028580308, 1.1312608169391751, 1.2672839558217674, 1.4113369749393314]",1921.8111438869964,None,1921.8111126856413,1921.9113189210184,,,,,,,,,,,,s224_04212023,001,2023_Apr_21_1302,test_typingtask_norepeats,2020.2.10,59.96137765417639,
vanru,vanru,,,,,0,63,63,63,,,,,,,,1927.3111901720986,None,"['v', 'a', 'n', 'r', 'u']",1,"[0.9511849919799715, 1.0632956780027598, 1.1913320780731738, 1.3832863541319966, 1.4553248861338943]",1927.3111901720986,None,1927.3109902777244,1927.4109768220223,,,,,,,,,,,,s224_04212023,001,2023_Apr_21_1302,test_typingtask_norepeats,2020.2.10,59.96137765417639,
there,there,,,,,0,64,64,64,,,,,,,,1932.811307806056,None,"['t', 'h', 'e', 'r', 'e']",1,"[0.6670967261306942, 0.7392536979168653, 0.859088659984991, 1.0111928100232035, 1.1551051249261945]",1932.811307806056,None,1932.811089248676,1932.911214566091,,,,,,,,,,,,s224_04212023,001,2023_Apr_21_1302,test_typingtask_norepeats,2020.2.10,59.96137765417639,
lucky,lucky,,,,,0,65,65,65,,,,,,,,1938.3111015539616,None,"['l', 'u', 'c', 'k', 'y']",1,"[0.8712873291224241, 1.103394526988268, 1.2474208150524646, 1.3593025850132108, 1.447389520937577]",1938.3111015539616,None,1938.3111354297027,1938.4113479291555,,,,,,,,,,,,s224_04212023,001,2023_Apr_21_1302,test_typingtask_norepeats,2020.2.10,59.96137765417639,
kremp,kremp,,,,,0,66,66,66,,,,,,,,1943.8108883551322,None,"['k', 'r', 'e', 'm', 'p']",1,"[1.435575342969969, 1.515615686075762, 1.6595065230503678, 1.747547758044675, 1.8996102891396731]",1943.8108883551322,None,1943.8109235265758,1943.9112169949804,,,,,,,,,,,,s224_04212023,001,2023_Apr_21_1302,test_typingtask_norepeats,2020.2.10,59.96137765417639,
therm,therm,,,,,0,67,67,67,,,,,,,,1949.3110350850038,None,"['t', 'h', 'e', 'r', 'm']",1,"[0.7354453292209655, 0.7834361640270799, 0.9194483000319451, 1.0634280811063945, 1.1194682121276855]",1949.3110350850038,None,1949.310999288736,1949.410940155154,,,,,,,,,,,,s224_04212023,001,2023_Apr_21_1302,test_typingtask_norepeats,2020.2.10,59.96137765417639,
tithe,tithe,,,,,0,68,68,68,,,,,,,,1954.810923704179,None,"['t', 'i', 't', 'h', 'e']",1,"[0.7795279948040843, 1.5794887468218803, 1.7076006908901036, 1.8195974179543555, 1.9235892079304904]",1954.810923704179,None,1954.8110679425765,1954.9112219810486,,,,,,,,,,,,s224_04212023,001,2023_Apr_21_1302,test_typingtask_norepeats,2020.2.10,59.96137765417639,
theme,theme,,,,,0,69,69,69,,,,,,,,1960.3111678550486,None,"['t', 'h', 'e', 'm', 'e']",1,"[0.7033095899969339, 0.8072355859912932, 0.90335609507747, 1.0312405000440776, 1.071353018982336]",1960.3111678550486,None,1960.3111239816528,1960.411233816063,,,,,,,,,,,,s224_04212023,001,2023_Apr_21_1302,test_typingtask_norepeats,2020.2.10,59.96137765417639,
champ,champ,,,,,0,70,70,70,,,,,,,,1965.8111540409736,None,"['c', 'h', 'a', 'm', 'p']",1,"[0.7073110919445753, 0.7553696199320257, 0.8672452259343117, 0.9633356458507478, 1.1153235449455678]",1965.8111540409736,None,1965.8110839406029,1965.911260131048,,,,,,,,,,,,s224_04212023,001,2023_Apr_21_1302,test_typingtask_norepeats,2020.2.10,59.96137765417639,
heond,heond,,,,,0,71,71,71,,,,,,,,1971.3111810069531,None,"['h', 'e', 'o', 'n', 'd']",1,"[0.8633374301716685, 1.0232723699882627, 1.103268533013761, 1.3032915671356022, 1.407283985055983]",1971.3111810069531,None,1971.3110583955888,1971.4111868219916,,,,,,,,,,,,s224_04212023,001,2023_Apr_21_1302,test_typingtask_norepeats,2020.2.10,59.96137765417639,
kremp,kremp,,,,,0,72,72,72,,,,,,,,1976.810988910962,None,"['k', 'r', 'e', 'm', 'p']",1,"[0.9235341059975326, 0.9875093540176749, 1.1314649928826839, 1.2114545449148864, 1.3715366849210113]",1976.810988910962,None,1976.8109465565533,1976.9111045130994,,,,,,,,,,,,s224_04212023,001,2023_Apr_21_1302,test_typingtask_norepeats,2020.2.10,59.96137765417639,
buddy,buddy,,,,,0,73,73,73,,,,,,,,1982.3111448360141,None,"['b', 'u', 'd', 'd', 'y']",1,"[0.695388293126598, 0.8553196489810944, 0.8873559830244631, 1.0393202400300652, 1.1512606390751898]",1982.3111448360141,None,1982.3111312676222,1982.4115079571493,,,,,,,,,,,,s224_04212023,001,2023_Apr_21_1302,test_typingtask_norepeats,2020.2.10,59.96137765417639,
belly,belly,,,,,0,74,74,74,,,,,,,,1987.8112877090462,None,"['b', 'e', 'l', 'l', 'y']",1,"[0.6752432310022414, 0.7791287929285318, 0.9391231490299106, 1.1072380598634481, 1.2352002509869635]",1987.8112877090462,None,1987.8111520687119,1987.9110891839955,,,,,,,,,,,,s224_04212023,001,2023_Apr_21_1302,test_typingtask_norepeats,2020.2.10,59.96137765417639,
vodka,vodka,,,,,0,75,75,75,,,,,,,,1993.3111455051694,None,"['v', 'o', 'd', 'k', 'a']",1,"[0.847313801990822, 0.927332263905555, 1.0633436450734735, 1.1913765440694988, 1.3272900120355189]",1993.3111455051694,None,1993.311226964742,1993.411100924015,,,,,,,,,,,,s224_04212023,001,2023_Apr_21_1302,test_typingtask_norepeats,2020.2.10,59.96137765417639,
vanru,vanru,,,,,0,76,76,76,,,,,,,,1998.8112916401587,None,"['v', 'a', 'n', 'r', 'u']",1,"[0.8752088940236717, 1.0111610610038042, 1.123107838910073, 1.2351009480189532, 1.3152151079848409]",1998.8112916401587,None,1998.8112448326312,1998.91125249397,,,,,,,,,,,,s224_04212023,001,2023_Apr_21_1302,test_typingtask_norepeats,2020.2.10,59.96137765417639,
cheer,cheer,,,,,0,77,77,77,,,,,,,,2004.3110948440153,None,"['c', 'h', 'e', 'e', 'r']",1,"[0.6954435019288212, 0.7512973248958588, 0.8793278029188514, 1.0073270159773529, 1.151301448000595]",2004.3110948440153,None,2004.3111626196653,2004.411199215101,,,,,,,,,,,,s224_04212023,001,2023_Apr_21_1302,test_typingtask_norepeats,2020.2.10,59.96137765417639,
think,think,,,,,0,78,78,78,,,,,,,,2009.8111700781155,None,"['t', 'h', 'i', 'n', 'k']",1,"[0.6912408210337162, 0.7792876090388745, 0.9153419111389667, 1.0193255601916462, 1.1392928920686245]",2009.8111700781155,None,2009.811263333587,2009.911083152052,,,,,,,,,,,,s224_04212023,001,2023_Apr_21_1302,test_typingtask_norepeats,2020.2.10,59.96137765417639,
haole,haole,,,,,0,79,79,79,,,,,,,,2015.3111995740328,None,"['h', 'a', 'o', 'l', 'e']",1,"[1.175231282133609, 1.3353122351691127, 1.4952962261158973, 1.74319021217525, 1.8713217040058225]",2015.3111995740328,None,2015.3112847747282,2015.411557632964,,,,,,,,,,,,s224_04212023,001,2023_Apr_21_1302,test_typingtask_norepeats,2020.2.10,59.96137765417639,
vodka,vodka,,,,,0,80,80,80,,,,,,,,2020.8110869280063,None,"['v', 'o', 'd', 'k', 'a']",1,"[1.1153462880756706, 1.2273086591158062, 1.3954553881194443, 1.5634666411206126, 1.6833899240009487]",2020.8110869280063,None,2020.8111340576318,2020.911400069017,,,,,,,,,,,,s224_04212023,001,2023_Apr_21_1302,test_typingtask_norepeats,2020.2.10,59.96137765417639,
would,would,,,,,0,81,81,81,,,,,,,,2026.3114055960905,None,"['w', 'o', 'u', 'l', 'd']",1,"[0.6471138470806181, 0.7270526580978185, 0.8630864080041647, 1.0631044739857316, 1.1670151569414884]",2026.3114055960905,None,2026.3114396615886,2026.411507853074,,,,,,,,,,,,s224_04212023,001,2023_Apr_21_1302,test_typingtask_norepeats,2020.2.10,59.96137765417639,
vanru,vanru,,,,,0,82,82,82,,,,,,,,2031.8110185780097,None,"['a', 'v', 'n', 'r', 'u']",0,"[0.9074072178918868, 0.9074072178918868, 1.2194999649655074, 1.3954574018716812, 1.5235143569298089]",2031.8110185780097,None,2031.8112179937773,2031.9113779549953,,,,,,,,,,,,s224_04212023,001,2023_Apr_21_1302,test_typingtask_norepeats,2020.2.10,59.96137765417639,
edthe,edthe,,,,,0,83,83,83,,,,,,,,2037.3114780460019,None,"['e', 'd', 't', 'h', 'e']",1,"[0.7349981018342078, 0.9030201740097255, 1.0949763630051166, 1.1910536009818316, 1.2950489369686693]",2037.3114780460019,None,2037.3115456747357,2037.4116208739579,,,,,,,,,,,,s224_04212023,001,2023_Apr_21_1302,test_typingtask_norepeats,2020.2.10,59.96137765417639,
vanru,vanru,,,,,0,84,84,84,,,,,,,,2042.811204791069,None,"['v', 'a', 'n', 'r', 'u']",1,"[0.787275074981153, 0.9152663629502058, 1.0512024508789182, 1.1713059039320797, 1.2592620179057121]",2042.811204791069,None,2042.8109801826533,2042.9111277260818,,,,,,,,,,,,s224_04212023,001,2023_Apr_21_1302,test_typingtask_norepeats,2020.2.10,59.96137765417639,
buddy,buddy,,,,,0,85,85,85,,,,,,,,2048.311327093048,None,"['b', 'u', 'd', 'd', 'y']",1,"[0.7510676169767976, 0.9031911140773445, 1.071073492988944, 1.2071867110207677, 1.3031878711190075]",2048.311327093048,None,2048.3111115827223,2048.411222166149,,,,,,,,,,,,s224_04212023,001,2023_Apr_21_1302,test_typingtask_norepeats,2020.2.10,59.96137765417639,
cheer,cheer,,,,,0,86,86,86,,,,,,,,2053.811422192026,None,"['c', 'h', 'e', 'e', 'r']",1,"[0.6590735090430826, 0.7310268969740719, 0.8509807931259274, 0.9950886410661042, 1.1389821900520474]",2053.811422192026,None,2053.811471261596,2053.9115906590596,,,,,,,,,,,,s224_04212023,001,2023_Apr_21_1302,test_typingtask_norepeats,2020.2.10,59.96137765417639,
about,about,,,,,0,87,87,87,,,,,,,,2059.311417190125,None,"['a', 'b', 'o', 'u', 't']",1,"[0.6309961299411952, 0.8151059739757329, 0.9190823999233544, 1.023063383065164, 1.0950601459480822]",2059.311417190125,None,2059.311603973666,2059.411503943149,,,,,,,,,,,,s224_04212023,001,2023_Apr_21_1302,test_typingtask_norepeats,2020.2.10,59.96137765417639,
think,think,,,,,0,88,88,88,,,,,,,,2064.8112673449796,None,"['t', 'h', 'i', 'n', 'k']",1,"[0.6511319300625473, 0.723186754155904, 0.8671242501586676, 0.9711270581465214, 1.0911164002027363]",2064.8112673449796,None,2064.811350760562,2064.9110840780195,,,,,,,,,,,,s224_04212023,001,2023_Apr_21_1302,test_typingtask_norepeats,2020.2.10,59.96137765417639,
pykka,pykka,,,,,0,89,89,89,,,,,,,,2070.31133565004,None,"['p', 'y', 'k', 'k', 'a']",1,"[0.8790496420115232, 1.0471471478231251, 1.2071335760410875, 1.3510603469330817, 1.4471487428527325]",2070.31133565004,None,2070.3111542477736,2070.411149610998,,,,,,,,,,,,s224_04212023,001,2023_Apr_21_1302,test_typingtask_norepeats,2020.2.10,59.96137765417639,
belly,belly,,,,,0,90,90,90,,,,,,,,2075.811249739025,None,"['b', 'e', 'l', 'l', 'y']",1,"[0.7551688069943339, 0.8832505499012768, 1.0112484809942544, 1.1552001009695232, 1.2671441019047052]",2075.811249739025,None,2075.811197367776,2075.9112562041264,,,,,,,,,,,,s224_04212023,001,2023_Apr_21_1302,test_typingtask_norepeats,2020.2.10,59.96137765417639,
lucky,lucky,,,,,0,91,91,91,,,,,,,,2081.3117645131424,None,"['l', 'u', 'c', 'k', 'y']",1,"[0.6547563339117914, 0.878686279989779, 1.0306855749804527, 1.1666347670834512, 1.262715064920485]",2081.3117645131424,None,2081.3115738677325,2081.4116780760232,,,,,,,,,,,,s224_04212023,001,2023_Apr_21_1302,test_typingtask_norepeats,2020.2.10,59.96137765417639,
cheer,cheer,,,,,0,92,92,92,,,,,,,,2086.8112354141194,None,"['c', 'h', 'e', 'e', 'r']",1,"[0.6511598620563745, 0.7551776699256152, 0.891223510960117, 1.0272024620790035, 1.1711591840721667]",2086.8112354141194,None,2086.8111520796547,2086.9113542421255,,,,,,,,,,,,s224_04212023,001,2023_Apr_21_1302,test_typingtask_norepeats,2020.2.10,59.96137765417639,
faqir,faqir,,,,,0,93,93,93,,,,,,,,2092.3117918949574,None,"['f', 'a', 'q', 'i', 'r']",1,"[0.78266930882819, 0.9425523430109024, 1.1986311108339578, 1.350558603880927, 1.5026580719277263]",2092.3117918949574,None,2092.3113057027103,2092.4112495540176,,,,,,,,,,,,s224_04212023,001,2023_Apr_21_1302,test_typingtask_norepeats,2020.2.10,59.96137765417639,
belly,belly,,,,,0,94,94,94,,,,,,,,2097.811166953994,None,"['b', 'e', 'l', 'l', 'y']",1,"[1.083301908802241, 1.5312849758192897, 1.7073066588491201, 1.891344778938219, 2.0193269059527665]",2097.811166953994,None,2097.811300770659,2097.9114417771343,,,,,,,,,,,,s224_04212023,001,2023_Apr_21_1302,test_typingtask_norepeats,2020.2.10,59.96137765417639,
think,think,,,,,0,95,95,95,,,,,,,,2103.3111970680766,None,"['t', 'h', 'i', 'n', 'k']",1,"[0.7913134431000799, 0.8873227802105248, 1.0312335300259292, 1.1512007331475616, 1.2633079050574452]",2103.3111970680766,None,2103.3112798727116,2103.4112816650886,,,,,,,,,,,,s224_04212023,001,2023_Apr_21_1302,test_typingtask_norepeats,2020.2.10,59.96137765417639,
pykka,pykka,,,,,0,96,96,96,,,,,,,,2108.811356651131,None,"['p', 'y', 'k', 'k', 'a']",1,"[1.0110881149303168, 1.2111482890322804, 1.4591272929683328, 1.6111260850448161, 1.7471319809556007]",2108.811356651131,None,2108.8112206876276,2108.911331071984,,,,,,,,,,,,s224_04212023,001,2023_Apr_21_1302,test_typingtask_norepeats,2020.2.10,59.96137765417639,
puppy,puppy,,,,,0,97,97,97,,,,,,,,2114.31127388007,None,"['p', 'u', 'p', 'p', 'y']",1,"[1.0952260808553547, 1.383257295936346, 1.695215645013377, 1.8872418829705566, 2.119219349930063]",2114.31127388007,None,2114.3111818565985,2114.4115337550174,,,,,,,,,,,,s224_04212023,001,2023_Apr_21_1302,test_typingtask_norepeats,2020.2.10,59.96137765417639,
think,think,,,,,0,98,98,98,,,,,,,,2119.811199042015,None,"['t', 'h', 'i', 'n', 'k']",1,"[1.46719553694129, 1.5152134969830513, 1.6512060479726642, 1.747251459164545, 1.8432102091610432]",2119.811199042015,None,2119.8111414846962,2119.911370628979,,,,,,,,,,,,s224_04212023,001,2023_Apr_21_1302,test_typingtask_norepeats,2020.2.10,59.96137765417639,
heond,heond,,,,,0,99,99,99,,,,,,,,2125.31137570017,None,"['h', 'e', 'o', 'n', 'd']",1,"[0.8711386078502983, 0.9991374788805842, 1.0870960529427975, 1.2790377310011536, 1.3991337560582906]",2125.31137570017,None,2125.3112133176064,2125.4111872210633,,,,,,,,,,,,s224_04212023,001,2023_Apr_21_1302,test_typingtask_norepeats,2020.2.10,59.96137765417639,
therm,therm,,,,,0,100,100,100,,,,,,,,2130.8113175251056,None,"['t', 'h', 'e', 'r', 'm']",1,"[0.6671144971624017, 0.7311100380029529, 0.8510891869664192, 0.9951919270679355, 1.0670750471763313]",2130.8113175251056,None,2130.8112490457015,2130.911238973029,,,,,,,,,,,,s224_04212023,001,2023_Apr_21_1302,test_typingtask_norepeats,2020.2.10,59.96137765417639,
about,about,,,,,0,101,101,101,,,,,,,,2136.3113134121522,None,"['a', 'b', 'o', 'u', 't']",1,"[0.615200205007568, 0.7991939519997686, 0.8631880518514663, 0.9750735680572689, 1.031089355936274]",2136.3113134121522,None,2136.311408632714,2136.411169734085,,,,,,,,,,,,s224_04212023,001,2023_Apr_21_1302,test_typingtask_norepeats,2020.2.10,59.96137765417639,
tithe,tithe,,,,,0,102,102,102,,,,,,,,2141.8114672929514,None,"['t', 'i', 't', 'h', 'e']",1,"[0.8509398801252246, 1.8830335410311818, 2.14702546200715, 2.3150040470063686, 2.4750675880350173]",2141.8114672929514,None,2141.811501662759,2141.911610777024,,,,,,,,,,,,s224_04212023,001,2023_Apr_21_1302,test_typingtask_norepeats,2020.2.10,59.96137765417639,
druze,druze,,,,,0,103,103,103,,,,,,,,2147.3112656059675,None,"['d', 'r', 'u', 'z', 'e']",1,"[0.727130571147427, 0.8632242120802402, 0.9351803241297603, 1.103189186193049, 1.2552420450374484]",2147.3112656059675,None,2147.3112987105733,2147.4113430459984,,,,,,,,,,,,s224_04212023,001,2023_Apr_21_1302,test_typingtask_norepeats,2020.2.10,59.96137765417639,
edthe,edthe,,,,,0,104,104,104,,,,,,,,2152.8117986409925,None,"['e', 'd', 't', 'h', 'e']",1,"[0.6986510739661753, 0.8906740280799568, 1.0586705461610109, 1.1306427060626447, 1.2505915211513638]",2152.8117986409925,None,2152.8117261706384,2152.911776516121,,,,,,,,,,,,s224_04212023,001,2023_Apr_21_1302,test_typingtask_norepeats,2020.2.10,59.96137765417639,
vodka,vodka,,,,,0,105,105,105,,,,,,,,2158.3113444990013,None,"['v', 'o', 'd', 'k', 'a']",1,"[0.8631685490254313, 0.9510543178766966, 1.0631548559758812, 1.2951454978901893, 1.4471354349516332]",2158.3113444990013,None,2158.3115527166983,2158.4113668191712,,,,,,,,,,,,s224_04212023,001,2023_Apr_21_1302,test_typingtask_norepeats,2020.2.10,59.96137765417639,
zibja,zibja,,,,,0,106,106,106,,,,,,,,2163.81131810206,None,"['a', 'i', 'b', 'j', 'k', 'a']",0,"[0.827112081926316, 0.9230873838532716, 1.1071455818600953, 1.307163619901985, 1.3151633888483047, 1.435227612964809]",2163.81131810206,None,2163.8113855466245,2163.911596317077,,,,,,,,,,,,s224_04212023,001,2023_Apr_21_1302,test_typingtask_norepeats,2020.2.10,59.96137765417639,
vodka,vodka,,,,,0,107,107,107,,,,,,,,2169.3112259509508,None,"['v', 'o', 'd', 'k', 'a']",1,"[1.4711922609712929, 1.5511687719263136, 1.8712617070414126, 1.9752832578960806, 2.1032801799010485]",2169.3112259509508,None,2169.3113213927018,2169.411308932118,,,,,,,,,,,,s224_04212023,001,2023_Apr_21_1302,test_typingtask_norepeats,2020.2.10,59.96137765417639,
there,there,,,,,0,108,108,108,,,,,,,,2174.8112921051215,None,"['t', 'h', 'e', 'r', 'e']",1,"[0.6992218720261008, 0.7711219699122012, 0.8831853030715138, 1.0351814171299338, 1.1632611099630594]",2174.8112921051215,None,2174.8113820176104,2174.91152243712,,,,,,,,,,,,s224_04212023,001,2023_Apr_21_1302,test_typingtask_norepeats,2020.2.10,59.96137765417639,
puppy,puppy,,,,,0,109,109,109,,,,,,,,2180.3112885640003,None,"['p', 'u', 'p', 'p', 'y']",1,"[1.1031864369288087, 1.3431182049680501, 1.5752447959966958, 1.7352261040359735, 1.9352057499345392]",2180.3112885640003,None,2180.3113680796696,2180.411460740026,,,,,,,,,,,,s224_04212023,001,2023_Apr_21_1302,test_typingtask_norepeats,2020.2.10,59.96137765417639,
belly,belly,,,,,0,110,110,110,,,,,,,,2185.811319152126,None,"['b', 'e', 'l', 'l', 'y']",1,"[1.0032035619951785, 1.2031984589993954, 1.3311207660008222, 1.56316251703538, 1.6831932659260929]",2185.811319152126,None,2185.811239653779,2185.911331996089,,,,,,,,,,,,s224_04212023,001,2023_Apr_21_1302,test_typingtask_norepeats,2020.2.10,59.96137765417639,
kremp,kremp,,,,,0,111,111,111,,,,,,,,2191.31148730102,None,"['k', 'r', 'e', 'm', 'p']",1,"[0.7750475821085274, 0.8630935160908848, 1.015020202146843, 1.2070216061547399, 1.3509192899800837]",2191.31148730102,None,2191.3112211307043,2191.411353843985,,,,,,,,,,,,s224_04212023,001,2023_Apr_21_1302,test_typingtask_norepeats,2020.2.10,59.96137765417639,
there,there,,,,,0,112,112,112,,,,,,,,2196.8114608849864,None,"['t', 'h', 'e', 'r', 'e']",1,"[0.7470307720359415, 0.8350094661582261, 0.9309803710784763, 1.083018576959148, 1.2190500400029123]",2196.8114608849864,None,2196.811398812616,2196.9114970930386,,,,,,,,,,,,s224_04212023,001,2023_Apr_21_1302,test_typingtask_norepeats,2020.2.10,59.96137765417639,
druze,druze,,,,,0,113,113,113,,,,,,,,2202.311694212025,None,"['d', 'r', 'u', 'z', 'e']",1,"[0.6787295788526535, 0.8387692328542471, 0.926707228878513, 1.0708091808483005, 1.1988139059394598]",2202.311694212025,None,2202.311780479783,2202.4116332021076,,,,,,,,,,,,s224_04212023,001,2023_Apr_21_1302,test_typingtask_norepeats,2020.2.10,59.96137765417639,
therm,therm,,,,,0,114,114,114,,,,,,,,2207.8117439160123,None,"['t', 'h', 'e', 'r', 'm']",1,"[0.6266486020758748, 0.6987141380086541, 0.8187501451466233, 0.9706681941170245, 1.0827618511393666]",2207.8117439160123,None,2207.8117552036883,2207.9120705679525,,,,,,,,,,,,s224_04212023,001,2023_Apr_21_1302,test_typingtask_norepeats,2020.2.10,59.96137765417639,
faqir,faqir,,,,,0,115,115,115,,,,,,,,2213.3119544440415,None,"['f', 'a', 'q', 'i', 'r']",1,"[0.6545710200443864, 0.8225306360982358, 1.0784328570589423, 1.1825305600650609, 1.3025447770487517]",2213.3119544440415,None,2213.311594208749,2213.4116517731454,,,,,,,,,,,,s224_04212023,001,2023_Apr_21_1302,test_typingtask_norepeats,2020.2.10,59.96137765417639,
buddy,buddy,,,,,0,116,116,116,,,,,,,,2218.811616410967,None,"['b', 'u', 'd', 'd', 'y']",1,"[0.7307930269744247, 0.8828909120056778, 1.0427943591494113, 1.162812712136656, 1.2267930191010237]",2218.811616410967,None,2218.811598474672,2218.911550872028,,,,,,,,,,,,s224_04212023,001,2023_Apr_21_1302,test_typingtask_norepeats,2020.2.10,59.96137765417639,
zibja,zibja,,,,,0,117,117,117,,,,,,,,2224.3114759940654,None,"['z', 'i', 'b', 'j', 'a']",1,"[1.1668985201977193, 1.2630955029744655, 1.6150240721181035, 1.8309205980040133, 1.9509273180738091]",2224.3114759940654,None,2224.3115529087836,2224.4114859970286,,,,,,,,,,,,s224_04212023,001,2023_Apr_21_1302,test_typingtask_norepeats,2020.2.10,59.96137765417639,
pykka,pykka,,,,,0,118,118,118,,,,,,,,2229.811517786002,None,"['p', 'y', 'k', 'k', 'a']",1,"[1.6349750449880958, 2.0909993699751794, 2.3469686419703066, 2.5549099619966, 2.682989224093035]",2229.811517786002,None,2229.811649931641,2229.911428045016,,,,,,,,,,,,s224_04212023,001,2023_Apr_21_1302,test_typingtask_norepeats,2020.2.10,59.96137765417639,
cooed,cooed,,,,,0,119,119,119,,,,,,,,2235.3117007180117,None,"['c', 'o', 'o', 'e', 'd']",1,"[0.9427092759869993, 1.510828749043867, 1.7187712739687413, 2.0147009259089828, 2.2228090409189463]",2235.3117007180117,None,2235.311872413661,2235.4118457981385,,,,,,,,,,,,s224_04212023,001,2023_Apr_21_1302,test_typingtask_norepeats,2020.2.10,59.96137765417639,
cooed,cooed,,,,,,,,,0,0,0,0,,,,,,,,,,,,,2240.811703979969,None,2283.601139958948,None,"['c', 'o', 'o', 'e', 'd']",1,"[1.093372476985678, 1.2613089720252901, 1.4133725469000638, 1.5252732699736953, 1.6772617769893259]",2283.601139958948,None,2283.5954355507156,2283.6951659431215,s224_04212023,001,2023_Apr_21_1302,test_typingtask_norepeats,2020.2.10,59.96137765417639,
champ,champ,,,,,,,,,0,1,1,1,,,,,,,,,,,,,,,2289.1116056821775,None,"['c', 'h', 'a', 'm', 'p']",1,"[0.710874536074698, 0.7989044489804655, 0.8949006660841405, 1.0148038470651954, 1.1748639149591327]",2289.1116056821775,None,2289.1114583886692,2289.2115755591076,s224_04212023,001,2023_Apr_21_1302,test_typingtask_norepeats,2020.2.10,59.96137765417639,
zibja,zibja,,,,,,,,,0,2,2,2,,,,,,,,,,,,,,,2294.611769251991,None,"['z', 'i', 'b', 'j', 'a']",1,"[0.8107807710766792, 0.9467419239226729, 1.2346594100818038, 1.6346678230911493, 1.7386581629980356]",2294.611769251991,None,2294.6115696507504,2294.7118174550124,s224_04212023,001,2023_Apr_21_1302,test_typingtask_norepeats,2020.2.10,59.96137765417639,
druze,druze,,,,,,,,,0,3,3,3,,,,,,,,,,,,,,,2300.111574779032,None,"['d', 'r', 'u', 'z', 'e']",1,"[1.3268586748745292, 1.574934622971341, 1.7508300100453198, 2.014897096902132, 2.294957486912608]",2300.111574779032,None,2300.1115951836573,2300.2114957040176,s224_04212023,001,2023_Apr_21_1302,test_typingtask_norepeats,2020.2.10,59.96137765417639,
belly,belly,,,,,,,,,0,4,4,4,,,,,,,,,,,,,,,2305.6116282700095,None,"['b', 'e', 'l', 'l', 'y']",1,"[1.0907309260219336, 1.4987719180062413, 1.7947930700611323, 2.0028127799741924, 2.194794154027477]",2305.6116282700095,None,2305.6116983346174,2305.711434961995,s224_04212023,001,2023_Apr_21_1302,test_typingtask_norepeats,2020.2.10,59.96137765417639,
tithe,tithe,,,,,,,,,0,5,5,5,,,,,,,,,,,,,,,2311.1116288760677,None,"['t', 'i', 't', 'h', 'e']",1,"[1.1108274911530316, 1.2708574801217765, 1.7188829721417278, 1.9268000579904765, 2.046827299054712]",2311.1116288760677,None,2311.111653608782,2311.2115625441074,s224_04212023,001,2023_Apr_21_1302,test_typingtask_norepeats,2020.2.10,59.96137765417639,
there,there,,,,,,,,,0,6,6,6,,,,,,,,,,,,,,,2316.6115863870364,None,"['t', 'h', 'e', 'r', 'e']",1,"[0.6908350049052387, 0.7548156299162656, 0.8668075199238956, 1.0188745460473, 1.1628569860477]",2316.6115863870364,None,2316.6116472527383,2316.7117628850974,s224_04212023,001,2023_Apr_21_1302,test_typingtask_norepeats,2020.2.10,59.96137765417639,
vodka,vodka,,,,,,,,,0,7,7,7,,,,,,,,,,,,,,,2322.112017069012,None,"['v', 'o', 'd', 'k', 'a']",1,"[0.7904961730819196, 0.9024488190189004, 1.0224480780307204, 1.1583701779600233, 1.2544844229705632]",2322.112017069012,None,2322.111626430694,2322.211610858096,s224_04212023,001,2023_Apr_21_1302,test_typingtask_norepeats,2020.2.10,59.96137765417639,
belly,belly,,,,,,,,,0,8,8,8,,,,,,,,,,,,,,,2327.6121642440557,None,"['b', 'e', 'l', 'l', 'y']",1,"[0.7863653670065105, 0.9142438829876482, 1.0422403879929334, 1.1943216719664633, 1.2903225310146809]",2327.6121642440557,None,2327.6118995675815,2327.711991938064,s224_04212023,001,2023_Apr_21_1302,test_typingtask_norepeats,2020.2.10,59.96137765417639,
faqir,faqir,,,,,,,,,0,9,9,9,,,,,,,,,,,,,,,2333.1116777821444,None,"['f', 'a', 'q', 'i', 'r']",1,"[1.0227667270228267, 1.2388445839751512, 1.4547281910199672, 1.542729307198897, 1.678798042004928]",2333.1116777821444,None,2333.1116201356517,2333.2115969990846,s224_04212023,001,2023_Apr_21_1302,test_typingtask_norepeats,2020.2.10,59.96137765417639,
druze,druze,,,,,,,,,0,10,10,10,,,,,,,,,,,,,,,2338.611498091137,None,"['d', 'r', 'u', 'z', 'e']",1,"[0.8589784780051559, 1.1469864111859351, 1.4509051411878318, 1.650911003118381, 2.018999793101102]",2338.611498091137,None,2338.611708406638,2338.7116966859903,s224_04212023,001,2023_Apr_21_1302,test_typingtask_norepeats,2020.2.10,59.96137765417639,
buddy,buddy,,,,,,,,,0,11,11,11,,,,,,,,,,,,,,,2344.111680872971,None,"['b', 'u', 'd', 'd', 'y']",1,"[0.7988314121030271, 0.9267543370369822, 1.038843991002068, 1.158772719092667, 1.2228556380141526]",2344.111680872971,None,2344.1115960826164,2344.2116085791495,s224_04212023,001,2023_Apr_21_1302,test_typingtask_norepeats,2020.2.10,59.96137765417639,
champ,champ,,,,,,,,,0,12,12,12,,,,,,,,,,,,,,,2349.6114172511734,None,"['c', 'h', 'a', 'm', 'p']",1,"[0.7310574850998819, 0.7549959700554609, 0.8670692550949752, 0.9630278891418129, 1.123086913023144]",2349.6114172511734,None,2349.611552044563,2349.711699294159,s224_04212023,001,2023_Apr_21_1302,test_typingtask_norepeats,2020.2.10,59.96137765417639,
lucky,lucky,,,,,,,,,0,13,13,13,,,,,,,,,,,,,,,2355.1115261691157,None,"['l', 'u', 'c', 'k', 'y']",1,"[0.750869092065841, 0.9428844500798732, 1.0469631121959537, 1.174984886078164, 1.2628913770895451]",2355.1115261691157,None,2355.1115472526753,2355.211624215124,s224_04212023,001,2023_Apr_21_1302,test_typingtask_norepeats,2020.2.10,59.96137765417639,
about,about,,,,,,,,,0,14,14,14,,,,,,,,,,,,,,,2360.611740817083,None,"['a', 'b', 'o', 'u', 't']",1,"[0.6187691090162843, 0.8027175518218428, 0.8506618689280003, 0.9867761200293899, 1.0348130099009722]",2360.611740817083,None,2360.61141049657,2360.7116649651434,s224_04212023,001,2023_Apr_21_1302,test_typingtask_norepeats,2020.2.10,59.96137765417639,
would,would,,,,,,,,,0,15,15,15,,,,,,,,,,,,,,,2366.1118624170776,None,"['w', 'o', 'u', 'l', 'd']",1,"[0.854660461191088, 0.9666543200146407, 1.0946412130724639, 1.286606365116313, 1.3666528901085258]",2366.1118624170776,None,2366.111874816753,2366.2120241790544,s224_04212023,001,2023_Apr_21_1302,test_typingtask_norepeats,2020.2.10,59.96137765417639,
heond,heond,,,,,,,,,0,16,16,16,,,,,,,,,,,,,,,2371.611725540133,None,"['h', 'e', 'o', 'n', 'd']",1,"[1.9868088457733393, 2.2027890509925783, 2.322676580864936, 2.4907399609219283, 2.5947699567768723]",2371.611725540133,None,2371.6117165645583,2371.711543224985,s224_04212023,001,2023_Apr_21_1302,test_typingtask_norepeats,2020.2.10,59.96137765417639,
cooed,cooed,,,,,,,,,0,17,17,17,,,,,,,,,,,,,,,2377.1116673049983,None,"['c', 'o', 'o', 'e', 'd']",1,"[0.838805889012292, 0.9107699061278254, 1.0788400880992413, 1.182825184194371, 1.3427286301739514]",2377.1116673049983,None,2377.112289372645,2377.2115189970937,s224_04212023,001,2023_Apr_21_1302,test_typingtask_norepeats,2020.2.10,59.96137765417639,
edthe,edthe,,,,,,,,,0,18,18,18,,,,,,,,,,,,,,,2382.611935266992,None,"['e', 'd', 't', 'h', 'e']",1,"[0.6904579610563815, 0.8345305339898914, 1.0345756269525737, 1.0745948001276702, 1.218519750982523]",2382.611935266992,None,2382.611712826695,2382.7115681420546,s224_04212023,001,2023_Apr_21_1302,test_typingtask_norepeats,2020.2.10,59.96137765417639,
theme,theme,,,,,,,,,0,19,19,19,,,,,,,,,,,,,,,2388.112770019099,None,"['t', 'h', 'e', 'm', 'e']",1,"[0.63762380881235, 0.6937304779421538, 0.8136760958004743, 0.9416378559544683, 0.9657559730112553]",2388.112770019099,None,2388.1121759845873,2388.211762706982,s224_04212023,001,2023_Apr_21_1302,test_typingtask_norepeats,2020.2.10,59.96137765417639,
about,about,,,,,,,,,0,20,20,20,,,,,,,,,,,,,,,2393.611627550097,None,"['a', 'b', 'o', 'u', 't']",1,"[0.6267859239596874, 0.7948680319823325, 0.8749079790432006, 0.9869012699928135, 1.026764641981572]",2393.611627550097,None,2393.6117606496437,2393.7117584801745,s224_04212023,001,2023_Apr_21_1302,test_typingtask_norepeats,2020.2.10,59.96137765417639,
cheer,cheer,,,,,,,,,0,21,21,21,,,,,,,,,,,,,,,2399.1119213851634,None,"['c', 'h', 'e', 'e', 'r']",1,"[0.622590065933764, 0.718552959850058, 0.8225314938463271, 0.9504681678954512, 1.0946001869160682]",2399.1119213851634,None,2399.111843967624,2399.2119198059663,s224_04212023,001,2023_Apr_21_1302,test_typingtask_norepeats,2020.2.10,59.96137765417639,
there,there,,,,,,,,,0,22,22,22,,,,,,,,,,,,,,,2404.6116237479728,None,"['t', 'h', 'e', 'r', 'e']",1,"[0.6028860991355032, 0.6427796189673245, 0.7707616961561143, 0.9148702451493591, 1.0507709241937846]",2404.6116237479728,None,2404.6116561815606,2404.7119227009825,s224_04212023,001,2023_Apr_21_1302,test_typingtask_norepeats,2020.2.10,59.96137765417639,
belly,belly,,,,,,,,,0,23,23,23,,,,,,,,,,,,,,,2410.1120444100816,None,"['b', 'e', 'l', 'y']",0,"[0.7024668799713254, 0.8143664300441742, 1.134396631969139, 1.2864418081007898]",2410.1120444100816,None,2410.112106112577,2410.2118517151102,s224_04212023,001,2023_Apr_21_1302,test_typingtask_norepeats,2020.2.10,59.96137765417639,
lucky,lucky,,,,,,,,,0,24,24,24,,,,,,,,,,,,,,,2415.6115909400396,None,"['l', 'u', 'c', 'k', 'y']",1,"[0.794901774963364, 0.9628611688967794, 1.0590097878593951, 1.1789454398676753, 1.2588888378813863]",2415.6115909400396,None,2415.611752321757,2415.711856110953,s224_04212023,001,2023_Apr_21_1302,test_typingtask_norepeats,2020.2.10,59.96137765417639,
champ,champ,,,,,,,,,0,25,25,25,,,,,,,,,,,,,,,2421.1116621079855,None,"['c', 'h', 'a', 'm', 'p']",1,"[0.6788672229740769, 0.7507244721055031, 0.870848850114271, 1.0147805151063949, 1.246860405197367]",2421.1116621079855,None,2421.1119502797255,2421.2117472221144,s224_04212023,001,2023_Apr_21_1302,test_typingtask_norepeats,2020.2.10,59.96137765417639,
therm,therm,,,,,,,,,0,26,26,26,,,,,,,,,,,,,,,2426.611816120101,None,"['t', 'h', 'e', 'r', 'm']",1,"[0.770669732009992, 0.8505873400717974, 0.9866656721569598, 1.1466598841361701, 1.2026810990646482]",2426.611816120101,None,2426.6116864765527,2426.7116803471,s224_04212023,001,2023_Apr_21_1302,test_typingtask_norepeats,2020.2.10,59.96137765417639,
there,there,,,,,,,,,0,27,27,27,,,,,,,,,,,,,,,2432.111718661152,None,"['t', 'h', 'e', 'r', 'w', 'e']",0,"[1.6307562950532883, 1.7827973291277885, 1.8626987040042877, 2.04679290112108, 2.1907222950831056, 2.1907222950831056]",2432.111718661152,None,2432.1116870847063,2432.21182512003,s224_04212023,001,2023_Apr_21_1302,test_typingtask_norepeats,2020.2.10,59.96137765417639,
zibja,zibja,,,,,,,,,0,28,28,28,,,,,,,,,,,,,,,2437.6119125310797,None,"['z', 'i', 'b', 'j', 'a']",1,"[0.8906040070578456, 1.0264882629271597, 1.4344934208784252, 1.6985622539650649, 1.794588069897145]",2437.6119125310797,None,2437.611651997594,2437.711916203145,s224_04212023,001,2023_Apr_21_1302,test_typingtask_norepeats,2020.2.10,59.96137765417639,
pykka,pykka,,,,,,,,,0,29,29,29,,,,,,,,,,,,,,,2443.12819762202,None,"['p', 'y', 'k', 'k', 'a']",1,"[0.8542622660752386, 1.0222332901321352, 1.1582625519949943, 1.3101993759628385, 1.3743236721493304]",2443.12819762202,None,2443.1283485906197,2443.228044467047,s224_04212023,001,2023_Apr_21_1302,test_typingtask_norepeats,2020.2.10,59.96137765417639,
tithe,tithe,,,,,,,,,0,30,30,30,,,,,,,,,,,,,,,2448.628430814948,None,"['t', 'i', 't', 'h', 'e']",1,"[1.2020331411622465, 1.4500466149765998, 1.6420279829762876, 1.8660486740991473, 1.970056176185608]",2448.628430814948,None,2448.6283150227273,2448.7284835311584,s224_04212023,001,2023_Apr_21_1302,test_typingtask_norepeats,2020.2.10,59.96137765417639,
heond,heond,,,,,,,,,0,31,31,31,,,,,,,,,,,,,,,2454.1285296150018,None,"['h', 'e', 'o', 'n', 'd']",1,"[1.2139027460943907, 1.3979204760398716, 1.541956084081903, 1.8219437829684466, 1.9579788260161877]",2454.1285296150018,None,2454.1285274096763,2454.2284952979535,s224_04212023,001,2023_Apr_21_1302,test_typingtask_norepeats,2020.2.10,59.96137765417639,
belly,belly,,,,,,,,,0,32,32,32,,,,,,,,,,,,,,,2459.628308359999,None,"['b', 'e', 'l', 'l', 'y']",1,"[0.7381406589411199, 0.8582049820106477, 0.9701866200193763, 1.1302056161221117, 1.2341469780076295]",2459.628308359999,None,2459.6284666816236,2459.728397722123,s224_04212023,001,2023_Apr_21_1302,test_typingtask_norepeats,2020.2.10,59.96137765417639,
cheer,cheer,,,,,,,,,0,33,33,33,,,,,,,,,,,,,,,2465.1282905519474,None,"['c', 'h', 'e', 'e', 'r']",1,"[0.6701908418908715, 0.766220852965489, 1.1502113488968462, 1.390230811899528, 1.6142108428757638]",2465.1282905519474,None,2465.1284487885887,2465.2284593840595,s224_04212023,001,2023_Apr_21_1302,test_typingtask_norepeats,2020.2.10,59.96137765417639,
druze,druze,,,,,,,,,0,34,34,34,,,,,,,,,,,,,,,2470.6288291420788,None,"['d', 'r', 'u', 'z', 'e']",1,"[0.6976235487964004, 0.8896868908777833, 0.9696900718845427, 1.121646729996428, 1.2736959108151495]",2470.6288291420788,None,2470.6288870235903,2470.7289882600307,s224_04212023,001,2023_Apr_21_1302,test_typingtask_norepeats,2020.2.10,59.96137765417639,
tithe,tithe,,,,,,,,,0,35,35,35,,,,,,,,,,,,,,,2476.1283749921713,None,"['t', 'i', 't', 'h', 'e']",1,"[0.7740913729649037, 0.9340241069439799, 1.0701156330760568, 1.2460360201075673, 1.3741200030781329]",2476.1283749921713,None,2476.1285304585936,2476.2284162610304,s224_04212023,001,2023_Apr_21_1302,test_typingtask_norepeats,2020.2.10,59.96137765417639,
druze,druze,,,,,,,,,0,36,36,36,,,,,,,,,,,,,,,2481.6287343569566,None,"['d', 'r', 'u', 'z', 'e']",1,"[0.9056560751050711, 1.0817119949497283, 1.1297050858847797, 1.3137822120916098, 1.4417768879793584]",2481.6287343569566,None,2481.6286128077654,2481.7288046411704,s224_04212023,001,2023_Apr_21_1302,test_typingtask_norepeats,2020.2.10,59.96137765417639,
cooed,cooed,,,,,,,,,0,37,37,37,,,,,,,,,,,,,,,2487.1284648901783,None,"['c', 'o', 'o', 'e', 'd']",1,"[0.6540453531779349, 0.7820051540620625, 0.9259585100226104, 1.0220133361872286, 1.1740083121694624]",2487.1284648901783,None,2487.1283407877663,2487.228601866169,s224_04212023,001,2023_Apr_21_1302,test_typingtask_norepeats,2020.2.10,59.96137765417639,
heond,heond,,,,,,,,,0,38,38,38,,,,,,,,,,,,,,,2492.628617966082,None,"['h', 'o', 'e', 'n', 'd']",0,"[1.0978119671344757, 1.5219047209247947, 1.6658940841443837, 1.8177844749297947, 1.9298244691453874]",2492.628617966082,None,2492.628462111624,2492.7288808270823,s224_04212023,001,2023_Apr_21_1302,test_typingtask_norepeats,2020.2.10,59.96137765417639,
would,would,,,,,,,,,0,39,39,39,,,,,,,,,,,,,,,2498.1286844629794,None,"['w', 'o', 'u', 'l', 'd']",1,"[0.9977859100326896, 1.0698337478097528, 1.1977381890174001, 1.37384077697061, 1.4298033360391855]",2498.1286844629794,None,2498.12857837677,2498.228350938065,s224_04212023,001,2023_Apr_21_1302,test_typingtask_norepeats,2020.2.10,59.96137765417639,
haole,haole,,,,,,,,,0,40,40,40,,,,,,,,,,,,,,,2503.6284144141246,None,"['h', 'a', 'o', 'l', 'e']",1,"[1.6421426171436906, 1.866090509109199, 1.9939816121477634, 2.1861000841017812, 2.2660770029760897]",2503.6284144141246,None,2503.6286615387535,2503.7289592770394,s224_04212023,001,2023_Apr_21_1302,test_typingtask_norepeats,2020.2.10,59.96137765417639,
belly,belly,,,,,,,,,0,41,41,41,,,,,,,,,,,,,,,2509.1285054921173,None,"['b', 'e', 'l', 'l', 'y']",1,"[0.6619946968276054, 0.7819410900119692, 0.9178976989351213, 1.0700208710040897, 1.1578968798276037]",2509.1285054921173,None,2509.1287219266405,2509.2285174541175,s224_04212023,001,2023_Apr_21_1302,test_typingtask_norepeats,2020.2.10,59.96137765417639,
edthe,edthe,,,,,,,,,0,42,42,42,,,,,,,,,,,,,,,2514.6286773979664,None,"['e', 'd', 't', 'h', 'e']",1,"[0.6897855689749122, 0.8737244950607419, 1.049826507922262, 1.1377086949069053, 1.2337133360560983]",2514.6286773979664,None,2514.628416686598,2514.7283928010147,s224_04212023,001,2023_Apr_21_1302,test_typingtask_norepeats,2020.2.10,59.96137765417639,
lucky,lucky,,,,,,,,,0,43,43,43,,,,,,,,,,,,,,,2520.128518325044,None,"['l', 'u', 'c', 'k', 'y']",1,"[0.685947691090405, 0.8779420210048556, 0.9979189659934491, 1.1178551600314677, 1.2139145280234516]",2520.128518325044,None,2520.128545469651,2520.228773182025,s224_04212023,001,2023_Apr_21_1302,test_typingtask_norepeats,2020.2.10,59.96137765417639,
cheer,cheer,,,,,,,,,0,44,44,44,,,,,,,,,,,,,,,2525.6286524990574,None,"['c', 'h', 'e', 'e', 'r']",1,"[0.7057577399536967, 0.7698785080574453, 0.8818589779548347, 1.0177490189671516, 1.1698702310677618]",2525.6286524990574,None,2525.6293438687453,2525.728960296139,s224_04212023,001,2023_Apr_21_1302,test_typingtask_norepeats,2020.2.10,59.96137765417639,
about,about,,,,,,,,,0,45,45,45,,,,,,,,,,,,,,,2531.1288022100925,None,"['a', 'b', 'o', 'u', 't']",1,"[0.5976492881309241, 0.781702937092632, 0.8777025809977204, 0.9737123420927674, 1.0296447109431028]",2531.1288022100925,None,2531.128964453749,2531.228848536033,s224_04212023,001,2023_Apr_21_1302,test_typingtask_norepeats,2020.2.10,59.96137765417639,
would,would,,,,,,,,,0,46,46,46,,,,,,,,,,,,,,,2536.628507652087,None,"['w', 'o', 'u', 'l', 'd']",1,"[0.7540141609497368, 0.8979759849607944, 1.03389479406178, 1.2259108040016145, 1.3380053690634668]",2536.628507652087,None,2536.6284848207606,2536.7285509579815,s224_04212023,001,2023_Apr_21_1302,test_typingtask_norepeats,2020.2.10,59.96137765417639,
haole,haole,,,,,,,,,0,47,47,47,,,,,,,,,,,,,,,2542.128399665002,None,"['h', 'a', 'o', 'l', 'e']",1,"[1.0061164700891823, 1.142005308996886, 1.2540958479512483, 1.4460165880154818, 2.2460162669885904]",2542.128399665002,None,2542.1284962837117,2542.2284122861456,s224_04212023,001,2023_Apr_21_1302,test_typingtask_norepeats,2020.2.10,59.96137765417639,
kremp,kremp,,,,,,,,,0,48,48,48,,,,,,,,,,,,,,,2547.6284533941653,None,"['k', 'r', 'e', 'm', 'p']",1,"[0.9621142109390348, 1.0179502770770341, 1.1700185099616647, 1.2261125911027193, 1.39400212909095]",2547.6284533941653,None,2547.6286539016755,2547.728581586154,s224_04212023,001,2023_Apr_21_1302,test_typingtask_norepeats,2020.2.10,59.96137765417639,
therm,therm,,,,,,,,,0,49,49,49,,,,,,,,,,,,,,,2553.128713818034,None,"['t', 'h', 'e', 'r', 'm']",1,"[0.6456762200687081, 0.717690119985491, 0.829838888021186, 0.9736851039342582, 1.0456976839341223]",2553.128713818034,None,2553.1286903135942,2553.228574143024,s224_04212023,001,2023_Apr_21_1302,test_typingtask_norepeats,2020.2.10,59.96137765417639,
faqir,faqir,,,,,,,,,0,50,50,50,,,,,,,,,,,,,,,2558.62879178999,None,"['f', 'q', 'i', 'r']",0,"[0.777726419037208, 1.0976174480747432, 1.8736123510170728, 2.025777901057154]",2558.62879178999,None,2558.628408976644,2558.7285188781098,s224_04212023,001,2023_Apr_21_1302,test_typingtask_norepeats,2020.2.10,59.96137765417639,
puppy,puppy,,,,,,,,,0,51,51,51,,,,,,,,,,,,,,,2564.1286362940446,None,"['p', 'u', 'p', 'p', 'y']",1,"[1.0378500868100673, 1.205889139790088, 1.397793181007728, 1.5177683148067445, 1.6619096908252686]",2564.1286362940446,None,2564.128574832622,2564.228625408141,s224_04212023,001,2023_Apr_21_1302,test_typingtask_norepeats,2020.2.10,59.96137765417639,
edthe,edthe,,,,,,,,,0,52,52,52,,,,,,,,,,,,,,,2569.6286717171315,None,"['e', 'd', 't', 'h', 'e']",1,"[0.7937260291073471, 0.9778953830245882, 1.153841455001384, 1.2337326351553202, 1.3457276411354542]",2569.6286717171315,None,2569.628784660762,2569.7284881791566,s224_04212023,001,2023_Apr_21_1302,test_typingtask_norepeats,2020.2.10,59.96137765417639,
faqir,faqir,,,,,,,,,0,53,53,53,,,,,,,,,,,,,,,2575.128571134992,None,"['f', 'a', 'q', 'i', 'r']",1,"[0.7098386948928237, 0.9018676520790905, 1.2059561959467828, 1.3098444589413702, 1.5178326710592955]",2575.128571134992,None,2575.128814217681,2575.228420959087,s224_04212023,001,2023_Apr_21_1302,test_typingtask_norepeats,2020.2.10,59.96137765417639,
vanru,vanru,,,,,,,,,0,54,54,54,,,,,,,,,,,,,,,2580.6290518441238,None,"['v', 'a', 'n', 'r', 'u']",1,"[0.9374606311321259, 1.0574748159851879, 1.201355051016435, 1.3454021660145372, 1.4333354709669948]",2580.6290518441238,None,2580.6290300407445,2580.728769191075,s224_04212023,001,2023_Apr_21_1302,test_typingtask_norepeats,2020.2.10,59.96137765417639,
therm,therm,,,,,,,,,0,55,55,55,,,,,,,,,,,,,,,2586.1287703590933,None,"['t', 'h', 'e', 'r', 'm']",1,"[0.7657043889630586, 0.869753094855696, 0.973753138910979, 1.1257285960018635, 1.2137714480049908]",2586.1287703590933,None,2586.128868281655,2586.2286509110127,s224_04212023,001,2023_Apr_21_1302,test_typingtask_norepeats,2020.2.10,59.96137765417639,
faqir,faqir,,,,,,,,,0,56,56,56,,,,,,,,,,,,,,,2591.628713722108,None,"['f', 'a', 'q', 'i', 'r']",1,"[0.729773486033082, 0.8578019719570875, 1.1697869671043009, 1.2577924779616296, 1.385796993970871]",2591.628713722108,None,2591.628800910711,2591.7291872571222,s224_04212023,001,2023_Apr_21_1302,test_typingtask_norepeats,2020.2.10,59.96137765417639,
pykka,pykka,,,,,,,,,0,57,57,57,,,,,,,,,,,,,,,2597.1292018541135,None,"['p', 'y', 'k', 'k', 'a']",1,"[0.9652534581255168, 1.2533078619744629, 1.6613237080164254, 1.8133088659960777, 1.9413270989898592]",2597.1292018541135,None,2597.128946621716,2597.2290209119674,s224_04212023,001,2023_Apr_21_1302,test_typingtask_norepeats,2020.2.10,59.96137765417639,
puppy,puppy,,,,,,,,,0,58,58,58,,,,,,,,,,,,,,,2602.6286360621452,None,"['p', 'u', 'p', 'p', 'y']",1,"[1.2738872459158301, 1.4737665608990937, 1.7138418948743492, 1.8337551557924598, 2.097816319903359]",2602.6286360621452,None,2602.6285198617725,2602.728825913975,s224_04212023,001,2023_Apr_21_1302,test_typingtask_norepeats,2020.2.10,59.96137765417639,
therm,therm,,,,,,,,,0,59,59,59,,,,,,,,,,,,,,,2608.1285425771493,None,"['t', 'h', 'e', 'r', 'm']",1,"[0.7579265860840678, 0.8298692889511585, 0.9579812730662525, 1.093874413985759, 1.1739286570809782]",2608.1285425771493,None,2608.1286831477655,2608.2287359950133,s224_04212023,001,2023_Apr_21_1302,test_typingtask_norepeats,2020.2.10,59.96137765417639,
theme,theme,,,,,,,,,0,60,60,60,,,,,,,,,,,,,,,2613.628555616131,None,"['t', 'h', 'e', 'm', 'e']",1,"[0.8258697888813913, 0.897849032888189, 1.0258401138707995, 1.13797346688807, 1.193846127949655]",2613.628555616131,None,2613.6286086326463,2613.72871625307,s224_04212023,001,2023_Apr_21_1302,test_typingtask_norepeats,2020.2.10,59.96137765417639,
tithe,tithe,,,,,,,,,0,61,61,61,,,,,,,,,,,,,,,2619.128525453154,None,"['t', 'i', 't', 'h', 'e']",1,"[0.6699892010074109, 0.8458762378431857, 0.9499386248644441, 1.1019670569803566, 1.2139614259358495]",2619.128525453154,None,2619.1286406815516,2619.2289446301293,s224_04212023,001,2023_Apr_21_1302,test_typingtask_norepeats,2020.2.10,59.96137765417639,
heond,heond,,,,,,,,,0,62,62,62,,,,,,,,,,,,,,,2624.62868551095,None,"['h', 'e', 'o', 'n', 'd']",1,"[0.8337092180736363, 0.977847252972424, 1.0817239759489894, 1.2418461928609759, 1.3378301670309156]",2624.62868551095,None,2624.6287699456325,2624.728710456053,s224_04212023,001,2023_Apr_21_1302,test_typingtask_norepeats,2020.2.10,59.96137765417639,
lucky,lucky,,,,,,,,,0,63,63,63,,,,,,,,,,,,,,,2630.128659168957,None,"['l', 'u', 'c', 'k', 'y']",1,"[0.7817955629434437, 0.9498263068962842, 1.085858705919236, 1.181855133967474, 1.269811478909105]",2630.128659168957,None,2630.128742194781,2630.228700667154,s224_04212023,001,2023_Apr_21_1302,test_typingtask_norepeats,2020.2.10,59.96137765417639,
vanru,vanru,,,,,,,,,0,64,64,64,,,,,,,,,,,,,,,2635.6287687651347,None,"['v', 'a', 'n', 'r', 'u']",1,"[0.929675554856658, 0.9537455309182405, 2.4816438108682632, 2.6256240180227906, 2.7057005800306797]",2635.6287687651347,None,2635.628568726638,2635.7288673880976,s224_04212023,001,2023_Apr_21_1302,test_typingtask_norepeats,2020.2.10,59.96137765417639,
would,would,,,,,,,,,0,65,65,65,,,,,,,,,,,,,,,2641.1289681510534,None,"['w', 'o', 'u', 'l', 'd']",1,"[0.669508159859106, 0.7494944760110229, 0.8776007418055087, 1.0535491509363055, 1.1334577780216932]",2641.1289681510534,None,2641.128961829748,2641.229457413079,s224_04212023,001,2023_Apr_21_1302,test_typingtask_norepeats,2020.2.10,59.96137765417639,
there,there,,,,,,,,,0,66,66,66,,,,,,,,,,,,,,,2646.6287635399494,None,"['t', 'h', 'e', 'r', 'e']",1,"[0.6817480339668691, 0.7456339378841221, 0.8577595967799425, 1.001703652786091, 1.1537276189774275]",2646.6287635399494,None,2646.628727082675,2646.7286483871285,s224_04212023,001,2023_Apr_21_1302,test_typingtask_norepeats,2020.2.10,59.96137765417639,
vodka,vodka,,,,,,,,,0,67,67,67,,,,,,,,,,,,,,,2652.1286869540345,None,"['v', 'o', 'd', 'k', 'a']",1,"[0.941827388945967, 1.077866543084383, 1.341818534070626, 1.4777673920616508, 1.5978112779557705]",2652.1286869540345,None,2652.1288643766193,2652.228930510115,s224_04212023,001,2023_Apr_21_1302,test_typingtask_norepeats,2020.2.10,59.96137765417639,
lucky,lucky,,,,,,,,,0,68,68,68,,,,,,,,,,,,,,,2657.6288154930808,None,"['l', 'u', 'c', 'k', 'y']",1,"[0.6656552890781313, 0.8336705500259995, 0.9617208349518478, 1.089658420998603, 1.1935797149781138]",2657.6288154930808,None,2657.6288330876732,2657.729109212989,s224_04212023,001,2023_Apr_21_1302,test_typingtask_norepeats,2020.2.10,59.96137765417639,
buddy,buddy,,,,,,,,,0,69,69,69,,,,,,,,,,,,,,,2663.129032290075,None,"['b', 'u', 'd', 'd', 'y']",1,"[0.7173697198741138, 0.8534091629553586, 0.9654742619022727, 1.0854060740675777, 1.1494813349563628]",2663.129032290075,None,2663.128672416601,2663.22881290596,s224_04212023,001,2023_Apr_21_1302,test_typingtask_norepeats,2020.2.10,59.96137765417639,
think,think,,,,,,,,,0,70,70,70,,,,,,,,,,,,,,,2668.6287496450823,None,"['t', 'h', 'i', 'n', 'k']",1,"[0.681752695934847, 0.7376776079181582, 0.8817767109721899, 0.9697923960629851, 1.0816452850122005]",2668.6287496450823,None,2668.628739022696,2668.7288115851115,s224_04212023,001,2023_Apr_21_1302,test_typingtask_norepeats,2020.2.10,59.96137765417639,
buddy,buddy,,,,,,,,,0,71,71,71,,,,,,,,,,,,,,,2674.128803781001,None,"['b', 'u', 'd', 'd', 'y']",1,"[0.8376937340945005, 0.957710734102875, 1.0776089781429619, 1.2056651711463928, 1.2776510971598327]",2674.128803781001,None,2674.1290323886087,2674.228760397993,s224_04212023,001,2023_Apr_21_1302,test_typingtask_norepeats,2020.2.10,59.96137765417639,
cooed,cooed,,,,,,,,,0,72,72,72,,,,,,,,,,,,,,,2679.6286864781287,None,"['o', 'o', 'e', 'd']",0,"[0.9778813018929213, 1.6018273539375514, 1.7857809618581086, 1.9537932318635285]",2679.6286864781287,None,2679.628790848702,2679.7287611260545,s224_04212023,001,2023_Apr_21_1302,test_typingtask_norepeats,2020.2.10,59.96137765417639,
buddy,buddy,,,,,,,,,0,73,73,73,,,,,,,,,,,,,,,2685.128637730144,None,"['b', 'u', 'd', 'd', 'y']",1,"[0.7738236770965159, 0.9097672011703253, 1.0217700710054487, 1.1417735361028463, 1.213877959176898]",2685.128637730144,None,2685.1289209656416,2685.228936492,s224_04212023,001,2023_Apr_21_1302,test_typingtask_norepeats,2020.2.10,59.96137765417639,
champ,champ,,,,,,,,,0,74,74,74,,,,,,,,,,,,,,,2690.6285732360557,None,"['c', 'h', 'a', 'm', 'p']",1,"[0.71392019581981, 0.7938323349226266, 0.9059518929570913, 1.0098465629853308, 1.1699043079279363]",2690.6285732360557,None,2690.628848730633,2690.728799302131,s224_04212023,001,2023_Apr_21_1302,test_typingtask_norepeats,2020.2.10,59.96137765417639,
puppy,puppy,,,,,,,,,0,75,75,75,,,,,,,,,,,,,,,2696.129226407036,None,"['p', 'u', 'p', 'p', 'y']",1,"[0.7012676598969847, 0.8852844499051571, 1.053251548903063, 1.197242444846779, 1.2772489879280329]",2696.129226407036,None,2696.1291331656275,2696.2290994969662,s224_04212023,001,2023_Apr_21_1302,test_typingtask_norepeats,2020.2.10,59.96137765417639,
pykka,pykka,,,,,,,,,0,76,76,76,,,,,,,,,,,,,,,2701.629000480054,None,"['p', 'y', 'k', 'k', 'a']",1,"[1.097502542892471, 1.2735148698557168, 1.4495056848973036, 1.5933962559793144, 1.6894866519141942]",2701.629000480054,None,2701.628698148578,2701.729029938113,s224_04212023,001,2023_Apr_21_1302,test_typingtask_norepeats,2020.2.10,59.96137765417639,
there,there,,,,,,,,,0,77,77,77,,,,,,,,,,,,,,,2707.1288845690433,None,"['t', 'h', 'e', 'r', 'e']",1,"[0.8056511839386076, 0.8696547569707036, 0.9975983120966703, 1.1495825429446995, 1.2856271050404757]",2707.1288845690433,None,2707.128834681632,2707.228751898976,s224_04212023,001,2023_Apr_21_1302,test_typingtask_norepeats,2020.2.10,59.96137765417639,
therm,therm,,,,,,,,,0,78,78,78,,,,,,,,,,,,,,,2712.628872404108,None,"['t', 'h', 'e', 'r', 'm']",1,"[0.657657298957929, 0.7295598569326103, 0.8576545119285583, 0.9776040890719742, 1.0816216669045389]",2712.628872404108,None,2712.628745275596,2712.729162357049,s224_04212023,001,2023_Apr_21_1302,test_typingtask_norepeats,2020.2.10,59.96137765417639,
kremp,kremp,,,,,,,,,0,79,79,79,,,,,,,,,,,,,,,2718.128808767069,None,"['k', 't', 'r', 'e', 'r', 'm', 'p']",0,"[1.00570303411223, 1.1175945000723004, 1.1175945000723004, 1.253726250026375, 1.253726250026375, 1.2857069100718945, 1.4777475611772388]",2718.128808767069,None,2718.1288285146466,2718.228532352019,s224_04212023,001,2023_Apr_21_1302,test_typingtask_norepeats,2020.2.10,59.96137765417639,
druze,druze,,,,,,,,,0,80,80,80,,,,,,,,,,,,,,,2723.6289990111254,None,"['d', 'r', 'u', 'z', 'e']",1,"[0.7615420278161764, 0.9135170858353376, 0.9934174928348511, 1.1375048498157412, 1.265506427967921]",2723.6289990111254,None,2723.628870347561,2723.7287420041393,s224_04212023,001,2023_Apr_21_1302,test_typingtask_norepeats,2020.2.10,59.96137765417639,
would,would,,,,,,,,,0,81,81,81,,,,,,,,,,,,,,,2729.12892506714,None,"['w', 'o', 'u', 'l', 'd']",1,"[0.6934717989061028, 0.7895098289009184, 0.9094847508240491, 1.0934705219697207, 1.1575533519499004]",2729.12892506714,None,2729.1289826967286,2729.2291388800368,s224_04212023,001,2023_Apr_21_1302,test_typingtask_norepeats,2020.2.10,59.96137765417639,
haole,haole,,,,,,,,,0,82,82,82,,,,,,,,,,,,,,,2734.6292195850983,None,"['h', 'a', 'o', 'l', 'e']",1,"[0.8013133141212165, 0.9692946779541671, 1.0572420200333, 1.2492924961261451, 1.3292153261136264]",2734.6292195850983,None,2734.629330585757,2734.7292526080273,s224_04212023,001,2023_Apr_21_1302,test_typingtask_norepeats,2020.2.10,59.96137765417639,
vanru,vanru,,,,,,,,,0,83,83,83,,,,,,,,,,,,,,,2740.1289057391696,None,"['v', 'a', 'n', 'r', 'u']",1,"[0.8454840849153697, 0.9815868008881807, 1.0775093310512602, 1.197531946003437, 1.2695350348949432]",2740.1289057391696,None,2740.128969444707,2740.2289509919938,s224_04212023,001,2023_Apr_21_1302,test_typingtask_norepeats,2020.2.10,59.96137765417639,
kremp,kremp,,,,,,,,,0,84,84,84,,,,,,,,,,,,,,,2745.6288818931207,None,"['k', 'r', 'e', 'm', 'p']",1,"[0.8255136678926647, 0.9215826608706266, 1.081570261856541, 1.1456017438322306, 1.2895852799993008]",2745.6288818931207,None,2745.6287812076507,2745.7292468170635,s224_04212023,001,2023_Apr_21_1302,test_typingtask_norepeats,2020.2.10,59.96137765417639,
theme,theme,,,,,,,,,0,85,85,85,,,,,,,,,,,,,,,2751.1291542861145,None,"['t', 'h', 'e', 'm', 'e']",1,"[0.6693596031982452, 0.7573578690644354, 0.8853588351048529, 0.9813158800825477, 1.045271861134097]",2751.1291542861145,None,2751.129302505683,2751.229234691011,s224_04212023,001,2023_Apr_21_1302,test_typingtask_norepeats,2020.2.10,59.96137765417639,
buddy,buddy,,,,,,,,,0,86,86,86,,,,,,,,,,,,,,,2756.628838354023,None,"['b', 'u', 'd', 'd', 'y']",1,"[0.7216824188362807, 0.8415893770288676, 0.9616429668385535, 1.0895867149811238, 1.1456483048386872]",2756.628838354023,None,2756.6288550906347,2756.728846058948,s224_04212023,001,2023_Apr_21_1302,test_typingtask_norepeats,2020.2.10,59.96137765417639,
puppy,puppy,,,,,,,,,0,87,87,87,,,,,,,,,,,,,,,2762.1287759861443,None,"['p', 'u', 'p', 'p', 'y']",1,"[0.6857135868631303, 0.8617177798878402, 1.0056415600702167, 1.157742413925007, 1.237630648072809]",2762.1287759861443,None,2762.1289682586676,2762.2288509679493,s224_04212023,001,2023_Apr_21_1302,test_typingtask_norepeats,2020.2.10,59.96137765417639,
tithe,tithe,,,,,,,,,0,88,88,88,,,,,,,,,,,,,,,2767.6286810729653,None,"['t', 'i', 't', 'h', 'e']",1,"[0.7937056899536401, 1.0737767461687326, 1.249739543069154, 1.3858367761131376, 1.4977461560629308]",2767.6286810729653,None,2767.628910028655,2767.7290899090003,s224_04212023,001,2023_Apr_21_1302,test_typingtask_norepeats,2020.2.10,59.96137765417639,
faqir,faqir,,,,,,,,,0,89,89,89,,,,,,,,,,,,,,,2773.128908415092,None,"['f', 'a', 'q', 'i', 'r']",1,"[0.7095141860190779, 0.9095020371023566, 1.5416180880274624, 1.7416139040142298, 2.1335896051023155]",2773.128908415092,None,2773.1287520446813,2773.2290694161784,s224_04212023,001,2023_Apr_21_1302,test_typingtask_norepeats,2020.2.10,59.96137765417639,
zibja,zibja,,,,,,,,,0,90,90,90,,,,,,,,,,,,,,,2778.628872069996,None,"['z', 'i', 'b', 'j', 'a']",1,"[1.2496105700265616, 1.5456546328496188, 1.7536492068320513, 2.0095366009045392, 2.177583248820156]",2778.628872069996,None,2778.6286424897144,2778.7289367010817,s224_04212023,001,2023_Apr_21_1302,test_typingtask_norepeats,2020.2.10,59.96137765417639,
edthe,edthe,,,,,,,,,0,91,91,91,,,,,,,,,,,,,,,2784.1291697509587,None,"['e', 'd', 't', 'h', 'e']",1,"[0.7332533800508827, 0.9092426071874797, 1.1092399230692536, 1.197324002161622, 1.3172341990284622]",2784.1291697509587,None,2784.128795535583,2784.2289065839723,s224_04212023,001,2023_Apr_21_1302,test_typingtask_norepeats,2020.2.10,59.96137765417639,
puppy,puppy,,,,,,,,,0,92,92,92,,,,,,,,,,,,,,,2789.629233923042,None,"['p', 'u', 'p', 'p', 'y']",1,"[0.6972077509853989, 0.8652554780710489, 1.0251619638875127, 1.1612851680256426, 1.2891734261065722]",2789.629233923042,None,2789.6290746336335,2789.728806833038,s224_04212023,001,2023_Apr_21_1302,test_typingtask_norepeats,2020.2.10,59.96137765417639,
vodka,vodka,,,,,,,,,0,93,93,93,,,,,,,,,,,,,,,2795.1288219110575,None,"['v', 'o', 'd', 'k', 'a']",1,"[0.9336774239782244, 1.053687637904659, 1.3576905159279704, 1.5015569690149277, 1.6376769898924977]",2795.1288219110575,None,2795.1290337427517,2795.22877763398,s224_04212023,001,2023_Apr_21_1302,test_typingtask_norepeats,2020.2.10,59.96137765417639,
heond,heond,,,,,,,,,0,94,94,94,,,,,,,,,,,,,,,2800.6290076430887,None,"['h', 'e', 'o', 'n', 'd']",1,"[1.5454856529831886, 1.7614288600161672, 1.9615384419448674, 2.217384162126109, 2.393428336130455]",2800.6290076430887,None,2800.628992168745,2800.7287921879906,s224_04212023,001,2023_Apr_21_1302,test_typingtask_norepeats,2020.2.10,59.96137765417639,
about,about,,,,,,,,,0,95,95,95,,,,,,,,,,,,,,,2806.129127764143,None,"['a', 'b', 'o', 'u', 't']",1,"[0.5733476949390024, 0.7813230000901967, 0.837348042987287, 0.9734113549347967, 1.021361512131989]",2806.129127764143,None,2806.1288994886445,2806.229106788058,s224_04212023,001,2023_Apr_21_1302,test_typingtask_norepeats,2020.2.10,59.96137765417639,
zibja,zibja,,,,,,,,,0,96,96,96,,,,,,,,,,,,,,,2811.629942832049,None,"['z', 'i', 'b', 'j', 'a']",1,"[1.136461271904409, 1.312537619844079, 1.5284695599693805, 1.6884658599738032, 1.8084681308828294]",2811.629942832049,None,2811.629607372731,2811.7288769071456,s224_04212023,001,2023_Apr_21_1302,test_typingtask_norepeats,2020.2.10,59.96137765417639,
vodka,vodka,,,,,,,,,0,97,97,97,,,,,,,,,,,,,,,2817.1290367641486,None,"['v', 'o', 'd', 'k', 'a']",1,"[0.9414746479596943, 1.1414468849543482, 1.909377777017653, 2.0453847679309547, 2.173431518021971]",2817.1290367641486,None,2817.128963916609,2817.229096914176,s224_04212023,001,2023_Apr_21_1302,test_typingtask_norepeats,2020.2.10,59.96137765417639,
edthe,edthe,,,,,,,,,0,98,98,98,,,,,,,,,,,,,,,2822.6288652319927,None,"['e', 'd', 't', 'h', 'e']",1,"[0.8095398908481002, 0.9856495498679578, 1.1696095899678767, 1.2095395689830184, 1.3376107020303607]",2822.6288652319927,None,2822.6290239107793,2822.7288704281673,s224_04212023,001,2023_Apr_21_1302,test_typingtask_norepeats,2020.2.10,59.96137765417639,
cooed,cooed,,,,,,,,,0,99,99,99,,,,,,,,,,,,,,,2828.128802743042,None,"['c', 'o', 'o', 'e', 'd']",1,"[0.7496761849615723, 0.8936178449075669, 1.0457514349836856, 1.1257388431113213, 1.2776440889574587]",2828.128802743042,None,2828.129136076709,2828.229137534043,s224_04212023,001,2023_Apr_21_1302,test_typingtask_norepeats,2020.2.10,59.96137765417639,
cheer,cheer,,,,,,,,,0,100,100,100,,,,,,,,,,,,,,,2833.628878563177,None,"['c', 'h', 'e', 'e', 'r']",1,"[0.7056420580483973, 0.7935176470782608, 0.9136093249544501, 1.0496263050008565, 1.2015531009528786]",2833.628878563177,None,2833.629114848608,2833.7290691521484,s224_04212023,001,2023_Apr_21_1302,test_typingtask_norepeats,2020.2.10,59.96137765417639,
think,think,,,,,,,,,0,101,101,101,,,,,,,,,,,,,,,2839.1289387000725,None,"['t', 'h', 'i', 'n', 'k']",1,"[0.6294928749557585, 0.6934562548995018, 0.8295168459881097, 0.9254905970301479, 1.0375386548694223]",2839.1289387000725,None,2839.1291038217487,2839.2289678449742,s224_04212023,001,2023_Apr_21_1302,test_typingtask_norepeats,2020.2.10,59.96137765417639,
vanru,vanru,,,,,,,,,0,102,102,102,,,,,,,,,,,,,,,2844.6290031161625,None,"['v', 'a', 'n', 'r', 'u']",1,"[0.7854790859855711, 0.8814461189322174, 1.0173892590682954, 1.137465009931475, 1.2093990130815655]",2844.6290031161625,None,2844.6289454286916,2844.72921566898,s224_04212023,001,2023_Apr_21_1302,test_typingtask_norepeats,2020.2.10,59.96137765417639,
pykka,pykka,,,,,,,,,0,103,103,103,,,,,,,,,,,,,,,2850.128997961059,None,"['p', 'y', 'k', 'k', 'a']",1,"[1.1094047541264445, 1.4214482391253114, 1.725469958037138, 1.8854913890827447, 2.0135180929210037]",2850.128997961059,None,2850.1289708917493,2850.228953381069,s224_04212023,001,2023_Apr_21_1302,test_typingtask_norepeats,2020.2.10,59.96137765417639,
think,think,,,,,,,,,0,104,104,104,,,,,,,,,,,,,,,2855.6291209319606,None,"['t', 'h', 'i', 'n', 'k']",1,"[0.7054054890759289, 0.8012862240429968, 0.9373780980240554, 1.0413040909916162, 1.1373958480544388]",2855.6291209319606,None,2855.6288523755966,2855.7290949311573,s224_04212023,001,2023_Apr_21_1302,test_typingtask_norepeats,2020.2.10,59.96137765417639,
pykka,pykka,,,,,,,,,0,105,105,105,,,,,,,,,,,,,,,2861.129100769991,None,"['p', 'y', 'k', 'k', 'a']",1,"[1.0453441049903631, 1.2933149749878794, 1.5253886098507792, 1.6854087950196117, 1.757383078802377]",2861.129100769991,None,2861.128930013673,2861.2292539360933,s224_04212023,001,2023_Apr_21_1302,test_typingtask_norepeats,2020.2.10,59.96137765417639,
cheer,cheer,,,,,,,,,0,106,106,106,,,,,,,,,,,,,,,2866.629096229095,None,"['c', 'h', 'e', 'e', 'r']",1,"[0.6973524249624461, 0.7773539780173451, 0.9374383930116892, 1.0654088789597154, 1.2973531300667673]",2866.629096229095,None,2866.6291590226347,2866.7287925691344,s224_04212023,001,2023_Apr_21_1302,test_typingtask_norepeats,2020.2.10,59.96137765417639,
about,about,,,,,,,,,0,107,107,107,,,,,,,,,,,,,,,2872.129018204054,None,"['a', 'b', 'o', 'u', 't']",1,"[0.63745774095878, 0.8373804700095206, 0.9254922750405967, 1.061497534159571, 1.1334765050560236]",2872.129018204054,None,2872.1290550786534,2872.2289525021333,s224_04212023,001,2023_Apr_21_1302,test_typingtask_norepeats,2020.2.10,59.96137765417639,
haole,haole,,,,,,,,,0,108,108,108,,,,,,,,,,,,,,,2877.628941127099,None,"['h', 'a', 'o', 'l', 'e']",1,"[0.8735074051655829, 1.1295580801088363, 1.2975152879953384, 1.5294696290511638, 1.6655298999976367]",2877.628941127099,None,2877.6293723676818,2877.7294098939747,s224_04212023,001,2023_Apr_21_1302,test_typingtask_norepeats,2020.2.10,59.96137765417639,
think,think,,,,,,,,,0,109,109,109,,,,,,,,,,,,,,,2883.1294607601594,None,"['t', 'h', 'i', 'n', 'k']",1,"[0.6209466271102428, 0.6929667762015015, 0.8210417190566659, 0.9410046450793743, 1.0530495829880238]",2883.1294607601594,None,2883.129284260608,2883.2293718000874,s224_04212023,001,2023_Apr_21_1302,test_typingtask_norepeats,2020.2.10,59.96137765417639,
kremp,kremp,,,,,,,,,0,110,110,110,,,,,,,,,,,,,,,2888.6290858690627,None,"['k', 'r', 'e', 'm', 'o']",0,"[0.8093191569205374, 0.9293857070151716, 1.0894248778931797, 1.2173151900060475, 1.3534297028090805]",2888.6290858690627,None,2888.629052693769,2888.7291467881296,s224_04212023,001,2023_Apr_21_1302,test_typingtask_norepeats,2020.2.10,59.96137765417639,
vanru,vanru,,,,,,,,,0,111,111,111,,,,,,,,,,,,,,,2894.1292024250142,None,"['v', 'a', 'n', 'r', 'u']",1,"[0.757255497155711, 0.9412542951758951, 1.02920486102812, 1.1731859361752868, 1.2771802141796798]",2894.1292024250142,None,2894.1294777147004,2894.229593007127,s224_04212023,001,2023_Apr_21_1302,test_typingtask_norepeats,2020.2.10,59.96137765417639,
vodka,vodka,,,,,,,,,0,112,112,112,,,,,,,,,,,,,,,2899.6291149421595,None,"['v', 'o', 'd', 'k', 'a']",1,"[0.7613639130722731, 0.9932951088994741, 1.2092899929266423, 1.4172768918797374, 1.625406086910516]",2899.6291149421595,None,2899.629144685622,2899.729241674999,s224_04212023,001,2023_Apr_21_1302,test_typingtask_norepeats,2020.2.10,59.96137765417639,
kremp,kremp,,,,,,,,,0,113,113,113,,,,,,,,,,,,,,,2905.1293902399484,None,"['k', 'r', 'e', 'm', 'o']",0,"[0.9090216290205717, 0.9890860449522734, 1.133118148893118, 1.1971472708974034, 1.3490925868973136]",2905.1293902399484,None,2905.12968050763,2905.229371376103,s224_04212023,001,2023_Apr_21_1302,test_typingtask_norepeats,2020.2.10,59.96137765417639,
think,think,,,,,,,,,0,114,114,114,,,,,,,,,,,,,,,2910.629452340072,None,"['t', 'h', 'i', 'n', 'k']",1,"[0.6490352009423077, 0.7289614561013877, 0.8730748749803752, 0.9929571899119765, 1.089077431941405]",2910.629452340072,None,2910.6296197397633,2910.72892529401,s224_04212023,001,2023_Apr_21_1302,test_typingtask_norepeats,2020.2.10,59.96137765417639,
theme,theme,,,,,,,,,0,115,115,115,,,,,,,,,,,,,,,2916.1292557211127,None,"['t', 'h', 'e', 'm', 'e']",1,"[0.6771400298457593, 0.7811737468000501, 0.8931544090155512, 0.9972314308397472, 1.069254423957318]",2916.1292557211127,None,2916.128981651552,2916.229253957048,s224_04212023,001,2023_Apr_21_1302,test_typingtask_norepeats,2020.2.10,59.96137765417639,
zibja,zibja,,,,,,,,,0,116,116,116,,,,,,,,,,,,,,,2921.629257292021,None,"['z', 'i', 'b', 'k', 'a']",0,"[1.1132262418977916, 1.2492473439779133, 1.4171459178905934, 1.5931362379342318, 1.8252730588428676]",2921.629257292021,None,2921.6289979697203,2921.729560649954,s224_04212023,001,2023_Apr_21_1302,test_typingtask_norepeats,2020.2.10,59.96137765417639,
theme,theme,,,,,,,,,0,117,117,117,,,,,,,,,,,,,,,2927.1292682180647,None,"['t', 'h', 'e', 'm', 'e']",1,"[0.8132191149052233, 0.8692224479746073, 1.0372503900434822, 1.1651391480118036, 1.237145016901195]",2927.1292682180647,None,2927.1289841006974,2927.2293456841726,s224_04212023,001,2023_Apr_21_1302,test_typingtask_norepeats,2020.2.10,59.96137765417639,
champ,champ,,,,,,,,,0,118,118,118,,,,,,,,,,,,,,,2932.629017379135,None,"['c', 'h', 'a', 'm', 'p']",1,"[0.7614717229735106, 0.8495230940170586, 0.945497727021575, 1.033490692032501, 1.1934168371371925]",2932.629017379135,None,2932.629476747755,2932.7289480201434,s224_04212023,001,2023_Apr_21_1302,test_typingtask_norepeats,2020.2.10,59.96137765417639,
haole,haole,,,,,,,,,0,119,119,119,,,,,,,,,,,,,,,2938.129091868177,None,"['h', 'a', 'l', 'o', 'e']",0,"[0.8854164578951895, 1.0854341799858958, 1.221374758053571, 1.44537812191993, 1.5734227399807423]",2938.129091868177,None,2938.1292019465936,2938.2289335939568,s224_04212023,001,2023_Apr_21_1302,test_typingtask_norepeats,2020.2.10,59.96137765417639,
