string,corrAns,practice_trials.thisRepN,practice_trials.thisTrialN,practice_trials.thisN,practice_trials.thisIndex,trials_1.thisRepN,trials_1.thisTrialN,trials_1.thisN,trials_1.thisIndex,trials_2.thisRepN,trials_2.thisTrialN,trials_2.thisN,trials_2.thisIndex,key_resp_0.keys,key_resp_0.corr,key_resp_0.rt,text_1.started,text_1.stopped,key_resp_1.keys,key_resp_1.corr,key_resp_1.rt,key_resp_1.started,key_resp_1.stopped,sound_1A_1.started,sound_1A_1.stopped,break_time.started,break_time.stopped,text_2.started,text_2.stopped,key_resp_2.keys,key_resp_2.corr,key_resp_2.rt,key_resp_2.started,key_resp_2.stopped,sound_1A_2.started,sound_1A_2.stopped,participant,session,date,expName,psychopyVersion,frameRate,
fresh,fresh,0,0,0,0,,,,,,,,,"['f', 'r', 'e', 's', 'h']",1,"[1.888009799644351, 2.136035699862987, 2.232007499784231, 2.312144699972123, 2.487986299674958]",,,,,,,,,,,,,,,,,,,,,s240_11162023,001,2023-11-16_16h30.40.222,test_typingtask_norepeats,2020.2.10,59.96393765064518,
dream,dream,0,1,1,1,,,,,,,,,"['d', 'r', 'e', 'a', 'm']",1,"[0.7721416000276804, 1.0759121999144554, 1.1159679000265896, 1.2597707998938859, 1.4519362999126315]",,,,,,,,,,,,,,,,,,,,,s240_11162023,001,2023-11-16_16h30.40.222,test_typingtask_norepeats,2020.2.10,59.96393765064518,
slime,slime,0,2,2,2,,,,,,,,,"['s', 'l', 'i', 'm', 'e']",1,"[0.5676746997050941, 0.7036807998083532, 0.8716417998075485, 1.0076437997631729, 1.3838094999082386]",,,,,,,,,,,,,,,,,,,,,s240_11162023,001,2023-11-16_16h30.40.222,test_typingtask_norepeats,2020.2.10,59.96393765064518,
belly,belly,,,,,0,0,0,0,,,,,,,,93.4605097998865,None,"['b', 'e', 'l', 'l', 'y']",1,"[0.8785401997156441, 1.0865408000536263, 1.2145350999198854, 1.3586313999257982, 1.4864699998870492]",93.4605097998865,None,93.45972420014441,None,,,,,,,,,,,,s240_11162023,001,2023-11-16_16h30.40.222,test_typingtask_norepeats,2020.2.10,59.96393765064518,
would,would,,,,,0,1,1,1,,,,,,,,98.95972969988361,None,"['w', 'o', 'u', 'l', 'd']",1,"[0.5153735997155309, 0.6113212998025119, 0.6995108998380601, 0.9074031999334693, 1.035263099707663]",98.95972969988361,None,98.95972620015964,None,,,,,,,,,,,,s240_11162023,001,2023-11-16_16h30.40.222,test_typingtask_norepeats,2020.2.10,59.96393765064518,
puppy,puppy,,,,,0,2,2,2,,,,,,,,104.45974260009825,None,"['p', 'u', 'p', 'p', 'y']",1,"[0.5912478999234736, 0.7272787000983953, 0.9593051001429558, 1.1673233001492918, 1.375404399819672]",104.45974260009825,None,104.4597310998477,104.55975680006668,,,,,,,,,,,,s240_11162023,001,2023-11-16_16h30.40.222,test_typingtask_norepeats,2020.2.10,59.96393765064518,
cooed,cooed,,,,,0,3,3,3,,,,,,,,109.95978010026738,None,"['c', 'o', 'o', 'e', 'd']",1,"[0.6032427004538476, 0.7713816002942622, 0.9073801999911666, 1.075360200367868, 1.3154041999951005]",109.95978010026738,None,109.95975370025262,None,,,,,,,,,,,,s240_11162023,001,2023-11-16_16h30.40.222,test_typingtask_norepeats,2020.2.10,59.96393765064518,
buddy,buddy,,,,,0,4,4,4,,,,,,,,115.45979240024462,None,"['b', 'u', 'd', 'd', 'y']",1,"[0.7192292995750904, 0.983436499722302, 1.1593058998696506, 1.287321699783206, 1.3593289996497333]",115.45979240024462,None,115.45977750020101,115.55979550024495,,,,,,,,,,,,s240_11162023,001,2023-11-16_16h30.40.222,test_typingtask_norepeats,2020.2.10,59.96393765064518,
puppy,puppy,,,,,0,5,5,5,,,,,,,,120.96002699993551,None,"['p', 'u', 'p', 'p', 'y']",1,"[0.5629957001656294, 0.6671712999232113, 0.9070375999435782, 1.2190248002298176, 1.4429724998772144]",120.96002699993551,None,120.95978390024975,None,,,,,,,,,,,,s240_11162023,001,2023-11-16_16h30.40.222,test_typingtask_norepeats,2020.2.10,59.96393765064518,
tithe,tithe,,,,,0,6,6,6,,,,,,,,126.45986150018871,None,"['t', 'i', 't', 'h', 'e']",1,"[0.5911684003658593, 0.6951653002761304, 0.8231863002292812, 0.9114120001904666, 1.0232279002666473]",126.45986150018871,None,126.45981059987098,None,,,,,,,,,,,,s240_11162023,001,2023-11-16_16h30.40.222,test_typingtask_norepeats,2020.2.10,59.96393765064518,
vodka,vodka,,,,,0,7,7,7,,,,,,,,131.95989629998803,None,"['v', 'o', 'd', 'k', 'a']",1,"[0.8111326000653207, 0.9792700000107288, 1.0432510999962687, 1.3152218000032008, 1.4271193998865783]",131.95989629998803,None,131.95982739999891,None,,,,,,,,,,,,s240_11162023,001,2023-11-16_16h30.40.222,test_typingtask_norepeats,2020.2.10,59.96393765064518,
zibja,zibja,,,,,0,8,8,8,,,,,,,,137.4599008001387,None,"['z', 'i', 'b', 'j', 'a']",1,"[0.5911179999820888, 0.6951824999414384, 1.111096799839288, 1.3431326998397708, 1.4552752999588847]",137.4599008001387,None,137.45988219995053,137.5599004002288,,,,,,,,,,,,s240_11162023,001,2023-11-16_16h30.40.222,test_typingtask_norepeats,2020.2.10,59.96393765064518,
druze,druze,,,,,0,9,9,9,,,,,,,,142.95991009986028,None,"['d', 'r', 'u', 'z', 'e']",1,"[0.6271699001081288, 0.8832417000085115, 1.0352078001014888, 1.1712510003708303, 1.2992158001288772]",142.95991009986028,None,142.95988579997794,None,,,,,,,,,,,,s240_11162023,001,2023-11-16_16h30.40.222,test_typingtask_norepeats,2020.2.10,59.96393765064518,
cheer,cheer,,,,,0,10,10,10,,,,,,,,148.45993999997154,None,"['c', 'h', 'e', 'e', 'r']",1,"[0.5830963999032974, 0.7111241002567112, 0.8472112002782524, 0.9990723999217153, 1.0870977998711169]",148.45993999997154,None,148.45993109997363,None,,,,,,,,,,,,s240_11162023,001,2023-11-16_16h30.40.222,test_typingtask_norepeats,2020.2.10,59.96393765064518,
think,think,,,,,0,11,11,11,,,,,,,,153.95994490012527,None,"['t', 'h', 'i', 'n', 'k']",1,"[0.5711090001277626, 0.667149799875915, 0.8191879000514746, 0.9470850001089275, 1.115172800142318]",153.95994490012527,None,153.9599491001107,None,,,,,,,,,,,,s240_11162023,001,2023-11-16_16h30.40.222,test_typingtask_norepeats,2020.2.10,59.96393765064518,
edthe,edthe,,,,,0,12,12,12,,,,,,,,159.45997299999,None,"['e', 'd', 't', 'h', 'e']",1,"[0.7271241000853479, 0.9191899001598358, 1.079141499940306, 1.1751485001295805, 1.3030640999786556]",159.45997299999,None,159.46002009995283,159.55998540017754,,,,,,,,,,,,s240_11162023,001,2023-11-16_16h30.40.222,test_typingtask_norepeats,2020.2.10,59.96393765064518,
would,would,,,,,0,13,13,13,,,,,,,,164.95999750029296,None,"['w', 'o', 'u', 'l', 'd']",1,"[0.4990960001014173, 0.65911820018664, 0.7390950000844896, 1.0270349001511931, 1.1791118001565337]",164.95999750029296,None,164.9600188999437,None,,,,,,,,,,,,s240_11162023,001,2023-11-16_16h30.40.222,test_typingtask_norepeats,2020.2.10,59.96393765064518,
cooed,cooed,,,,,0,14,14,14,,,,,,,,170.46001539984718,None,"['c', 'o', 'o', 'e', 'd']",1,"[0.5750456000678241, 0.8710540998727083, 1.0791782001033425, 1.3432155000045896, 1.5590034001506865]",170.46001539984718,None,170.4600484000519,170.56001219991595,,,,,,,,,,,,s240_11162023,001,2023-11-16_16h30.40.222,test_typingtask_norepeats,2020.2.10,59.96393765064518,
would,would,,,,,0,15,15,15,,,,,,,,175.96001020027325,None,"['w', 'o', 'u', 'l', 'd']",1,"[0.5470944996923208, 0.6350996997207403, 0.731029599905014, 0.9871653998270631, 1.147207799833268]",175.96001020027325,None,175.96007129987703,None,,,,,,,,,,,,s240_11162023,001,2023-11-16_16h30.40.222,test_typingtask_norepeats,2020.2.10,59.96393765064518,
kremp,kremp,,,,,0,16,16,16,,,,,,,,181.4600291000679,None,"['k', 'r', 'e', 'm', 'p']",1,"[0.7190336002968252, 0.9511601002886891, 1.0631049000658095, 1.1591462003998458, 1.3030425002798438]",181.4600291000679,None,181.46009650006891,181.560068000108,,,,,,,,,,,,s240_11162023,001,2023-11-16_16h30.40.222,test_typingtask_norepeats,2020.2.10,59.96393765064518,
cooed,cooed,,,,,0,17,17,17,,,,,,,,186.96008440013975,None,"['c', 'o', 'o', 'e', 'd']",1,"[0.5631459997966886, 0.8112046997994184, 0.9390405002050102, 1.1070282999426126, 1.3230449999682605]",186.96008440013975,None,186.9600831001997,None,,,,,,,,,,,,s240_11162023,001,2023-11-16_16h30.40.222,test_typingtask_norepeats,2020.2.10,59.96393765064518,
lucky,lucky,,,,,0,18,18,18,,,,,,,,192.46011500013992,None,"['l', 'u', 'c', 'k', 'y']",1,"[0.4949922999367118, 0.6389331999234855, 0.9030435997992754, 0.9510785997845232, 1.1591138001531363]",192.46011500013992,None,192.46003820020707,None,,,,,,,,,,,,s240_11162023,001,2023-11-16_16h30.40.222,test_typingtask_norepeats,2020.2.10,59.96393765064518,
there,there,,,,,0,19,19,19,,,,,,,,197.96011839993298,None,"['t', 'h', 'e', 'r', 'e']",1,"[0.5549918003380299, 0.6589209004305303, 0.8029877999797463, 0.8589847004041076, 0.9711099001578987]",197.96011839993298,None,197.96018360015006,None,,,,,,,,,,,,s240_11162023,001,2023-11-16_16h30.40.222,test_typingtask_norepeats,2020.2.10,59.96393765064518,
heond,heond,,,,,0,20,20,20,,,,,,,,203.46012920001522,None,"['h', 'e', 'o', 'n', 'd']",1,"[0.6069470997899771, 0.814965299796313, 0.9590368997305632, 1.063046499621123, 1.2870128997601569]",203.46012920001522,None,203.46016900027172,None,,,,,,,,,,,,s240_11162023,001,2023-11-16_16h30.40.222,test_typingtask_norepeats,2020.2.10,59.96393765064518,
theme,theme,,,,,0,21,21,21,,,,,,,,208.96019440004602,None,"['t', 'h', 'e', 'm', 'e']",1,"[0.5948886000551283, 0.682895100209862, 0.8431605999357998, 0.9548845998942852, 1.0428706002421677]",208.96019440004602,None,208.96024010023103,None,,,,,,,,,,,,s240_11162023,001,2023-11-16_16h30.40.222,test_typingtask_norepeats,2020.2.10,59.96393765064518,
pykka,pykka,,,,,0,22,22,22,,,,,,,,214.4601849000901,None,"['p', 'y', 'k', 'k', 'a']",1,"[0.6389558999799192, 0.7589031998068094, 0.9989010998979211, 1.1351619996130466, 1.2468907996080816]",214.4601849000901,None,214.46024390002714,None,,,,,,,,,,,,s240_11162023,001,2023-11-16_16h30.40.222,test_typingtask_norepeats,2020.2.10,59.96393765064518,
haole,haole,,,,,0,23,23,23,,,,,,,,219.96023359987885,None,"['h', 'a', 'o', 'l', 'e']",1,"[0.5468554999679327, 0.6592215998098254, 0.7949868999421597, 0.9949970999732614, 1.1149916998110712]",219.96023359987885,None,219.96025030007587,None,,,,,,,,,,,,s240_11162023,001,2023-11-16_16h30.40.222,test_typingtask_norepeats,2020.2.10,59.96393765064518,
belly,belly,,,,,0,24,24,24,,,,,,,,225.46026830002666,None,"['b', 'e', 'l', 'l', 'y']",1,"[0.5748160998336971, 0.7828617999330163, 0.926947099622339, 1.0629743998870254, 1.2388938996009529]",225.46026830002666,None,225.46025339998306,None,,,,,,,,,,,,s240_11162023,001,2023-11-16_16h30.40.222,test_typingtask_norepeats,2020.2.10,59.96393765064518,
pykka,pykka,,,,,0,25,25,25,,,,,,,,230.96028400026262,None,"['p', 'y', 'k', 'k', 'a']",1,"[0.5868497001938522, 0.7148831998929381, 1.0669968998990953, 1.2029931000433862, 1.3307806998491287]",230.96028400026262,None,230.96026460006834,None,,,,,,,,,,,,s240_11162023,001,2023-11-16_16h30.40.222,test_typingtask_norepeats,2020.2.10,59.96393765064518,
puppy,puppy,,,,,0,26,26,26,,,,,,,,236.46031850017607,None,"['p', 'u', 'p', 'p', 'y']",1,"[0.5908222002908587, 0.7671137000434101, 1.0628805002197623, 1.2148512001149356, 1.6468164999969304]",236.46031850017607,None,236.46032449994237,None,,,,,,,,,,,,s240_11162023,001,2023-11-16_16h30.40.222,test_typingtask_norepeats,2020.2.10,59.96393765064518,
therm,therm,,,,,0,27,27,27,,,,,,,,241.96038579987362,None,"['t', 'h', 'e', 'r', 'm']",1,"[0.5147488000802696, 0.6186943999491632, 0.7227115002460778, 0.8028544001281261, 0.8748666001483798]",241.96038579987362,None,241.9603419999592,None,,,,,,,,,,,,s240_11162023,001,2023-11-16_16h30.40.222,test_typingtask_norepeats,2020.2.10,59.96393765064518,
theme,theme,,,,,0,28,28,28,,,,,,,,247.4603355000727,None,"['t', 'h', 'e', 'm', 'e']",1,"[0.5507749002426863, 0.6387404999695718, 0.7588525000028312, 0.8709479002282023, 0.9588029999285936]",247.4603355000727,None,247.4603903998621,None,,,,,,,,,,,,s240_11162023,001,2023-11-16_16h30.40.222,test_typingtask_norepeats,2020.2.10,59.96393765064518,
would,would,,,,,0,29,29,29,,,,,,,,252.96039520017803,None,"['w', 'o', 'u', 'l', 'd']",1,"[0.5627159001305699, 0.6907856999896467, 0.7628390998579562, 0.9947910001501441, 1.090804100036621]",252.96039520017803,None,252.96036699991674,None,,,,,,,,,,,,s240_11162023,001,2023-11-16_16h30.40.222,test_typingtask_norepeats,2020.2.10,59.96393765064518,
tithe,tithe,,,,,0,30,30,30,,,,,,,,258.46036690007895,None,"['t', 'i', 't', 'h', 'e']",1,"[0.5587964002043009, 0.6627494003623724, 0.8068706002086401, 0.9268175000324845, 1.078726700041443]",258.46036690007895,None,258.4604117001407,None,,,,,,,,,,,,s240_11162023,001,2023-11-16_16h30.40.222,test_typingtask_norepeats,2020.2.10,59.96393765064518,
edthe,edthe,,,,,0,31,31,31,,,,,,,,263.96041519986466,None,"['e', 'd', 't', 'h', 'e']",1,"[0.5786991999484599, 0.7947276998311281, 1.0426837000995874, 1.1388117000460625, 1.2588415001519024]",263.96041519986466,None,263.96040610009806,None,,,,,,,,,,,,s240_11162023,001,2023-11-16_16h30.40.222,test_typingtask_norepeats,2020.2.10,59.96393765064518,
zibja,zibja,,,,,0,32,32,32,,,,,,,,269.46044850023463,None,"['z', 'i', 'b', 'j', 'a']",1,"[0.6067236997187138, 0.7429360998794436, 0.9987149001099169, 1.222639299929142, 1.3107070000842214]",269.46044850023463,None,269.4604539998807,None,,,,,,,,,,,,s240_11162023,001,2023-11-16_16h30.40.222,test_typingtask_norepeats,2020.2.10,59.96393765064518,
about,about,,,,,0,33,33,33,,,,,,,,274.9605506998487,None,"['a', 'b', 'o', 'u', 't']",1,"[0.4906027000397444, 0.6266449000686407, 0.8426999002695084, 0.9225878999568522, 1.058552199974656]",274.9605506998487,None,274.96051810001956,None,,,,,,,,,,,,s240_11162023,001,2023-11-16_16h30.40.222,test_typingtask_norepeats,2020.2.10,59.96393765064518,
tithe,tithe,,,,,0,34,34,34,,,,,,,,280.4605252998881,None,"['t', 'i', 't', 'h', 'e']",1,"[0.5666458001360297, 0.6707572997547686, 0.7745930999517441, 0.878594699781388, 1.022605000063777]",280.4605252998881,None,280.46054640011863,None,,,,,,,,,,,,s240_11162023,001,2023-11-16_16h30.40.222,test_typingtask_norepeats,2020.2.10,59.96393765064518,
there,there,,,,,0,35,35,35,,,,,,,,285.96056260028854,None,"['t', 'h', 'e', 'r', 'e']",1,"[0.4986125002615154, 0.5865421001799405, 0.7626930000260472, 0.8025649003684521, 0.9305762001313269]",285.96056260028854,None,285.96055299993606,None,,,,,,,,,,,,s240_11162023,001,2023-11-16_16h30.40.222,test_typingtask_norepeats,2020.2.10,59.96393765064518,
zibja,zibja,,,,,0,36,36,36,,,,,,,,291.4605912002735,None,"['z', 'i', 'b', 'j', 'a']",1,"[0.5905392002314329, 0.7185217002406716, 0.9346124003641307, 1.1745241000317037, 1.262518500443548]",291.4605912002735,None,291.4605413001962,None,,,,,,,,,,,,s240_11162023,001,2023-11-16_16h30.40.222,test_typingtask_norepeats,2020.2.10,59.96393765064518,
therm,therm,,,,,0,37,37,37,,,,,,,,296.96061010006815,None,"['t', 'h', 'e', 'r', 'm']",1,"[0.5305627998895943, 0.6344802998937666, 0.7785299001261592, 0.8585940999910235, 0.9466019999235868]",296.96061010006815,None,296.96060629999266,None,,,,,,,,,,,,s240_11162023,001,2023-11-16_16h30.40.222,test_typingtask_norepeats,2020.2.10,59.96393765064518,
kremp,kremp,,,,,0,38,38,38,,,,,,,,302.4606202002615,None,"['k', 'r', 'e', 'm', 'p']",1,"[0.5827103001065552, 0.8304940001107752, 0.9345495998859406, 1.0308568002656102, 1.1825047000311315]",302.4606202002615,None,302.4606312002987,None,,,,,,,,,,,,s240_11162023,001,2023-11-16_16h30.40.222,test_typingtask_norepeats,2020.2.10,59.96393765064518,
haole,haole,,,,,0,39,39,39,,,,,,,,307.96064050029963,None,"['h', 'a', 'o', 'l', 'e']",1,"[0.5865557002834976, 0.7226498001255095, 0.85097899986431, 1.050547800026834, 1.1786361001431942]",307.96064050029963,None,307.9607297002338,None,,,,,,,,,,,,s240_11162023,001,2023-11-16_16h30.40.222,test_typingtask_norepeats,2020.2.10,59.96393765064518,
puppy,puppy,,,,,0,40,40,40,,,,,,,,313.46074509993196,None,"['p', 'u', 'p', 'p', 'y']",1,"[0.6064846999943256, 0.7264360999688506, 0.9105612002313137, 1.1183931003324687, 1.3344308002851903]",313.46074509993196,None,313.46070350026713,None,,,,,,,,,,,,s240_11162023,001,2023-11-16_16h30.40.222,test_typingtask_norepeats,2020.2.10,59.96393765064518,
lucky,lucky,,,,,0,41,41,41,,,,,,,,318.96073300018907,None,"['l', 'u', 'c', 'k', 'y']",1,"[0.5064575998112559, 0.730583599768579, 1.1863971999846399, 1.3143942998722196, 1.5385635998100042]",318.96073300018907,None,318.96069390019403,None,,,,,,,,,,,,s240_11162023,001,2023-11-16_16h30.40.222,test_typingtask_norepeats,2020.2.10,59.96393765064518,
faqir,faqir,,,,,0,42,42,42,,,,,,,,324.46072599990293,None,"['f', 'a', 'q', 'i', 'r']",1,"[0.5664806002750993, 0.7104609999805689, 0.9665760002098978, 1.0865946002304554, 1.2385764000937343]",324.46072599990293,None,324.46072509996594,None,,,,,,,,,,,,s240_11162023,001,2023-11-16_16h30.40.222,test_typingtask_norepeats,2020.2.10,59.96393765064518,
theme,theme,,,,,0,43,43,43,,,,,,,,329.9607862001285,None,"['t', 'h', 'e', 'm', 'e']",1,"[0.562529600225389, 0.6265674000605941, 0.7944939001463354, 0.9305318999104202, 1.0183779001235962]",329.9607862001285,None,329.9607596999966,None,,,,,,,,,,,,s240_11162023,001,2023-11-16_16h30.40.222,test_typingtask_norepeats,2020.2.10,59.96393765064518,
belly,belly,,,,,0,44,44,44,,,,,,,,335.4608285999857,None,"['b', 'e', 'l', 'l', 'y']",1,"[0.6064380002208054, 0.8463088003918529, 0.9984019002877176, 1.1502485000528395, 1.3024043003097177]",335.4608285999857,None,335.46082500014455,None,,,,,,,,,,,,s240_11162023,001,2023-11-16_16h30.40.222,test_typingtask_norepeats,2020.2.10,59.96393765064518,
therm,therm,,,,,0,45,45,45,,,,,,,,340.9608142999932,None,"['t', 'h', 'e', 'r', 'm']",1,"[0.5543450997211039, 0.6583640999160707, 0.7784527996554971, 0.8585632997564971, 0.9544921997003257]",340.9608142999932,None,340.960820200108,None,,,,,,,,,,,,s240_11162023,001,2023-11-16_16h30.40.222,test_typingtask_norepeats,2020.2.10,59.96393765064518,
faqir,faqir,,,,,0,46,46,46,,,,,,,,346.4608812001534,None,"['f', 'a', 'q', 'i', 'r']",1,"[0.5663182004354894, 0.7263326002284884, 1.1422639000229537, 1.2942932001315057, 1.4623959003947675]",346.4608812001534,None,346.4609105002135,None,,,,,,,,,,,,s240_11162023,001,2023-11-16_16h30.40.222,test_typingtask_norepeats,2020.2.10,59.96393765064518,
theme,theme,,,,,0,47,47,47,,,,,,,,351.9609189000912,None,"['t', 'h', 'e', 'm', 'e']",1,"[0.4663082999177277, 0.562208800110966, 0.6903796000406146, 0.8022198001854122, 0.8824352002702653]",351.9609189000912,None,351.9609062999487,352.0609110002406,,,,,,,,,,,,s240_11162023,001,2023-11-16_16h30.40.222,test_typingtask_norepeats,2020.2.10,59.96393765064518,
think,think,,,,,0,48,48,48,,,,,,,,357.46093840012327,None,"['t', 'h', 'i', 'n', 'k']",1,"[0.6862631002441049, 0.7584444000385702, 0.9184072003699839, 1.0622626999393106, 1.2702764002606273]",357.46093840012327,None,357.4609359001741,357.5609341003001,,,,,,,,,,,,s240_11162023,001,2023-11-16_16h30.40.222,test_typingtask_norepeats,2020.2.10,59.96393765064518,
pykka,pykka,,,,,0,49,49,49,,,,,,,,362.96092960005626,None,"['p', 'y', 'k', 'k', 'a']",1,"[0.6184685998596251, 0.7624146998859942, 1.0742534999735653, 1.2183739999309182, 1.3383375001139939]",362.96092960005626,None,362.960991600249,363.0609718998894,,,,,,,,,,,,s240_11162023,001,2023-11-16_16h30.40.222,test_typingtask_norepeats,2020.2.10,59.96393765064518,
druze,druze,,,,,0,50,50,50,,,,,,,,368.4609836000018,None,"['d', 'r', 'u', 'z', 'e']",1,"[0.5342076998203993, 1.0941947000101209, 1.2781959995627403, 1.4221738995984197, 1.5742081999778748]",368.4609836000018,None,368.4609980002977,368.56100630015135,,,,,,,,,,,,s240_11162023,001,2023-11-16_16h30.40.222,test_typingtask_norepeats,2020.2.10,59.96393765064518,
belly,belly,,,,,0,51,51,51,,,,,,,,373.9610025002621,None,"['b', 'e', 'l', 'l', 'y']",1,"[0.7541843000799417, 0.962338900193572, 1.1063327002339065, 1.2503574998117983, 1.4021458001807332]",373.9610025002621,None,373.96102680005134,374.06102420017123,,,,,,,,,,,,s240_11162023,001,2023-11-16_16h30.40.222,test_typingtask_norepeats,2020.2.10,59.96393765064518,
tithe,tithe,,,,,0,52,52,52,,,,,,,,379.46105570020154,None,"['t', 'i', 't', 'h', 'e']",1,"[0.5741347996518016, 0.670344399753958, 0.7981332996860147, 0.9102809997275472, 1.0142759997397661]",379.46105570020154,None,379.4610707002692,None,,,,,,,,,,,,s240_11162023,001,2023-11-16_16h30.40.222,test_typingtask_norepeats,2020.2.10,59.96393765064518,
champ,champ,,,,,0,53,53,53,,,,,,,,384.9610871998593,None,"['c', 'h', 'a', 'm', 'p']",1,"[0.5781509000808001, 0.6661648000590503, 0.8901734999381006, 0.9861480002291501, 1.1141802002675831]",384.9610871998593,None,384.9610976001248,385.06109010009095,,,,,,,,,,,,s240_11162023,001,2023-11-16_16h30.40.222,test_typingtask_norepeats,2020.2.10,59.96393765064518,
druze,druze,,,,,0,54,54,54,,,,,,,,390.4613919002004,None,"['d', 'r', 'u', 'z', 'e']",1,"[0.5898382999002934, 0.8378852000460029, 0.9979232000187039, 1.1337951002642512, 1.2779198000207543]",390.4613919002004,None,390.46109269997106,None,,,,,,,,,,,,s240_11162023,001,2023-11-16_16h30.40.222,test_typingtask_norepeats,2020.2.10,59.96393765064518,
champ,champ,,,,,0,55,55,55,,,,,,,,395.96111640008166,None,"['c', 'h', 'a', 'm', 'p']",1,"[0.6101142996922135, 0.7141376999206841, 0.8582248999737203, 0.9941608998924494, 1.1381049999035895]",395.96111640008166,None,395.9611188002862,None,,,,,,,,,,,,s240_11162023,001,2023-11-16_16h30.40.222,test_typingtask_norepeats,2020.2.10,59.96393765064518,
vanru,vanru,,,,,0,56,56,56,,,,,,,,401.46116530010477,None,"['v', 'a', 'n', 'r', 'u']",1,"[0.6380456001497805, 0.750018899794668, 0.8860160997137427, 1.0620047999545932, 1.1821771999821067]",401.46116530010477,None,401.46118000028656,None,,,,,,,,,,,,s240_11162023,001,2023-11-16_16h30.40.222,test_typingtask_norepeats,2020.2.10,59.96393765064518,
buddy,buddy,,,,,0,57,57,57,,,,,,,,406.9612104999833,None,"['b', 'u', 'd', 'd', 'y']",1,"[0.6500674998387694, 0.8819777998141944, 1.0341349001973867, 1.2182395998388529, 1.2981195002794266]",406.9612104999833,None,406.96120970016347,None,,,,,,,,,,,,s240_11162023,001,2023-11-16_16h30.40.222,test_typingtask_norepeats,2020.2.10,59.96393765064518,
edthe,edthe,,,,,0,58,58,58,,,,,,,,412.46124250022694,None,"['e', 'd', 't', 'h', 'e']",1,"[0.5900233997963369, 0.782078200019896, 0.9500008998438716, 1.0381232998333871, 1.134051499888301]",412.46124250022694,None,412.4612509000115,None,,,,,,,,,,,,s240_11162023,001,2023-11-16_16h30.40.222,test_typingtask_norepeats,2020.2.10,59.96393765064518,
champ,champ,,,,,0,59,59,59,,,,,,,,417.96127890003845,None,"['c', 'h', 'a', 'm', 'p']",1,"[0.521975299809128, 0.6420399998314679, 0.818043100181967, 0.9618998998776078, 1.3779641999863088]",417.96127890003845,None,417.9612539002672,None,,,,,,,,,,,,s240_11162023,001,2023-11-16_16h30.40.222,test_typingtask_norepeats,2020.2.10,59.96393765064518,
pykka,pykka,,,,,0,60,60,60,,,,,,,,423.46130419988185,None,"['p', 'y', 'k', 'k', 'a']",1,"[0.5979096996597946, 0.7179471999406815, 1.013948299922049, 1.1500723999924958, 1.2620542999356985]",423.46130419988185,None,423.4613007001579,None,,,,,,,,,,,,s240_11162023,001,2023-11-16_16h30.40.222,test_typingtask_norepeats,2020.2.10,59.96393765064518,
lucky,lucky,,,,,0,61,61,61,,,,,,,,428.9613395999186,None,"['l', 'u', 'c', 'k', 'y']",1,"[0.49793090019375086, 0.6419347003102303, 1.001986900344491, 1.1301499004475772, 1.2819680999964476]",428.9613395999186,None,428.96131810005755,None,,,,,,,,,,,,s240_11162023,001,2023-11-16_16h30.40.222,test_typingtask_norepeats,2020.2.10,59.96393765064518,
vodka,vodka,,,,,0,62,62,62,,,,,,,,434.46134999999776,None,"['v', 'o', 'd', 'k', 'a']",1,"[0.9259190997108817, 1.0298814997076988, 1.173939900007099, 1.3500621998682618, 1.461838100105524]",434.46134999999776,None,434.4613553999923,None,,,,,,,,,,,,s240_11162023,001,2023-11-16_16h30.40.222,test_typingtask_norepeats,2020.2.10,59.96393765064518,
heond,heond,,,,,0,63,63,63,,,,,,,,439.9614010001533,None,"['h', 'e', 'o', 'n', 'd']",1,"[0.5858336999081075, 0.7779566999524832, 0.9061668999493122, 0.9859931999817491, 1.137960399966687]",439.9614010001533,None,439.9614047000185,None,,,,,,,,,,,,s240_11162023,001,2023-11-16_16h30.40.222,test_typingtask_norepeats,2020.2.10,59.96393765064518,
belly,belly,,,,,0,64,64,64,,,,,,,,445.46144270012155,None,"['b', 'e', 'l', 'l', 'y']",1,"[0.549821499735117, 0.7737709996290505, 0.9579229997470975, 1.1259351996704936, 1.285808699671179]",445.46144270012155,None,445.46143970005215,None,,,,,,,,,,,,s240_11162023,001,2023-11-16_16h30.40.222,test_typingtask_norepeats,2020.2.10,59.96393765064518,
faqir,faqir,,,,,0,65,65,65,,,,,,,,450.96147020021453,None,"['f', 'a', 'q', 'i', 'r']",1,"[0.6178108998574317, 0.7218100000172853, 0.9538928996771574, 1.073806899599731, 1.209897099994123]",450.96147020021453,None,450.9614347998984,None,,,,,,,,,,,,s240_11162023,001,2023-11-16_16h30.40.222,test_typingtask_norepeats,2020.2.10,59.96393765064518,
lucky,lucky,,,,,0,66,66,66,,,,,,,,456.46149929985404,None,"['l', 'u', 'c', 'k', 'y']",1,"[0.5497832000255585, 0.7097789999097586, 1.029720100108534, 1.141729200258851, 1.3738370002247393]",456.46149929985404,None,456.4614713999443,None,,,,,,,,,,,,s240_11162023,001,2023-11-16_16h30.40.222,test_typingtask_norepeats,2020.2.10,59.96393765064518,
therm,therm,,,,,0,67,67,67,,,,,,,,461.96151000028476,None,"['t', 'h', 'e', 'r', 'm']",1,"[0.5377834998071194, 0.6343199000693858, 0.833814799785614, 0.8497023996897042, 0.9857922000810504]",461.96151000028476,None,461.96155020007865,None,,,,,,,,,,,,s240_11162023,001,2023-11-16_16h30.40.222,test_typingtask_norepeats,2020.2.10,59.96393765064518,
think,think,,,,,0,68,68,68,,,,,,,,467.4615758000873,None,"['t', 'h', 'i', 'n', 'k']",1,"[0.5736654000356793, 0.6778194000944495, 0.837937300093472, 0.9576233001425862, 1.2297121002338827]",467.4615758000873,None,467.461570600234,None,,,,,,,,,,,,s240_11162023,001,2023-11-16_16h30.40.222,test_typingtask_norepeats,2020.2.10,59.96393765064518,
vodka,vodka,,,,,0,69,69,69,,,,,,,,472.96160739986226,None,"['v', 'o', 'd', 'k', 'a']",1,"[0.6736442996188998, 0.7936144997365773, 0.945705299731344, 1.17778359958902, 1.2655944996513426]",472.96160739986226,None,472.9615988002159,None,,,,,,,,,,,,s240_11162023,001,2023-11-16_16h30.40.222,test_typingtask_norepeats,2020.2.10,59.96393765064518,
kremp,kremp,,,,,0,70,70,70,,,,,,,,478.46162960026413,None,"['k', 'r', 'e', 'm', 'p']",1,"[0.5256230002269149, 0.7015820001251996, 0.8136131004430354, 0.9176129000261426, 1.0297608003020287]",478.46162960026413,None,478.4616370002739,None,,,,,,,,,,,,s240_11162023,001,2023-11-16_16h30.40.222,test_typingtask_norepeats,2020.2.10,59.96393765064518,
there,there,,,,,0,71,71,71,,,,,,,,483.9616624000482,None,"['t', 'h', 'e', 'r', 'e']",1,"[0.5616613999009132, 0.6976133002899587, 0.8255811003036797, 0.8895792001858354, 1.0176985003054142]",483.9616624000482,None,483.96166560025887,None,,,,,,,,,,,,s240_11162023,001,2023-11-16_16h30.40.222,test_typingtask_norepeats,2020.2.10,59.96393765064518,
cooed,cooed,,,,,0,72,72,72,,,,,,,,489.4616922000423,None,"['c', 'o', 'o', 'e', 'd']",1,"[0.6375668002292514, 0.8456991002894938, 0.9735497999936342, 1.125571200158447, 1.3177396999672055]",489.4616922000423,None,489.46170069994406,None,,,,,,,,,,,,s240_11162023,001,2023-11-16_16h30.40.222,test_typingtask_norepeats,2020.2.10,59.96393765064518,
champ,champ,,,,,0,73,73,73,,,,,,,,494.96170009998605,None,"['c', 'h', 'a', 'm', 'p']",1,"[0.5375608997419477, 0.6096095000393689, 0.7615347998216748, 0.857689700089395, 0.9615353997796774]",494.96170009998605,None,494.96173569997774,None,,,,,,,,,,,,s240_11162023,001,2023-11-16_16h30.40.222,test_typingtask_norepeats,2020.2.10,59.96393765064518,
druze,druze,,,,,0,74,74,74,,,,,,,,500.46177410008386,None,"['d', 'r', 'u', 'z', 'e']",1,"[0.5015014000236988, 0.7734548998996615, 0.9655684996396303, 1.1014867997728288, 1.3337575998157263]",500.46177410008386,None,500.46177040012554,None,,,,,,,,,,,,s240_11162023,001,2023-11-16_16h30.40.222,test_typingtask_norepeats,2020.2.10,59.96393765064518,
tithe,tithe,,,,,0,75,75,75,,,,,,,,505.96177650010213,None,"['t', 'i', 't', 'h', 'e']",1,"[0.5694956001825631, 0.6734983003698289, 0.7775681000202894, 0.9534741002134979, 1.0896397000178695]",505.96177650010213,None,505.9618050001562,None,,,,,,,,,,,,s240_11162023,001,2023-11-16_16h30.40.222,test_typingtask_norepeats,2020.2.10,59.96393765064518,
faqir,faqir,,,,,0,76,76,76,,,,,,,,511.46183879999444,None,"['f', 'a', 'q', 'i', 'r']",1,"[0.7016229997389019, 0.8294641999527812, 1.1254678997211158, 1.2855222998186946, 1.4055363000370562]",511.46183879999444,None,511.46187269985677,None,,,,,,,,,,,,s240_11162023,001,2023-11-16_16h30.40.222,test_typingtask_norepeats,2020.2.10,59.96393765064518,
edthe,edthe,,,,,0,77,77,77,,,,,,,,516.9618438002653,None,"['e', 'd', 't', 'h', 'e']",1,"[0.6014121999032795, 0.8014576002024114, 1.0336178001016378, 1.1455128001980484, 1.2254710998386145]",516.9618438002653,None,516.9618777001276,None,,,,,,,,,,,,s240_11162023,001,2023-11-16_16h30.40.222,test_typingtask_norepeats,2020.2.10,59.96393765064518,
think,think,,,,,0,78,78,78,,,,,,,,522.4618643000722,None,"['t', 'h', 'i', 'n', 'k']",1,"[0.5654215002432466, 0.6614435003139079, 0.8294131001457572, 0.9654653002507985, 1.1494923001155257]",522.4618643000722,None,522.4619382998906,None,,,,,,,,,,,,s240_11162023,001,2023-11-16_16h30.40.222,test_typingtask_norepeats,2020.2.10,59.96393765064518,
pykka,pykka,,,,,0,79,79,79,,,,,,,,527.9618950001895,None,"['p', 'y', 'k', 'k', 'a']",1,"[0.6573866000398993, 0.8015951002016664, 1.0653695003129542, 1.2094706003554165, 1.3213667999953032]",527.9618950001895,None,527.9619446999393,None,,,,,,,,,,,,s240_11162023,001,2023-11-16_16h30.40.222,test_typingtask_norepeats,2020.2.10,59.96393765064518,
buddy,buddy,,,,,0,80,80,80,,,,,,,,533.4619638998993,None,"['b', 'u', 'd', 'd', 'y']",1,"[0.6373437000438571, 0.8534698998555541, 1.1015033000148833, 1.2293906998820603, 1.3495044000446796]",533.4619638998993,None,533.4619883002713,None,,,,,,,,,,,,s240_11162023,001,2023-11-16_16h30.40.222,test_typingtask_norepeats,2020.2.10,59.96393765064518,
about,about,,,,,0,81,81,81,,,,,,,,538.9620026000775,None,"['a', 'b', 'o', 'u', 't']",1,"[0.497221099678427, 0.6013353997841477, 0.8336719996295869, 0.8973792996257544, 1.057405199855566]",538.9620026000775,None,538.9620037001557,None,,,,,,,,,,,,s240_11162023,001,2023-11-16_16h30.40.222,test_typingtask_norepeats,2020.2.10,59.96393765064518,
vanru,vanru,,,,,0,82,82,82,,,,,,,,544.4620439000428,None,"['v', 'a', 'n', 'r', 'u']",1,"[0.7492967997677624, 0.8532610000111163, 1.0052350000478327, 1.1653506997972727, 1.2612295998260379]",544.4620439000428,None,544.4620427998714,None,,,,,,,,,,,,s240_11162023,001,2023-11-16_16h30.40.222,test_typingtask_norepeats,2020.2.10,59.96393765064518,
buddy,buddy,,,,,0,83,83,83,,,,,,,,549.9620727002621,None,"['b', 'u', 'd', 'd', 'y']",1,"[0.7212644000537694, 0.9132141000591218, 1.1132233999669552, 1.2652690997347236, 1.3856072998605669]",549.9620727002621,None,549.9620741002261,None,,,,,,,,,,,,s240_11162023,001,2023-11-16_16h30.40.222,test_typingtask_norepeats,2020.2.10,59.96393765064518,
faqir,faqir,,,,,0,84,84,84,,,,,,,,555.4620945998468,None,"['f', 'a', 'q', 'i', 'r']",1,"[0.6214868002571166, 0.7491862000897527, 1.01315540028736, 1.1572791999205947, 1.2613466000184417]",555.4620945998468,None,555.4621130001731,None,,,,,,,,,,,,s240_11162023,001,2023-11-16_16h30.40.222,test_typingtask_norepeats,2020.2.10,59.96393765064518,
cheer,cheer,,,,,0,85,85,85,,,,,,,,560.9621378001757,None,"['c', 'h', 'e', 'e', 'r']",1,"[0.5851894998922944, 0.6891371998935938, 0.8572074002586305, 1.0092918002046645, 1.0811824002303183]",560.9621378001757,None,560.9621429002843,None,,,,,,,,,,,,s240_11162023,001,2023-11-16_16h30.40.222,test_typingtask_norepeats,2020.2.10,59.96393765064518,
therm,therm,,,,,0,86,86,86,,,,,,,,566.4621705999598,None,"['t', 'h', 'e', 'r', 'm']",1,"[0.5971832000650465, 0.7173421001061797, 0.9092784998938441, 1.0131636997684836, 1.0931351999752223]",566.4621705999598,None,566.4621719002723,None,,,,,,,,,,,,s240_11162023,001,2023-11-16_16h30.40.222,test_typingtask_norepeats,2020.2.10,59.96393765064518,
about,about,,,,,0,87,87,87,,,,,,,,571.9621794000268,None,"['a', 'b', 'o', 'u', 't']",1,"[0.5531258000992239, 0.6971220001578331, 0.953173500020057, 1.057126299943775, 1.2091365000233054]",571.9621794000268,None,571.9621775999665,None,,,,,,,,,,,,s240_11162023,001,2023-11-16_16h30.40.222,test_typingtask_norepeats,2020.2.10,59.96393765064518,
edthe,edthe,,,,,0,88,88,88,,,,,,,,577.4622106002644,None,"['e', 'd', 't', 'h', 'e']",1,"[0.613149500451982, 0.8373135002329946, 1.0931850001215935, 1.1811720002442598, 1.317404200322926]",577.4622106002644,None,577.4622150000184,None,,,,,,,,,,,,s240_11162023,001,2023-11-16_16h30.40.222,test_typingtask_norepeats,2020.2.10,59.96393765064518,
about,about,,,,,0,89,89,89,,,,,,,,582.9622789002024,None,"['a', 'b', 'o', 'u', 't']",1,"[0.4650377999059856, 0.6010507000610232, 0.8410836001858115, 0.90506980009377, 1.0252004000358284]",582.9622789002024,None,582.9622478002682,None,,,,,,,,,,,,s240_11162023,001,2023-11-16_16h30.40.222,test_typingtask_norepeats,2020.2.10,59.96393765064518,
kremp,kremp,,,,,0,90,90,90,,,,,,,,588.4622752000578,None,"['k', 'r', 'e', 'm', 'p']",1,"[0.6290544997900724, 0.781067700125277, 0.8692223001271486, 1.0050424998626113, 1.125183700118214]",588.4622752000578,None,588.4623169998638,None,,,,,,,,,,,,s240_11162023,001,2023-11-16_16h30.40.222,test_typingtask_norepeats,2020.2.10,59.96393765064518,
there,there,,,,,0,91,91,91,,,,,,,,593.9623694000766,None,"['t', 'h', 'e', 'r', 'e']",1,"[0.5449544000439346, 0.6328982999548316, 0.8090266999788582, 0.8249884000979364, 0.9609701000154018]",593.9623694000766,None,593.9623523999005,None,,,,,,,,,,,,s240_11162023,001,2023-11-16_16h30.40.222,test_typingtask_norepeats,2020.2.10,59.96393765064518,
vanru,vanru,,,,,0,92,92,92,,,,,,,,599.4623827999458,None,"['v', 'a', 'n', 'r', 'u']",1,"[0.7569577000103891, 0.8929758998565376, 1.0530523997731507, 1.2209776998497546, 1.340920299757272]",599.4623827999458,None,599.4623896001838,None,,,,,,,,,,,,s240_11162023,001,2023-11-16_16h30.40.222,test_typingtask_norepeats,2020.2.10,59.96393765064518,
buddy,buddy,,,,,0,93,93,93,,,,,,,,604.9624176002108,None,"['b', 'u', 'd', 'd', 'y']",1,"[0.5851292000152171, 0.7929915003478527, 0.9689534003846347, 1.1370434002019465, 1.26494330028072]",604.9624176002108,None,604.9624241000972,None,,,,,,,,,,,,s240_11162023,001,2023-11-16_16h30.40.222,test_typingtask_norepeats,2020.2.10,59.96393765064518,
heond,heond,,,,,0,94,94,94,,,,,,,,610.4624560000375,None,"['h', 'e', 'o', 'n', 'd']",1,"[0.564919900149107, 0.7889196001924574, 0.9970114999450743, 1.0770208998583257, 1.260887499898672]",610.4624560000375,None,610.4624229000881,None,,,,,,,,,,,,s240_11162023,001,2023-11-16_16h30.40.222,test_typingtask_norepeats,2020.2.10,59.96393765064518,
think,think,,,,,0,95,95,95,,,,,,,,615.9624892002903,None,"['t', 'h', 'i', 'n', 'k']",1,"[0.6808519000187516, 0.7688267999328673, 0.9048909996636212, 1.384946699719876, 1.520955499727279]",615.9624892002903,None,615.9624646000564,None,,,,,,,,,,,,s240_11162023,001,2023-11-16_16h30.40.222,test_typingtask_norepeats,2020.2.10,59.96393765064518,
zibja,zibja,,,,,0,96,96,96,,,,,,,,621.4625297002494,None,"['z', 'i', 'b', 'j', 'a']",1,"[0.6128584002144635, 0.7168342000804842, 0.9407768002711236, 1.1568542001768947, 1.2368864002637565]",621.4625297002494,None,621.4625298000872,None,,,,,,,,,,,,s240_11162023,001,2023-11-16_16h30.40.222,test_typingtask_norepeats,2020.2.10,59.96393765064518,
vanru,vanru,,,,,0,97,97,97,,,,,,,,626.9625928001478,None,"['v', 'a', 'n', 'r', 'u']",1,"[0.6247908002696931, 0.7527524000033736, 0.9208236001431942, 1.0489149000495672, 1.168804300017655]",626.9625928001478,None,626.9625830000266,None,,,,,,,,,,,,s240_11162023,001,2023-11-16_16h30.40.222,test_typingtask_norepeats,2020.2.10,59.96393765064518,
haole,haole,,,,,0,98,98,98,,,,,,,,632.4626720002852,None,"['h', 'a', 'o', 'l', 'e']",1,"[0.564682699739933, 0.6606656997464597, 0.8208056995645165, 1.0288518997840583, 1.1566675999201834]",632.4626720002852,None,632.4626500003039,None,,,,,,,,,,,,s240_11162023,001,2023-11-16_16h30.40.222,test_typingtask_norepeats,2020.2.10,59.96393765064518,
druze,druze,,,,,0,99,99,99,,,,,,,,637.9626364000142,None,"['d', 'r', 'u', 'z', 'e']",1,"[0.5127558000385761, 0.7607821999117732, 0.8886921000666916, 1.0406948002055287, 1.2086971001699567]",637.9626364000142,None,637.9626077000983,None,,,,,,,,,,,,s240_11162023,001,2023-11-16_16h30.40.222,test_typingtask_norepeats,2020.2.10,59.96393765064518,
lucky,lucky,,,,,0,100,100,100,,,,,,,,643.4626728002913,None,"['l', 'u', 'c', 'k', 'y']",1,"[0.5406891000457108, 0.6767683001235127, 0.92475980008021, 1.0048470003530383, 1.1488389000296593]",643.4626728002913,None,643.4626508999615,None,,,,,,,,,,,,s240_11162023,001,2023-11-16_16h30.40.222,test_typingtask_norepeats,2020.2.10,59.96393765064518,
there,there,,,,,0,101,101,101,,,,,,,,648.9626849000342,None,"['t', 'h', 'e', 'r', 'e']",1,"[0.5527191003784537, 0.6169167002663016, 0.7446677000261843, 0.8167532002553344, 0.9206823999993503]",648.9626849000342,None,648.9627079001627,None,,,,,,,,,,,,s240_11162023,001,2023-11-16_16h30.40.222,test_typingtask_norepeats,2020.2.10,59.96393765064518,
about,about,,,,,0,102,102,102,,,,,,,,654.4627256998792,None,"['a', 'b', 'o', 'u', 't']",1,"[0.4607057999819517, 0.564674399793148, 0.7886498998850584, 0.8366388999857008, 0.9566291999071836]",654.4627256998792,None,654.4627479000017,None,,,,,,,,,,,,s240_11162023,001,2023-11-16_16h30.40.222,test_typingtask_norepeats,2020.2.10,59.96393765064518,
heond,heond,,,,,0,103,103,103,,,,,,,,659.9627931001596,None,"['h', 'e', 'o', 'n', 'd']",1,"[0.6006203000433743, 0.8008620999753475, 0.9446073998697102, 1.0325724999420345, 1.160701799672097]",659.9627931001596,None,659.9627911999821,None,,,,,,,,,,,,s240_11162023,001,2023-11-16_16h30.40.222,test_typingtask_norepeats,2020.2.10,59.96393765064518,
kremp,kremp,,,,,0,104,104,104,,,,,,,,665.4628194002435,None,"['k', 'r', 'e', 'm', 'p']",1,"[0.6206009001471102, 0.9246030999347568, 1.0926198000088334, 1.2446942003443837, 1.3885777001269162]",665.4628194002435,None,665.4628331001848,None,,,,,,,,,,,,s240_11162023,001,2023-11-16_16h30.40.222,test_typingtask_norepeats,2020.2.10,59.96393765064518,
heond,heond,,,,,0,105,105,105,,,,,,,,670.9628313002177,None,"['h', 'e', 'o', 'n', 'd']",1,"[0.5525305001065135, 0.7365071997046471, 0.9286952000111341, 1.032567699905485, 1.240606099832803]",670.9628313002177,None,670.9628185999579,None,,,,,,,,,,,,s240_11162023,001,2023-11-16_16h30.40.222,test_typingtask_norepeats,2020.2.10,59.96393765064518,
would,would,,,,,0,106,106,106,,,,,,,,676.4628687999211,None,"['w', 'o', 'u', 'l', 'd']",1,"[0.5965709998272359, 0.6766571998596191, 0.7726578000001609, 0.9804356000386178, 1.1325471000745893]",676.4628687999211,None,676.4629029000178,None,,,,,,,,,,,,s240_11162023,001,2023-11-16_16h30.40.222,test_typingtask_norepeats,2020.2.10,59.96393765064518,
cheer,cheer,,,,,0,107,107,107,,,,,,,,681.9629049999639,None,"['c', 'h', 'e', 'e', 'r']",1,"[0.6084964997135103, 0.6964662997052073, 0.8804601998999715, 1.040507699828595, 1.1366657996550202]",681.9629049999639,None,681.9629874999634,None,,,,,,,,,,,,s240_11162023,001,2023-11-16_16h30.40.222,test_typingtask_norepeats,2020.2.10,59.96393765064518,
haole,haole,,,,,0,108,108,108,,,,,,,,687.4629371999763,None,"['h', 'a', 'o', 'l', 'e']",1,"[0.5165055999532342, 0.6527525000274181, 0.7726043998263776, 0.9804374999366701, 1.1165796001441777]",687.4629371999763,None,687.4629218999296,None,,,,,,,,,,,,s240_11162023,001,2023-11-16_16h30.40.222,test_typingtask_norepeats,2020.2.10,59.96393765064518,
theme,theme,,,,,0,109,109,109,,,,,,,,692.9630416003056,None,"['t', 'h', 'e', 'm', 'e']",1,"[0.624396899715066, 0.7206019000150263, 0.8644626997411251, 0.9923555999994278, 1.0805502999573946]",692.9630416003056,None,692.963031199947,693.0629981001839,,,,,,,,,,,,s240_11162023,001,2023-11-16_16h30.40.222,test_typingtask_norepeats,2020.2.10,59.96393765064518,
puppy,puppy,,,,,0,110,110,110,,,,,,,,698.4630065001547,None,"['p', 'u', 'p', 'p', 'y']",1,"[0.5963878999464214, 0.7244004001840949, 0.9324491997249424, 1.0764319999143481, 1.236541099846363]",698.4630065001547,None,698.4630365001037,None,,,,,,,,,,,,s240_11162023,001,2023-11-16_16h30.40.222,test_typingtask_norepeats,2020.2.10,59.96393765064518,
zibja,zibja,,,,,0,111,111,111,,,,,,,,703.9630865999497,None,"['z', 'i', 'b', 'j', 'a']",1,"[0.5845245998352766, 0.7044250001199543, 0.9683040999807417, 1.1843615001998842, 1.264457699842751]",703.9630865999497,None,703.9630384000018,704.063080099877,,,,,,,,,,,,s240_11162023,001,2023-11-16_16h30.40.222,test_typingtask_norepeats,2020.2.10,59.96393765064518,
cooed,cooed,,,,,0,112,112,112,,,,,,,,709.4631018000655,None,"['c', 'o', 'o', 'e', 'd']",1,"[0.5084946998395026, 0.8203448997810483, 1.020320000126958, 1.2922979001887143, 1.4762973999604583]",709.4631018000655,None,709.4630762000568,709.5631051003002,,,,,,,,,,,,s240_11162023,001,2023-11-16_16h30.40.222,test_typingtask_norepeats,2020.2.10,59.96393765064518,
cheer,cheer,,,,,0,113,113,113,,,,,,,,714.9631703998893,None,"['c', 'h', 'e', 'e', 'r']",1,"[0.5042516998946667, 0.6002479996532202, 0.7362369997426867, 0.8883680999279022, 0.9603101997636259]",714.9631703998893,None,714.9631501000374,715.0631099999882,,,,,,,,,,,,s240_11162023,001,2023-11-16_16h30.40.222,test_typingtask_norepeats,2020.2.10,59.96393765064518,
haole,haole,,,,,0,114,114,114,,,,,,,,720.4631974999793,None,"['h', 'a', 'o', 'l', 'e']",1,"[0.5322104999795556, 0.6362596000544727, 0.780453400220722, 1.028345700353384, 1.2043579001910985]",720.4631974999793,None,720.4631833002902,720.5631567002274,,,,,,,,,,,,s240_11162023,001,2023-11-16_16h30.40.222,test_typingtask_norepeats,2020.2.10,59.96393765064518,
vodka,vodka,,,,,0,115,115,115,,,,,,,,725.9634831999429,None,"['v', 'o', 'k', 'a']",0,"[0.6879774001426995, 0.7919831997714937, 1.0479969000443816, 1.8479217998683453]",725.9634831999429,None,725.9632242999039,726.0632736003026,,,,,,,,,,,,s240_11162023,001,2023-11-16_16h30.40.222,test_typingtask_norepeats,2020.2.10,59.96393765064518,
champ,champ,,,,,0,116,116,116,,,,,,,,731.4632652001455,None,"['c', 'h', 'a', 'm', 'p']",1,"[0.5721479998901486, 0.6286291000433266, 0.7801888999529183, 0.9082824997603893, 1.044315599836409]",731.4632652001455,None,731.463272100035,731.5632549002767,,,,,,,,,,,,s240_11162023,001,2023-11-16_16h30.40.222,test_typingtask_norepeats,2020.2.10,59.96393765064518,
vanru,vanru,,,,,0,117,117,117,,,,,,,,736.9635375002399,None,"['v', 'a', 'n', 'r', 'u']",1,"[0.7119072997011244, 0.8238362995907664, 0.944013699889183, 1.1439125998876989, 1.2720970995724201]",736.9635375002399,None,736.9632976001128,737.0633235001005,,,,,,,,,,,,s240_11162023,001,2023-11-16_16h30.40.222,test_typingtask_norepeats,2020.2.10,59.96393765064518,
vodka,vodka,,,,,0,118,118,118,,,,,,,,742.4633603999391,None,"['v', 'o', 'd', 'k', 'a']",1,"[0.5721262004226446, 0.7320576002821326, 0.8841960001736879, 1.0361304003745317, 1.1800656002014875]",742.4633603999391,None,742.4633214000612,None,,,,,,,,,,,,s240_11162023,001,2023-11-16_16h30.40.222,test_typingtask_norepeats,2020.2.10,59.96393765064518,
cheer,cheer,,,,,0,119,119,119,,,,,,,,747.9637257000431,None,"['c', 'h', 'e', 'e', 'r']",1,"[0.6797481002286077, 0.7757462002336979, 0.9756783000193536, 1.1357356002554297, 1.1999371000565588]",747.9637257000431,None,747.9633522002957,None,,,,,,,,,,,,s240_11162023,001,2023-11-16_16h30.40.222,test_typingtask_norepeats,2020.2.10,59.96393765064518,
puppy,puppy,,,,,,,,,0,0,0,0,,,,,,,,,,,,,753.46355269989,None,1053.4655025000684,None,"['p', 'u', 'p', 'p', 'y']",1,"[1.914180299732834, 2.0822368999943137, 2.314093600027263, 2.4661773000843823, 2.65809869999066]",1053.4655025000684,None,1053.4655248999595,1053.5655338000506,s240_11162023,001,2023-11-16_16h30.40.222,test_typingtask_norepeats,2020.2.10,59.96393765064518,
kremp,kremp,,,,,,,,,0,1,1,1,,,,,,,,,,,,,,,1058.965565700084,None,"['k', 'r', 'e', 'm', 'p']",1,"[0.5260582002811134, 0.758153900038451, 0.8622313002124429, 0.9261942999437451, 1.0701514002867043]",1058.965565700084,None,1058.9655477001331,None,s240_11162023,001,2023-11-16_16h30.40.222,test_typingtask_norepeats,2020.2.10,59.96393765064518,
think,think,,,,,,,,,0,2,2,2,,,,,,,,,,,,,,,1064.4656112999655,None,"['t', 'h', 'i', 'n', 'k']",1,"[0.5542109999805689, 0.6980103999376297, 0.802016899921, 0.9381184000521898, 1.1700634001754224]",1064.4656112999655,None,1064.4656088000163,None,s240_11162023,001,2023-11-16_16h30.40.222,test_typingtask_norepeats,2020.2.10,59.96393765064518,
lucky,lucky,,,,,,,,,0,3,3,3,,,,,,,,,,,,,,,1069.9656632002443,None,"['l', 'u', 'c', 'k', 'y']",1,"[0.5579589996486902, 0.7019384000450373, 0.9820411000400782, 1.093943899963051, 1.1819788999855518]",1069.9656632002443,None,1069.965644600056,None,s240_11162023,001,2023-11-16_16h30.40.222,test_typingtask_norepeats,2020.2.10,59.96393765064518,
theme,theme,,,,,,,,,0,4,4,4,,,,,,,,,,,,,,,1075.4658511001617,None,"['t', 'h', 'e', 'm', 'e']",1,"[0.5698226001113653, 0.6338562001474202, 0.7857854003086686, 0.8978249002248049, 0.9858627002686262]",1075.4658511001617,None,1075.4656539002433,None,s240_11162023,001,2023-11-16_16h30.40.222,test_typingtask_norepeats,2020.2.10,59.96393765064518,
vodka,vodka,,,,,,,,,0,5,5,5,,,,,,,,,,,,,,,1080.9657171000727,None,"['v', 'o', 'd', 'k', 'a']",1,"[0.6779824998229742, 0.7979600997641683, 0.9740419001318514, 1.166161899920553, 1.2778762998059392]",1080.9657171000727,None,1080.9656953999772,None,s240_11162023,001,2023-11-16_16h30.40.222,test_typingtask_norepeats,2020.2.10,59.96393765064518,
there,there,,,,,,,,,0,6,6,6,,,,,,,,,,,,,,,1086.465766500216,None,"['t', 'h', 'e', 'r', 'e']",1,"[0.5698724002577364, 0.6498944000340998, 0.8019026000984013, 0.8659421000629663, 0.9540160000324249]",1086.465766500216,None,1086.4657736999914,None,s240_11162023,001,2023-11-16_16h30.40.222,test_typingtask_norepeats,2020.2.10,59.96393765064518,
vanru,vanru,,,,,,,,,0,7,7,7,,,,,,,,,,,,,,,1091.965817600023,None,"['v', 'a', 'n', 'r', 'u']",1,"[0.6138634998351336, 0.7338214996270835, 0.8859680998139083, 1.1099018999375403, 1.4698055000044405]",1091.965817600023,None,1091.9658026999793,None,s240_11162023,001,2023-11-16_16h30.40.222,test_typingtask_norepeats,2020.2.10,59.96393765064518,
would,would,,,,,,,,,0,8,8,8,,,,,,,,,,,,,,,1097.465846600011,None,"['w', 'o', 'u', 'l', 'd']",1,"[0.6018055998720229, 0.7140504000708461, 0.7779454998672009, 1.0018050000071526, 1.1297945999540389]",1097.465846600011,None,1097.4658462001942,None,s240_11162023,001,2023-11-16_16h30.40.222,test_typingtask_norepeats,2020.2.10,59.96393765064518,
belly,belly,,,,,,,,,0,9,9,9,,,,,,,,,,,,,,,1102.965882600285,None,"['b', 'e', 'l', 'l', 'y']",1,"[1.1177703998982906, 1.3417731998488307, 1.5098997000604868, 1.6618217998184264, 1.8299173996783793]",1102.965882600285,None,1102.9658883001655,None,s240_11162023,001,2023-11-16_16h30.40.222,test_typingtask_norepeats,2020.2.10,59.96393765064518,
tithe,tithe,,,,,,,,,0,10,10,10,,,,,,,,,,,,,,,1108.4659211998805,None,"['t', 'i', 't', 'h', 'e']",1,"[0.5857667000964284, 0.6818257002159953, 0.8180023999884725, 0.9297889000736177, 1.0339152999222279]",1108.4659211998805,None,1108.4659381999634,None,s240_11162023,001,2023-11-16_16h30.40.222,test_typingtask_norepeats,2020.2.10,59.96393765064518,
edthe,edthe,,,,,,,,,0,11,11,11,,,,,,,,,,,,,,,1113.9659653999843,None,"['e', 'd', 't', 'h', 'e']",1,"[0.509750900324434, 0.7178666000254452, 0.9737383001483977, 1.077687400393188, 1.1497936001978815]",1113.9659653999843,None,1113.9659749001264,None,s240_11162023,001,2023-11-16_16h30.40.222,test_typingtask_norepeats,2020.2.10,59.96393765064518,
druze,druze,,,,,,,,,0,12,12,12,,,,,,,,,,,,,,,1119.4659774000756,None,"['d', 'r', 'u', 'z', 'e']",1,"[0.5377487996593118, 0.8417198997922242, 1.0258701997809112, 1.1536765997298062, 1.3456501998007298]",1119.4659774000756,None,1119.4660180999897,None,s240_11162023,001,2023-11-16_16h30.40.222,test_typingtask_norepeats,2020.2.10,59.96393765064518,
heond,heond,,,,,,,,,0,13,13,13,,,,,,,,,,,,,,,1124.9660454001278,None,"['h', 'e', 'o', 'n', 'd']",1,"[0.6056176000274718, 0.7657490000128746, 0.9257470001466572, 1.0216970001347363, 1.2136190002784133]",1124.9660454001278,None,1124.9660291999578,None,s240_11162023,001,2023-11-16_16h30.40.222,test_typingtask_norepeats,2020.2.10,59.96393765064518,
zibja,zibja,,,,,,,,,0,14,14,14,,,,,,,,,,,,,,,1130.4660543999635,None,"['z', 'i', 'b', 'j', 'a']",1,"[0.5856167003512383, 0.6736008999869227, 0.9377549001947045, 1.081730400212109, 1.2656523999758065]",1130.4660543999635,None,1130.4660898001864,None,s240_11162023,001,2023-11-16_16h30.40.222,test_typingtask_norepeats,2020.2.10,59.96393765064518,
therm,therm,,,,,,,,,0,15,15,15,,,,,,,,,,,,,,,1135.9661288000643,None,"['t', 'h', 'e', 'r', 'm']",1,"[0.5815841997973621, 0.6695270999334753, 0.7816873998381197, 0.8935230998322368, 0.9816703000105917]",1135.9661288000643,None,1135.9661093002185,None,s240_11162023,001,2023-11-16_16h30.40.222,test_typingtask_norepeats,2020.2.10,59.96393765064518,
cheer,cheer,,,,,,,,,0,16,16,16,,,,,,,,,,,,,,,1141.4661643998697,None,"['c', 'h', 'e', 'e', 'r']",1,"[0.5457542003132403, 0.6576828001998365, 0.8415727000683546, 0.9856352000497282, 1.0976414000615478]",1141.4661643998697,None,1141.4661793002858,None,s240_11162023,001,2023-11-16_16h30.40.222,test_typingtask_norepeats,2020.2.10,59.96393765064518,
haole,haole,,,,,,,,,0,17,17,17,,,,,,,,,,,,,,,1146.9661727999337,None,"['h', 'a', 'o', 'l', 'e']",1,"[0.5415109000168741, 0.6536690001375973, 0.8136338000185788, 1.0615849001333117, 1.173751000314951]",1146.9661727999337,None,1146.9662079002708,None,s240_11162023,001,2023-11-16_16h30.40.222,test_typingtask_norepeats,2020.2.10,59.96393765064518,
vodka,vodka,,,,,,,,,0,18,18,18,,,,,,,,,,,,,,,1152.4662206000648,None,"['v', 'o', 'd', 'k', 'a']",1,"[0.625501399859786, 0.7454496002756059, 0.9294771999120712, 1.1294595003128052, 1.2574331001378596]",1152.4662206000648,None,1152.4662519001402,None,s240_11162023,001,2023-11-16_16h30.40.222,test_typingtask_norepeats,2020.2.10,59.96393765064518,
theme,theme,,,,,,,,,0,19,19,19,,,,,,,,,,,,,,,1157.9663015999831,None,"['t', 'h', 'e', 'm', 'e']",1,"[0.645433499943465, 0.6935363002121449, 0.8613805002532899, 0.9494544002227485, 1.0453886999748647]",1157.9663015999831,None,1157.9662944001145,None,s240_11162023,001,2023-11-16_16h30.40.222,test_typingtask_norepeats,2020.2.10,59.96393765064518,
tithe,tithe,,,,,,,,,0,20,20,20,,,,,,,,,,,,,,,1163.4663295000792,None,"['t', 'i', 't', 'h', 'e']",1,"[0.5214195000007749, 0.6095334999263287, 0.7455293000675738, 0.8495331001468003, 0.9535223999992013]",1163.4663295000792,None,1163.466331199929,None,s240_11162023,001,2023-11-16_16h30.40.222,test_typingtask_norepeats,2020.2.10,59.96393765064518,
would,would,,,,,,,,,0,21,21,21,,,,,,,,,,,,,,,1168.9663698002696,None,"['w', 'o', 'u', 'l', 'd']",1,"[0.5653749997727573, 0.6534214997664094, 0.717580699827522, 0.9653377002105117, 1.1972340000793338]",1168.9663698002696,None,1168.9663680998608,None,s240_11162023,001,2023-11-16_16h30.40.222,test_typingtask_norepeats,2020.2.10,59.96393765064518,
think,think,,,,,,,,,0,22,22,22,,,,,,,,,,,,,,,1174.4664044003002,None,"['t', 'h', 'i', 'n', 'k']",1,"[0.5453957999125123, 0.6733261998742819, 0.8334133001044393, 0.9453293001279235, 1.1534496997483075]",1174.4664044003002,None,1174.466421700269,None,s240_11162023,001,2023-11-16_16h30.40.222,test_typingtask_norepeats,2020.2.10,59.96393765064518,
vanru,vanru,,,,,,,,,0,23,23,23,,,,,,,,,,,,,,,1179.9664350003004,None,"['v', 'a', 'n', 'r', 'u']",1,"[0.6293107997626066, 0.7812687996774912, 0.9253034996800125, 1.117208399809897, 1.2212850996293128]",1179.9664350003004,None,1179.9665941001847,None,s240_11162023,001,2023-11-16_16h30.40.222,test_typingtask_norepeats,2020.2.10,59.96393765064518,
lucky,lucky,,,,,,,,,0,24,24,24,,,,,,,,,,,,,,,1185.4664965001866,None,"['l', 'u', 'c', 'k', 'y']",1,"[0.505258799996227, 0.6252572000958025, 0.8813940002582967, 1.0012040003202856, 1.1212816000916064]",1185.4664965001866,None,1185.4664932002313,None,s240_11162023,001,2023-11-16_16h30.40.222,test_typingtask_norepeats,2020.2.10,59.96393765064518,
there,there,,,,,,,,,0,25,25,25,,,,,,,,,,,,,,,1190.9665010999888,None,"['t', 'h', 'e', 'r', 'e']",1,"[0.5652652001008391, 0.6452839998528361, 0.7812999999150634, 0.8453123001381755, 0.957205600105226]",1190.9665010999888,None,1190.9665644003078,None,s240_11162023,001,2023-11-16_16h30.40.222,test_typingtask_norepeats,2020.2.10,59.96393765064518,
vanru,vanru,,,,,,,,,0,26,26,26,,,,,,,,,,,,,,,1196.4665732001886,None,"['v', 'a', 'n', 'r', 'u']",1,"[0.6491435999050736, 0.761168499942869, 0.9052665000781417, 1.113202900160104, 1.2491569998674095]",1196.4665732001886,None,1196.4665365002118,None,s240_11162023,001,2023-11-16_16h30.40.222,test_typingtask_norepeats,2020.2.10,59.96393765064518,
therm,therm,,,,,,,,,0,27,27,27,,,,,,,,,,,,,,,1201.9665994001552,None,"['t', 'h', 'e', 'r', 'm']",1,"[0.6611636001616716, 0.7091983002610505, 0.8851161003112793, 0.9490191000513732, 1.0132579999044538]",1201.9665994001552,None,1201.96658119997,None,s240_11162023,001,2023-11-16_16h30.40.222,test_typingtask_norepeats,2020.2.10,59.96393765064518,
faqir,faqir,,,,,,,,,0,28,28,28,,,,,,,,,,,,,,,1207.4666520999745,None,"['f', 'a', 'q', 'i', 'r']",1,"[0.7851104000583291, 0.8731479002162814, 1.1850791000761092, 1.3291410999372602, 1.4574835998937488]",1207.4666520999745,None,1207.4666224002838,None,s240_11162023,001,2023-11-16_16h30.40.222,test_typingtask_norepeats,2020.2.10,59.96393765064518,
cooed,cooed,,,,,,,,,0,29,29,29,,,,,,,,,,,,,,,1212.9668403998949,None,"['c', 'o', 'o', 'e', 'd']",1,"[0.5888866996392608, 0.7809707997366786, 0.9008844997733831, 1.084918599575758, 1.2768877996131778]",1212.9668403998949,None,1212.9667138002812,None,s240_11162023,001,2023-11-16_16h30.40.222,test_typingtask_norepeats,2020.2.10,59.96393765064518,
about,about,,,,,,,,,0,30,30,30,,,,,,,,,,,,,,,1218.466740500182,None,"['a', 'b', 'o', 'u', 't']",1,"[0.553154299966991, 0.6410686001181602, 0.921000599861145, 1.0090660001151264, 1.1609768001362681]",1218.466740500182,None,1218.466746099945,None,s240_11162023,001,2023-11-16_16h30.40.222,test_typingtask_norepeats,2020.2.10,59.96393765064518,
belly,belly,,,,,,,,,0,31,31,31,,,,,,,,,,,,,,,1223.9668093002401,None,"['b', 'e', 'l', 'l', 'y']",1,"[0.5569731998257339, 0.7889576996676624, 0.900933999568224, 1.0450587999075651, 1.1728949998505414]",1223.9668093002401,None,1223.9667753001675,None,s240_11162023,001,2023-11-16_16h30.40.222,test_typingtask_norepeats,2020.2.10,59.96393765064518,
tithe,tithe,,,,,,,,,0,32,32,32,,,,,,,,,,,,,,,1229.4668121002614,None,"['t', 'i', 't', 'h', 'e']",1,"[0.6089523998089135, 0.7128834999166429, 0.8329205997288227, 0.9449964999221265, 1.0411451999098063]",1229.4668121002614,None,1229.4668231002986,None,s240_11162023,001,2023-11-16_16h30.40.222,test_typingtask_norepeats,2020.2.10,59.96393765064518,
puppy,puppy,,,,,,,,,0,33,33,33,,,,,,,,,,,,,,,1234.966856600251,None,"['p', 'u', 'p', 'p', 'y']",1,"[0.6289280001074076, 0.732948400080204, 0.9648532001301646, 1.1088586999103427, 1.308927200268954]",1234.966856600251,None,1234.9668588998727,None,s240_11162023,001,2023-11-16_16h30.40.222,test_typingtask_norepeats,2020.2.10,59.96393765064518,
vanru,vanru,,,,,,,,,0,34,34,34,,,,,,,,,,,,,,,1240.4668648000807,None,"['v', 'a', 'n', 'r', 'u']",1,"[0.7129148002713919, 0.8009020001627505, 0.961016499903053, 1.1449998999014497, 1.2328813001513481]",1240.4668648000807,None,1240.4668962002731,None,s240_11162023,001,2023-11-16_16h30.40.222,test_typingtask_norepeats,2020.2.10,59.96393765064518,
pykka,pykka,,,,,,,,,0,35,35,35,,,,,,,,,,,,,,,1245.966952000279,None,"['p', 'y', 'k', 'k', 'a']",1,"[0.6848131003789604, 0.8048528004437685, 1.1249175001867115, 1.2688153004273772, 1.4289537002332509]",1245.966952000279,None,1245.966943500284,None,s240_11162023,001,2023-11-16_16h30.40.222,test_typingtask_norepeats,2020.2.10,59.96393765064518,
vodka,vodka,,,,,,,,,0,36,36,36,,,,,,,,,,,,,,,1251.4669826002792,None,"['v', 'o', 'd', 'k', 'a']",1,"[0.8008134998381138, 0.8648072998039424, 1.1368971997871995, 1.2809012001380324, 1.73682209989056]",1251.4669826002792,None,1251.4669815001077,None,s240_11162023,001,2023-11-16_16h30.40.222,test_typingtask_norepeats,2020.2.10,59.96393765064518,
there,there,,,,,,,,,0,37,37,37,,,,,,,,,,,,,,,1256.9670152002946,None,"['t', 'h', 'r', 'e']",0,"[0.6288693998940289, 0.7169693000614643, 0.9087628000415862, 1.02070780005306]",1256.9670152002946,None,1256.966990000289,None,s240_11162023,001,2023-11-16_16h30.40.222,test_typingtask_norepeats,2020.2.10,59.96393765064518,
pykka,pykka,,,,,,,,,0,38,38,38,,,,,,,,,,,,,,,1262.467031700071,None,"['p', 'y', 'k', 'k', 'a']",1,"[0.6887583001516759, 0.8087492003105581, 1.1686975001357496, 1.2886912003159523, 1.4088596003130078]",1262.467031700071,None,1262.4670273002237,None,s240_11162023,001,2023-11-16_16h30.40.222,test_typingtask_norepeats,2020.2.10,59.96393765064518,
buddy,buddy,,,,,,,,,0,39,39,39,,,,,,,,,,,,,,,1267.9671148001216,None,"['b', 'u', 'd', 'd', 'y']",1,"[0.7087270999327302, 0.8366636000573635, 1.0447170999832451, 1.1965852999128401, 1.3008979000151157]",1267.9671148001216,None,1267.9670939000323,None,s240_11162023,001,2023-11-16_16h30.40.222,test_typingtask_norepeats,2020.2.10,59.96393765064518,
about,about,,,,,,,,,0,40,40,40,,,,,,,,,,,,,,,1273.467106200289,None,"['a', 'b', 'o', 'u', 't']",1,"[0.48065870022401214, 0.5848168004304171, 0.7926261001266539, 0.8567881002090871, 1.0086528002284467]",1273.467106200289,None,1273.4671434999443,None,s240_11162023,001,2023-11-16_16h30.40.222,test_typingtask_norepeats,2020.2.10,59.96393765064518,
kremp,kremp,,,,,,,,,0,41,41,41,,,,,,,,,,,,,,,1278.9671455998905,None,"['k', 'r', 'e', 'm', 'p']",1,"[0.748730800114572, 1.044587700162083, 1.1568128000944853, 1.2686986001208425, 1.4127583000808954]",1278.9671455998905,None,1278.9671808999963,None,s240_11162023,001,2023-11-16_16h30.40.222,test_typingtask_norepeats,2020.2.10,59.96393765064518,
zibja,zibja,,,,,,,,,0,42,42,42,,,,,,,,,,,,,,,1284.4672294999473,None,"['z', 'i', 'b', 'j', 'a']",1,"[0.6325382003560662, 0.7685549003072083, 1.0405145003460348, 1.1925318003632128, 1.2806783001869917]",1284.4672294999473,None,1284.4672176001593,None,s240_11162023,001,2023-11-16_16h30.40.222,test_typingtask_norepeats,2020.2.10,59.96393765064518,
heond,heond,,,,,,,,,0,43,43,43,,,,,,,,,,,,,,,1289.9672655002214,None,"['h', 'e', 'o', 'n', 'd']",1,"[0.5566754997707903, 0.7805767999961972, 0.9085029996931553, 0.9885712997056544, 1.124638400040567]",1289.9672655002214,None,1289.967292600032,None,s240_11162023,001,2023-11-16_16h30.40.222,test_typingtask_norepeats,2020.2.10,59.96393765064518,
zibja,zibja,,,,,,,,,0,44,44,44,,,,,,,,,,,,,,,1295.4673033002764,None,"['z', 'i', 'b', 'j', 'a']",1,"[0.6085084001533687, 0.7044971999712288, 1.0884698000736535, 1.360494699794799, 1.4006507000885904]",1295.4673033002764,None,1295.4673401002772,None,s240_11162023,001,2023-11-16_16h30.40.222,test_typingtask_norepeats,2020.2.10,59.96393765064518,
cheer,cheer,,,,,,,,,0,45,45,45,,,,,,,,,,,,,,,1300.9673142000102,None,"['c', 'h', 'e', 'e', 'r']",1,"[0.5565899997018278, 0.6286237998865545, 0.8286043000407517, 0.9804099998436868, 1.052627599798143]",1300.9673142000102,None,1300.9673516002483,1301.067359500099,s240_11162023,001,2023-11-16_16h30.40.222,test_typingtask_norepeats,2020.2.10,59.96393765064518,
druze,druze,,,,,,,,,0,46,46,46,,,,,,,,,,,,,,,1306.467369900085,None,"['d', 'r', 'u', 'z', 'e']",1,"[0.656585399992764, 1.0403975998051465, 1.176349800080061, 1.368426499888301, 1.5924949999898672]",1306.467369900085,None,1306.4673993999138,1306.5673980000429,s240_11162023,001,2023-11-16_16h30.40.222,test_typingtask_norepeats,2020.2.10,59.96393765064518,
lucky,lucky,,,,,,,,,0,47,47,47,,,,,,,,,,,,,,,1311.9674046002328,None,"['l', 'u', 'c', 'k', 'y']",1,"[0.5164221003651619, 0.6844378001987934, 0.9804678000509739, 1.1324761002324522, 1.260452900081873]",1311.9674046002328,None,1311.9674329000525,1312.0674314000644,s240_11162023,001,2023-11-16_16h30.40.222,test_typingtask_norepeats,2020.2.10,59.96393765064518,
buddy,buddy,,,,,,,,,0,48,48,48,,,,,,,,,,,,,,,1317.4674471002072,None,"['b', 'u', 'd', 'd', 'y']",1,"[0.656428299844265, 0.7923771999776363, 1.0164271998219192, 1.1603525001555681, 1.2563570002093911]",1317.4674471002072,None,1317.4674799001775,1317.5674776001833,s240_11162023,001,2023-11-16_16h30.40.222,test_typingtask_norepeats,2020.2.10,59.96393765064518,
vodka,vodka,,,,,,,,,0,49,49,49,,,,,,,,,,,,,,,1322.9675104999915,None,"['v', 'o', 'd', 'k', 'a']",1,"[0.9723298000171781, 1.0922702997922897, 1.284438899718225, 1.4124475996941328, 1.508399199694395]",1322.9675104999915,None,1322.967516999878,1323.06747370027,s240_11162023,001,2023-11-16_16h30.40.222,test_typingtask_norepeats,2020.2.10,59.96393765064518,
there,there,,,,,,,,,0,50,50,50,,,,,,,,,,,,,,,1328.467521400191,None,"['t', 'h', 'e', 'r', 'e']",1,"[0.6003216002136469, 0.6962896999903023, 0.816384700126946, 0.9043477000668645, 0.9844102002680302]",1328.467521400191,None,1328.4675231000408,1328.5675556999631,s240_11162023,001,2023-11-16_16h30.40.222,test_typingtask_norepeats,2020.2.10,59.96393765064518,
tithe,tithe,,,,,,,,,0,51,51,51,,,,,,,,,,,,,,,1333.967592699919,None,"['t', 'i', 't', 'h', 'e']",1,"[0.6442052000202239, 0.7322487002238631, 0.8442959003150463, 0.948248100001365, 1.0362649001181126]",1333.967592699919,None,1333.967561800219,1334.0676020998508,s240_11162023,001,2023-11-16_16h30.40.222,test_typingtask_norepeats,2020.2.10,59.96393765064518,
buddy,buddy,,,,,,,,,0,52,52,52,,,,,,,,,,,,,,,1339.4675972000696,None,"['b', 'u', 'd', 'd', 'y']",1,"[0.8003112003207207, 0.9042222001589835, 1.0483808000572026, 1.2004172001034021, 1.2802550001069903]",1339.4675972000696,None,1339.4676384001039,1339.5675975000486,s240_11162023,001,2023-11-16_16h30.40.222,test_typingtask_norepeats,2020.2.10,59.96393765064518,
heond,heond,,,,,,,,,0,53,53,53,,,,,,,,,,,,,,,1344.9676729002967,None,"['h', 'e', 'o', 'n', 'd']",1,"[0.5481317997910082, 0.8201723000966012, 0.9881172999739647, 1.0601050998084247, 1.348095600027591]",1344.9676729002967,None,1344.9676767999306,1345.06765179988,s240_11162023,001,2023-11-16_16h30.40.222,test_typingtask_norepeats,2020.2.10,59.96393765064518,
druze,druze,,,,,,,,,0,54,54,54,,,,,,,,,,,,,,,1350.4677152000368,None,"['d', 'r', 'u', 'z', 'e']",1,"[0.5362256998196244, 0.8560862001031637, 0.9602645998820662, 1.2961331997066736, 1.4800843000411987]",1350.4677152000368,None,1350.4677232999354,None,s240_11162023,001,2023-11-16_16h30.40.222,test_typingtask_norepeats,2020.2.10,59.96393765064518,
kremp,kremp,,,,,,,,,0,55,55,55,,,,,,,,,,,,,,,1355.9677500999533,None,"['k', 'r', 'e', 'm', 'p']",1,"[0.5640610996633768, 0.9561334997415543, 1.0920635997317731, 1.2201727000065148, 1.3560573998838663]",1355.9677500999533,None,1355.9677407003007,None,s240_11162023,001,2023-11-16_16h30.40.222,test_typingtask_norepeats,2020.2.10,59.96393765064518,
lucky,lucky,,,,,,,,,0,56,56,56,,,,,,,,,,,,,,,1361.4677933002822,None,"['l', 'u', 'c', 'k', 'y']",1,"[0.5920600001700222, 0.7761332001537085, 1.1121809002943337, 1.2321705999784172, 1.368059900123626]",1361.4677933002822,None,1361.4677748002111,None,s240_11162023,001,2023-11-16_16h30.40.222,test_typingtask_norepeats,2020.2.10,59.96393765064518,
edthe,edthe,,,,,,,,,0,57,57,57,,,,,,,,,,,,,,,1366.967959499918,None,"['e', 'd', 't', 'h', 'e']",1,"[0.5479021002538502, 0.7478924002498388, 0.9799016998149455, 1.092006899882108, 1.1959677999839187]",1366.967959499918,None,1366.9678749001584,None,s240_11162023,001,2023-11-16_16h30.40.222,test_typingtask_norepeats,2020.2.10,59.96393765064518,
heond,heond,,,,,,,,,0,58,58,58,,,,,,,,,,,,,,,1372.467881700024,None,"['h', 'e', 'o', 'n', 'd']",1,"[0.5999882998876274, 0.824028099887073, 0.9759831000119448, 1.0481047998182476, 1.2240706998854876]",1372.467881700024,None,1372.467880800087,None,s240_11162023,001,2023-11-16_16h30.40.222,test_typingtask_norepeats,2020.2.10,59.96393765064518,
faqir,faqir,,,,,,,,,0,59,59,59,,,,,,,,,,,,,,,1377.9679656000808,None,"['f', 'q', 'i', 'r']",0,"[0.7318603000603616, 1.3719057999551296, 1.6678355997428298, 1.7559400997124612]",1377.9679656000808,None,1377.9678968998603,None,s240_11162023,001,2023-11-16_16h30.40.222,test_typingtask_norepeats,2020.2.10,59.96393765064518,
would,would,,,,,,,,,0,60,60,60,,,,,,,,,,,,,,,1383.4679550998844,None,"['w', 'o', 'u', 'l', 'd']",1,"[0.6318828999064863, 0.7359052002429962, 0.8480201000347733, 1.0718975998461246, 1.2158106002025306]",1383.4679550998844,None,1383.4679691001772,None,s240_11162023,001,2023-11-16_16h30.40.222,test_typingtask_norepeats,2020.2.10,59.96393765064518,
haole,haole,,,,,,,,,0,61,61,61,,,,,,,,,,,,,,,1388.9680023002438,None,"['h', 'a', 'o', 'l', 'e']",1,"[0.563833000138402, 0.6679187999106944, 0.8279739003628492, 1.0518716000951827, 1.195764500182122]",1388.9680023002438,None,1388.9679748999886,None,s240_11162023,001,2023-11-16_16h30.40.222,test_typingtask_norepeats,2020.2.10,59.96393765064518,
puppy,puppy,,,,,,,,,0,62,62,62,,,,,,,,,,,,,,,1394.468052400276,None,"['p', 'u', 'p', 'p', 'y']",1,"[0.599857300054282, 0.7198390001431108, 0.9598419000394642, 1.135929100215435, 1.3358586002141237]",1394.468052400276,None,1394.4680153002962,None,s240_11162023,001,2023-11-16_16h30.40.222,test_typingtask_norepeats,2020.2.10,59.96393765064518,
would,would,,,,,,,,,0,63,63,63,,,,,,,,,,,,,,,1399.9680882999673,None,"['w', 'o', 'u', 'l', 'd']",1,"[0.8118250998668373, 0.8837957000359893, 0.9639359000138938, 1.16374670015648, 1.275810900144279]",1399.9680882999673,None,1399.9680924999527,None,s240_11162023,001,2023-11-16_16h30.40.222,test_typingtask_norepeats,2020.2.10,59.96393765064518,
edthe,edthe,,,,,,,,,0,64,64,64,,,,,,,,,,,,,,,1405.4681084002368,None,"['e', 'd', 't', 'h', 'e']",1,"[0.5841192998923361, 0.7678188998252153, 0.9839971996843815, 1.0957633997313678, 1.1918754000216722]",1405.4681084002368,None,1405.468100700248,None,s240_11162023,001,2023-11-16_16h30.40.222,test_typingtask_norepeats,2020.2.10,59.96393765064518,
kremp,kremp,,,,,,,,,0,65,65,65,,,,,,,,,,,,,,,1410.9681631000713,None,"['k', 'r', 'e', 'm', 'p']",1,"[0.5317200999706984, 0.7717662998475134, 0.851693700067699, 0.9557190998457372, 1.1236736997961998]",1410.9681631000713,None,1410.9681766002439,None,s240_11162023,001,2023-11-16_16h30.40.222,test_typingtask_norepeats,2020.2.10,59.96393765064518,
theme,theme,,,,,,,,,0,66,66,66,,,,,,,,,,,,,,,1416.4682041001506,None,"['t', 'h', 'e', 'm', 'e']",1,"[0.6556635000742972, 0.7676853002049029, 0.9037073999643326, 1.0238230000250041, 1.1037905002012849]",1416.4682041001506,None,1416.4682112002745,None,s240_11162023,001,2023-11-16_16h30.40.222,test_typingtask_norepeats,2020.2.10,59.96393765064518,
vanru,vanru,,,,,,,,,0,67,67,67,,,,,,,,,,,,,,,1421.9682621001266,None,"['v', 'a', 'n', 'r', 'u']",1,"[0.7556078997440636, 0.8835804997943342, 1.0037639997899532, 1.2915921998210251, 1.347640199586749]",1421.9682621001266,None,1421.9689670998603,1422.0682692001574,s240_11162023,001,2023-11-16_16h30.40.222,test_typingtask_norepeats,2020.2.10,59.96393765064518,
pykka,pykka,,,,,,,,,0,68,68,68,,,,,,,,,,,,,,,1427.4682602002285,None,"['p', 'y', 'k', 'k', 'a']",1,"[0.5916913999244571, 0.7195892999880016, 1.0556610999628901, 1.191747599747032, 1.423568299971521]",1427.4682602002285,None,1427.4682946998626,None,s240_11162023,001,2023-11-16_16h30.40.222,test_typingtask_norepeats,2020.2.10,59.96393765064518,
about,about,,,,,,,,,0,69,69,69,,,,,,,,,,,,,,,1432.968307599891,None,"['a', 'b', 'o', 'u', 't']",1,"[0.4195538000203669, 0.6116502997465432, 0.9396718996576965, 1.0595986996777356, 1.2036939999088645]",1432.968307599891,None,1432.9684074001386,None,s240_11162023,001,2023-11-16_16h30.40.222,test_typingtask_norepeats,2020.2.10,59.96393765064518,
champ,champ,,,,,,,,,0,70,70,70,,,,,,,,,,,,,,,1438.4683754001744,None,"['c', 'h', 'a', 'm', 'p']",1,"[0.5515682999975979, 0.6235171002335846, 0.775606700219214, 0.8875637003220618, 0.9836816000752151]",1438.4683754001744,None,1438.4683542001992,None,s240_11162023,001,2023-11-16_16h30.40.222,test_typingtask_norepeats,2020.2.10,59.96393765064518,
cheer,cheer,,,,,,,,,0,71,71,71,,,,,,,,,,,,,,,1443.9683977998793,None,"['c', 'h', 'e', 'e', 'r']",1,"[0.5475201001390815, 0.6594646000303328, 0.819631400052458, 0.987472000066191, 1.0595328998751938]",1443.9683977998793,None,1443.968423899915,None,s240_11162023,001,2023-11-16_16h30.40.222,test_typingtask_norepeats,2020.2.10,59.96393765064518,
champ,champ,,,,,,,,,0,72,72,72,,,,,,,,,,,,,,,1449.4684553002007,None,"['c', 'h', 'a', 'm', 'p']",1,"[0.5516014001332223, 0.6154182003811002, 0.8393888999707997, 0.9836865002289414, 1.0955747002735734]",1449.4684553002007,None,1449.468480799999,None,s240_11162023,001,2023-11-16_16h30.40.222,test_typingtask_norepeats,2020.2.10,59.96393765064518,
haole,haole,,,,,,,,,0,73,73,73,,,,,,,,,,,,,,,1454.9684671000578,None,"['h', 'a', 'o', 'l', 'e']",1,"[0.5234162001870573, 0.6355610000900924, 0.7875416004098952, 1.0353912003338337, 1.1795324999839067]",1454.9684671000578,None,1454.9685191001743,None,s240_11162023,001,2023-11-16_16h30.40.222,test_typingtask_norepeats,2020.2.10,59.96393765064518,
therm,therm,,,,,,,,,0,74,74,74,,,,,,,,,,,,,,,1460.4685030998662,None,"['t', 'h', 'e', 'r', 'm']",1,"[0.5755157000385225, 0.6553421998396516, 0.7995267999358475, 0.8953228001482785, 1.0234329998493195]",1460.4685030998662,None,1460.4685449001379,None,s240_11162023,001,2023-11-16_16h30.40.222,test_typingtask_norepeats,2020.2.10,59.96393765064518,
haole,haole,,,,,,,,,0,75,75,75,,,,,,,,,,,,,,,1465.9685506001115,None,"['h', 'a', 'o', 'l', 'e']",1,"[0.5473327999934554, 0.7233871999196708, 0.851414299570024, 1.075462399981916, 1.1954632997512817]",1465.9685506001115,None,1465.968584700208,None,s240_11162023,001,2023-11-16_16h30.40.222,test_typingtask_norepeats,2020.2.10,59.96393765064518,
faqir,faqir,,,,,,,,,0,76,76,76,,,,,,,,,,,,,,,1471.468631000258,None,"['f', 'a', 'q', 'i', 'r']",1,"[0.6233115000650287, 0.7113487999886274, 0.9753979002125561, 1.1033414998091757, 1.1834342000074685]",1471.468631000258,None,1471.4686256001703,None,s240_11162023,001,2023-11-16_16h30.40.222,test_typingtask_norepeats,2020.2.10,59.96393765064518,
cheer,cheer,,,,,,,,,0,77,77,77,,,,,,,,,,,,,,,1476.9686670000665,None,"['c', 'h', 'e', 'e', 'r']",1,"[1.227268900256604, 1.3392068003304303, 1.5153581001795828, 1.6753368000499904, 1.7472850000485778]",1476.9686670000665,None,1476.968662799988,None,s240_11162023,001,2023-11-16_16h30.40.222,test_typingtask_norepeats,2020.2.10,59.96393765064518,
heond,heond,,,,,,,,,0,78,78,78,,,,,,,,,,,,,,,1482.4687095000409,None,"['h', 'e', 'o', 'n', 'd']",1,"[0.4711823002435267, 0.6713265003636479, 0.8072614003904164, 0.8793187001720071, 1.031287900172174]",1482.4687095000409,None,1482.4686718999408,None,s240_11162023,001,2023-11-16_16h30.40.222,test_typingtask_norepeats,2020.2.10,59.96393765064518,
cooed,cooed,,,,,,,,,0,79,79,79,,,,,,,,,,,,,,,1487.9687133003026,None,"['c', 'o', 'o', 'e', 'd']",1,"[0.5311965001747012, 0.7072280999273062, 0.8594263000413775, 1.0511841997504234, 1.251157599966973]",1487.9687133003026,None,1487.9687475000508,None,s240_11162023,001,2023-11-16_16h30.40.222,test_typingtask_norepeats,2020.2.10,59.96393765064518,
theme,theme,,,,,,,,,0,80,80,80,,,,,,,,,,,,,,,1493.4687745999545,None,"['t', 'h', 'e', 'm', 'e']",1,"[0.6152969999238849, 0.7431322997435927, 0.8871265999041498, 1.0150728998705745, 1.0792237999849021]",1493.4687745999545,None,1493.468789600022,None,s240_11162023,001,2023-11-16_16h30.40.222,test_typingtask_norepeats,2020.2.10,59.96393765064518,
puppy,puppy,,,,,,,,,0,81,81,81,,,,,,,,,,,,,,,1498.9688315000385,None,"['p', 'u', 'p', 'p', 'y']",1,"[0.5550775998272002, 0.6670575002208352, 1.0191083000972867, 1.1791052999906242, 1.395161199849099]",1498.9688315000385,None,1498.9688252002932,None,s240_11162023,001,2023-11-16_16h30.40.222,test_typingtask_norepeats,2020.2.10,59.96393765064518,
therm,therm,,,,,,,,,0,82,82,82,,,,,,,,,,,,,,,1504.4688772000372,None,"['t', 'h', 'e', 'r', 'm']",1,"[0.5750810001045465, 0.6871830001473427, 0.9030880001373589, 0.9750375999137759, 1.047119399998337]",1504.4688772000372,None,1504.4688542999327,None,s240_11162023,001,2023-11-16_16h30.40.222,test_typingtask_norepeats,2020.2.10,59.96393765064518,
champ,champ,,,,,,,,,0,83,83,83,,,,,,,,,,,,,,,1509.9688929999247,None,"['c', 'h', 'a', 'm', 'p']",1,"[0.5470221000723541, 0.5950474003329873, 0.7790009002201259, 0.8830190002918243, 0.9870271002873778]",1509.9688929999247,None,1509.9689285002648,None,s240_11162023,001,2023-11-16_16h30.40.222,test_typingtask_norepeats,2020.2.10,59.96393765064518,
think,think,,,,,,,,,0,84,84,84,,,,,,,,,,,,,,,1515.468922200147,None,"['t', 'h', 'i', 'n', 'k']",1,"[0.5589974001049995, 0.6550110001116991, 0.7672243001870811, 0.8949657003395259, 1.0550700998865068]",1515.468922200147,None,1515.4689267000183,None,s240_11162023,001,2023-11-16_16h30.40.222,test_typingtask_norepeats,2020.2.10,59.96393765064518,
cooed,cooed,,,,,,,,,0,85,85,85,,,,,,,,,,,,,,,1520.9689704999328,None,"['c', 'o', 'o', 'e', 'd']",1,"[0.5389792998321354, 0.7069904999807477, 0.8430906999856234, 0.9871290000155568, 1.1710207997821271]",1520.9689704999328,None,1520.9689589000307,None,s240_11162023,001,2023-11-16_16h30.40.222,test_typingtask_norepeats,2020.2.10,59.96393765064518,
about,about,,,,,,,,,0,86,86,86,,,,,,,,,,,,,,,1526.4690036000684,None,"['a', 'b', 'o', 'u', 't']",1,"[0.47891970025375485, 0.6390766999684274, 0.8709518001414835, 0.9989694003015757, 1.134975400287658]",1526.4690036000684,None,1526.4690337001346,None,s240_11162023,001,2023-11-16_16h30.40.222,test_typingtask_norepeats,2020.2.10,59.96393765064518,
pykka,pykka,,,,,,,,,0,87,87,87,,,,,,,,,,,,,,,1531.969078999944,None,"['p', 'y', 'k', 'k', 'a']",1,"[0.5870463000610471, 0.6989262998104095, 1.0349169000983238, 1.1868465999141335, 1.2909094998613]",1531.969078999944,None,1531.9690835999324,None,s240_11162023,001,2023-11-16_16h30.40.222,test_typingtask_norepeats,2020.2.10,59.96393765064518,
kremp,kremp,,,,,,,,,0,88,88,88,,,,,,,,,,,,,,,1537.4691289002076,None,"['k', 'r', 'e', 'm', 'p']",1,"[0.5428520999848843, 0.7988889999687672, 0.8948524002917111, 1.0069464002735913, 1.1109438999556005]",1537.4691289002076,None,1537.469116599951,1537.5691153001972,s240_11162023,001,2023-11-16_16h30.40.222,test_typingtask_norepeats,2020.2.10,59.96393765064518,
belly,belly,,,,,,,,,0,89,89,89,,,,,,,,,,,,,,,1542.9691568003036,None,"['b', 'e', 'l', 'l', 'y']",1,"[0.6428241999819875, 0.9787818999029696, 1.3388119000010192, 1.4988119001500309, 1.6908006998710334]",1542.9691568003036,None,1542.969173600152,None,s240_11162023,001,2023-11-16_16h30.40.222,test_typingtask_norepeats,2020.2.10,59.96393765064518,
edthe,edthe,,,,,,,,,0,90,90,90,,,,,,,,,,,,,,,1548.4691885001957,None,"['e', 'd', 't', 'h', 'e']",1,"[0.510748100001365, 0.7349457996897399, 1.0948007996194065, 1.2947775996290147, 1.454723599832505]",1548.4691885001957,None,1548.469202900026,None,s240_11162023,001,2023-11-16_16h30.40.222,test_typingtask_norepeats,2020.2.10,59.96393765064518,
faqir,faqir,,,,,,,,,0,91,91,91,,,,,,,,,,,,,,,1553.9692273000255,None,"['f', 'a', 'q', 'i', 'r']",1,"[0.6027693003416061, 0.7387366001494229, 1.0186854000203311, 1.130787200294435, 1.234738599974662]",1553.9692273000255,None,1553.9692456998862,1554.0692565999925,s240_11162023,001,2023-11-16_16h30.40.222,test_typingtask_norepeats,2020.2.10,59.96393765064518,
buddy,buddy,,,,,,,,,0,92,92,92,,,,,,,,,,,,,,,1559.4692548001185,None,"['b', 'u', 'd', 'd', 'y']",1,"[0.7267288998700678, 0.9027795000001788, 1.118764900136739, 1.2868415000848472, 1.3906515999697149]",1559.4692548001185,None,1559.4692920001223,1559.5692822001874,s240_11162023,001,2023-11-16_16h30.40.222,test_typingtask_norepeats,2020.2.10,59.96393765064518,
edthe,edthe,,,,,,,,,0,93,93,93,,,,,,,,,,,,,,,1564.9693263000809,None,"['e', 'd', 't', 'h', 'e']",1,"[0.5466539999470115, 0.738631000276655, 0.9387574000284076, 1.0427637002430856, 1.0987610998563468]",1564.9693263000809,None,1564.9693279999308,None,s240_11162023,001,2023-11-16_16h30.40.222,test_typingtask_norepeats,2020.2.10,59.96393765064518,
zibja,zibja,,,,,,,,,0,94,94,94,,,,,,,,,,,,,,,1570.46933969995,None,"['z', 'i', 'b', 'j', 'a']",1,"[0.6306540998630226, 0.7347075999714434, 0.9586352999322116, 1.1266378997825086, 1.2468395000323653]",1570.46933969995,None,1570.4693732999265,1570.5693760002032,s240_11162023,001,2023-11-16_16h30.40.222,test_typingtask_norepeats,2020.2.10,59.96393765064518,
would,would,,,,,,,,,0,95,95,95,,,,,,,,,,,,,,,1575.9693823000416,None,"['w', 'o', 'u', 'l', 'd']",1,"[0.5466275000944734, 0.6745071997866035, 0.722568899858743, 0.9467118997126818, 1.0665368996560574]",1575.9693823000416,None,1575.9694145998917,1576.0693723000586,s240_11162023,001,2023-11-16_16h30.40.222,test_typingtask_norepeats,2020.2.10,59.96393765064518,
faqir,faqir,,,,,,,,,0,96,96,96,,,,,,,,,,,,,,,1581.469452300109,None,"['f', 'a', 'q', 'i', 'r']",1,"[0.5105075999163091, 0.6144957998767495, 0.8785204999148846, 0.9666408998891711, 1.1425871001556516]",1581.469452300109,None,1581.4694408999756,1581.5694590001367,s240_11162023,001,2023-11-16_16h30.40.222,test_typingtask_norepeats,2020.2.10,59.96393765064518,
belly,belly,,,,,,,,,0,97,97,97,,,,,,,,,,,,,,,1586.9694547001272,None,"['b', 'e', 'l', 'l', 'y']",1,"[0.5705152000300586, 0.77055440004915, 0.9305743002332747, 1.0504684001207352, 1.1866649999283254]",1586.9694547001272,None,1586.96951100016,1587.0695275999606,s240_11162023,001,2023-11-16_16h30.40.222,test_typingtask_norepeats,2020.2.10,59.96393765064518,
tithe,tithe,,,,,,,,,0,98,98,98,,,,,,,,,,,,,,,1592.4695375999436,None,"['t', 'i', 't', 'h', 'e']",1,"[0.5184492003172636, 0.5585814001969993, 0.7105851001106203, 0.8145737000741065, 0.9105433002114296]",1592.4695375999436,None,1592.4695698001422,None,s240_11162023,001,2023-11-16_16h30.40.222,test_typingtask_norepeats,2020.2.10,59.96393765064518,
think,think,,,,,,,,,0,99,99,99,,,,,,,,,,,,,,,1597.9695834000595,None,"['t', 'h', 'i', 'n', 'k']",1,"[0.5465182000771165, 0.610429699998349, 0.7623747996985912, 0.8824498998001218, 1.0583921996876597]",1597.9695834000595,None,1597.9695830998942,None,s240_11162023,001,2023-11-16_16h30.40.222,test_typingtask_norepeats,2020.2.10,59.96393765064518,
pykka,pykka,,,,,,,,,0,100,100,100,,,,,,,,,,,,,,,1603.4695780002512,None,"['p', 'y', 'k', 'k', 'a']",1,"[0.5824015997350216, 0.710481199901551, 0.9825239996425807, 1.1263996995985508, 1.2225518999621272]",1603.4695780002512,None,1603.4696235998533,None,s240_11162023,001,2023-11-16_16h30.40.222,test_typingtask_norepeats,2020.2.10,59.96393765064518,
there,there,,,,,,,,,0,101,101,101,,,,,,,,,,,,,,,1608.9696530001238,None,"['t', 'h', 'e', 'r', 'e']",1,"[0.5944052003324032, 0.6824382999911904, 0.7862881002947688, 0.866302200127393, 0.9624168002046645]",1608.9696530001238,None,1608.9696677003055,None,s240_11162023,001,2023-11-16_16h30.40.222,test_typingtask_norepeats,2020.2.10,59.96393765064518,
puppy,puppy,,,,,,,,,0,102,102,102,,,,,,,,,,,,,,,1614.4696973999962,None,"['p', 'u', 'p', 'p', 'y']",1,"[0.5744126001372933, 0.6942556002177298, 1.006346800364554, 1.142384700011462, 1.3183671003207564]",1614.4696973999962,None,1614.4696994001977,None,s240_11162023,001,2023-11-16_16h30.40.222,test_typingtask_norepeats,2020.2.10,59.96393765064518,
about,about,,,,,,,,,0,103,103,103,,,,,,,,,,,,,,,1619.9697535000741,None,"['a', 'b', 'o', 'u', 't']",1,"[0.4663543999195099, 0.5622723000124097, 0.794240300077945, 0.8822726998478174, 1.0183696998283267]",1619.9697535000741,None,1619.9697487002238,None,s240_11162023,001,2023-11-16_16h30.40.222,test_typingtask_norepeats,2020.2.10,59.96393765064518,
cheer,cheer,,,,,,,,,0,104,104,104,,,,,,,,,,,,,,,1625.4697505002841,None,"['c', 'h', 'e', 'e', 'r']",1,"[0.5663383998908103, 0.6943755997344851, 0.8542092996649444, 1.0223584999330342, 1.0623527998104692]",1625.4697505002841,None,1625.4697845002636,None,s240_11162023,001,2023-11-16_16h30.40.222,test_typingtask_norepeats,2020.2.10,59.96393765064518,
belly,belly,,,,,,,,,0,105,105,105,,,,,,,,,,,,,,,1630.9697861000896,None,"['b', 'e', 'l', 'l', 'y']",1,"[0.530205899849534, 0.7782398001290858, 1.0422430001199245, 1.1783489999361336, 1.3622845998033881]",1630.9697861000896,None,1630.9698250002227,None,s240_11162023,001,2023-11-16_16h30.40.222,test_typingtask_norepeats,2020.2.10,59.96393765064518,
cooed,cooed,,,,,,,,,0,106,106,106,,,,,,,,,,,,,,,1636.4698510002345,None,"['o', 'o', 'e', 'd']",0,"[0.9341104999184608, 1.1102709998376667, 1.3662890000268817, 1.534126800019294]",1636.4698510002345,None,1636.4698380000889,None,s240_11162023,001,2023-11-16_16h30.40.222,test_typingtask_norepeats,2020.2.10,59.96393765064518,
theme,theme,,,,,,,,,0,107,107,107,,,,,,,,,,,,,,,1641.9699026001617,None,"['t', 'h', 'e', 'm', 'e']",1,"[0.5541182002052665, 0.6662538000382483, 0.7700867000967264, 0.8902350002899766, 0.9300882001407444]",1641.9699026001617,None,1641.9698827999644,None,s240_11162023,001,2023-11-16_16h30.40.222,test_typingtask_norepeats,2020.2.10,59.96393765064518,
zibja,zibja,,,,,,,,,0,108,108,108,,,,,,,,,,,,,,,1647.4699253998697,None,"['z', 'i', 'b', 'j', 'a']",1,"[0.638115500099957, 0.7341229999437928, 0.9580898000858724, 1.0460748998448253, 1.182208700105548]",1647.4699253998697,None,1647.469977699872,None,s240_11162023,001,2023-11-16_16h30.40.222,test_typingtask_norepeats,2020.2.10,59.96393765064518,
druze,druze,,,,,,,,,0,109,109,109,,,,,,,,,,,,,,,1652.9699543998577,None,"['d', 'r', 'u', 'z', 'e']",1,"[0.7780980998650193, 1.0820985999889672, 1.2340261000208557, 1.3461952996440232, 1.4740569996647537]",1652.9699543998577,None,1652.9699977000244,None,s240_11162023,001,2023-11-16_16h30.40.222,test_typingtask_norepeats,2020.2.10,59.96393765064518,
lucky,lucky,,,,,,,,,0,110,110,110,,,,,,,,,,,,,,,1658.4700396000408,None,"['l', 'u', 'c', 'k', 'y']",1,"[0.4779729996807873, 0.6220633997581899, 0.9579304996877909, 1.062003799714148, 1.1741120000369847]",1658.4700396000408,None,1658.4700496003031,1658.5699980999343,s240_11162023,001,2023-11-16_16h30.40.222,test_typingtask_norepeats,2020.2.10,59.96393765064518,
champ,champ,,,,,,,,,0,111,111,111,,,,,,,,,,,,,,,1663.970062499866,None,"['c', 'h', 'a', 'm', 'p']",1,"[0.6259890999644995, 0.7300044000148773, 1.0981131000444293, 1.2180637000128627, 1.345972599927336]",1663.970062499866,None,1663.970108600054,1664.0700770001858,s240_11162023,001,2023-11-16_16h30.40.222,test_typingtask_norepeats,2020.2.10,59.96393765064518,
haole,haole,,,,,,,,,0,112,112,112,,,,,,,,,,,,,,,1669.4701171000488,None,"['h', 'a', 'o', 'l', 'e']",1,"[0.5659510004334152, 0.6620660000480711, 0.8058974002487957, 1.013937100302428, 1.1021507000550628]",1669.4701171000488,None,1669.4701011001132,1669.5701202000491,s240_11162023,001,2023-11-16_16h30.40.222,test_typingtask_norepeats,2020.2.10,59.96393765064518,
druze,druze,,,,,,,,,0,113,113,113,,,,,,,,,,,,,,,1674.9701558998786,None,"['d', 'r', 'u', 'z', 'e']",1,"[0.537860699929297, 0.8418969996273518, 0.9781398996710777, 1.1299320999532938, 1.2419905997812748]",1674.9701558998786,None,1674.9701787002384,1675.0701540000737,s240_11162023,001,2023-11-16_16h30.40.222,test_typingtask_norepeats,2020.2.10,59.96393765064518,
therm,therm,,,,,,,,,0,114,114,114,,,,,,,,,,,,,,,1680.4702125000767,None,"['t', 'h', 'e', 'r', 'm']",1,"[0.5419314997270703, 0.6460758000612259, 0.7498145997524261, 0.8138309996575117, 0.9178842999972403]",1680.4702125000767,None,1680.47018799996,1680.5702517000027,s240_11162023,001,2023-11-16_16h30.40.222,test_typingtask_norepeats,2020.2.10,59.96393765064518,
think,think,,,,,,,,,0,115,115,115,,,,,,,,,,,,,,,1685.970240900293,None,"['t', 'h', 'i', 'n', 'k']",1,"[0.6340411999262869, 0.7220144001767039, 0.8577871997840703, 1.0017864000983536, 1.1617684001103044]",1685.970240900293,None,1685.9702773002907,1686.07024609996,s240_11162023,001,2023-11-16_16h30.40.222,test_typingtask_norepeats,2020.2.10,59.96393765064518,
champ,champ,,,,,,,,,0,116,116,116,,,,,,,,,,,,,,,1691.4702830002643,None,"['c', 'h', 'a', 'm', 'p']",1,"[0.5340701001696289, 0.6297928998246789, 0.8457582998089492, 0.9577387999743223, 1.0218567000702024]",1691.4702830002643,None,1691.470253300108,1691.5702804001048,s240_11162023,001,2023-11-16_16h30.40.222,test_typingtask_norepeats,2020.2.10,59.96393765064518,
buddy,buddy,,,,,,,,,0,117,117,117,,,,,,,,,,,,,,,1696.9703286001459,None,"['b', 'u', 'd', 'd', 'y']",1,"[0.6657471000216901, 0.7937039998359978, 0.9218482999131083, 1.057699200231582, 1.1618261002004147]",1696.9703286001459,None,1696.9703281998634,1697.0703362999484,s240_11162023,001,2023-11-16_16h30.40.222,test_typingtask_norepeats,2020.2.10,59.96393765064518,
vodka,vodka,,,,,,,,,0,118,118,118,,,,,,,,,,,,,,,1702.4703707001172,None,"['v', 'o', 'd', 'k', 'a']",1,"[0.8856645999476314, 1.0057560000568628, 1.133658000268042, 1.2937825000844896, 1.4377977000549436]",1702.4703707001172,None,1702.4703367000445,1702.5703734001145,s240_11162023,001,2023-11-16_16h30.40.222,test_typingtask_norepeats,2020.2.10,59.96393765064518,
cooed,cooed,,,,,,,,,0,119,119,119,,,,,,,,,,,,,,,1707.970406100154,None,"['c', 'o', 'o', 'e', 'd']",1,"[0.5936432001180947, 0.7937131002545357, 0.9456794001162052, 1.0897838003002107, 1.289603800047189]",1707.970406100154,None,1707.9703731999732,1708.0703886998817,s240_11162023,001,2023-11-16_16h30.40.222,test_typingtask_norepeats,2020.2.10,59.96393765064518,
