string,corrAns,practice_trials.thisRepN,practice_trials.thisTrialN,practice_trials.thisN,practice_trials.thisIndex,trials_1.thisRepN,trials_1.thisTrialN,trials_1.thisN,trials_1.thisIndex,trials_2.thisRepN,trials_2.thisTrialN,trials_2.thisN,trials_2.thisIndex,key_resp_0.keys,key_resp_0.corr,key_resp_0.rt,text_1.started,text_1.stopped,key_resp_1.keys,key_resp_1.corr,key_resp_1.rt,key_resp_1.started,key_resp_1.stopped,sound_1A_1.started,sound_1A_1.stopped,break_time.started,break_time.stopped,text_2.started,text_2.stopped,key_resp_2.keys,key_resp_2.corr,key_resp_2.rt,key_resp_2.started,key_resp_2.stopped,sound_1A_2.started,sound_1A_2.stopped,participant,session,date,expName,psychopyVersion,frameRate,
fresh,fresh,0,0,0,0,,,,,,,,,"['f', 'r', 'e', 's', 'h']",1,"[1.4295351998880506, 1.6455882999580353, 2.2696257999632508, 2.821563099976629, 2.973546499852091]",,,,,,,,,,,,,,,,,,,,,s254_11022023,001,2023-11-02_16h11.44.562,test_typingtask_norepeats,2020.2.10,59.97041061146614,
dream,dream,0,1,1,1,,,,,,,,,"['d', 'r', 'e', 'a', 'm']",1,"[1.1855443001259118, 1.3777048999909312, 1.521649300120771, 1.7136595000047237, 1.8735368000343442]",,,,,,,,,,,,,,,,,,,,,s254_11022023,001,2023-11-02_16h11.44.562,test_typingtask_norepeats,2020.2.10,59.97041061146614,
slime,slime,0,2,2,2,,,,,,,,,"['s', 'l', 'i', 'm', 'e']",1,"[1.0934296001214534, 1.2214580001309514, 1.3975068000145257, 1.5815522000193596, 1.6295380000956357]",,,,,,,,,,,,,,,,,,,,,s254_11022023,001,2023-11-02_16h11.44.562,test_typingtask_norepeats,2020.2.10,59.97041061146614,
faqir,faqir,,,,,0,0,0,0,,,,,,,,1513.0185861000791,None,"['f', 'a']",0,"[1.4235747999045998, 2.407474899897352]",1513.0185861000791,None,1513.0177553700748,None,,,,,,,,,,,,s254_11022023,001,2023-11-02_16h11.44.562,test_typingtask_norepeats,2020.2.10,59.97041061146614,
heond,heond,,,,,0,1,1,1,,,,,,,,1518.5179018001072,None,"['h', 'e', 'o', 'n', 'd']",1,"[1.3481836998835206, 1.580159300006926, 1.9801572998985648, 2.3161009999457747, 2.4360944000072777]",1518.5179018001072,None,1518.51776347002,None,,,,,,,,,,,,s254_11022023,001,2023-11-02_16h11.44.562,test_typingtask_norepeats,2020.2.10,59.97041061146614,
vodka,vodka,,,,,0,2,2,2,,,,,,,,1524.0179433999583,None,"['v', 'o', 'd', 'k', 'a']",1,"[1.064114399952814, 1.736124699935317, 2.4321541998069733, 2.696145399939269, 2.8000354999676347]",1524.0179433999583,None,1524.017775670113,None,,,,,,,,,,,,s254_11022023,001,2023-11-02_16h11.44.562,test_typingtask_norepeats,2020.2.10,59.97041061146614,
cheer,cheer,,,,,0,3,3,3,,,,,,,,1529.5179709000513,None,"['c', 'h', 'e', 'e', 'r']",1,"[0.9401014000177383, 1.0600074999965727, 1.212091099936515, 1.3480909001082182, 1.5161031999159604]",1529.5179709000513,None,1529.5178170699626,None,,,,,,,,,,,,s254_11022023,001,2023-11-02_16h11.44.562,test_typingtask_norepeats,2020.2.10,59.97041061146614,
buddy,buddy,,,,,0,4,4,4,,,,,,,,1535.0180063999724,None,"['b', 'u', 'd', 'd', 'y']",1,"[0.8720647001173347, 1.1200596000999212, 1.2880622001830488, 1.4001353001222014, 1.4961456002201885]",1535.0180063999724,None,1535.0178697700146,None,,,,,,,,,,,,s254_11022023,001,2023-11-02_16h11.44.562,test_typingtask_norepeats,2020.2.10,59.97041061146614,
would,would,,,,,0,5,5,5,,,,,,,,1540.5180236001033,None,"['w', 'o', 'u', 'l', 'd']",1,"[0.8760963000822812, 1.02806599996984, 1.2040736998897046, 1.4440377000719309, 1.5321100999135524]",1540.5180236001033,None,1540.517901270138,None,,,,,,,,,,,,s254_11022023,001,2023-11-02_16h11.44.562,test_typingtask_norepeats,2020.2.10,59.97041061146614,
puppy,puppy,,,,,0,6,6,6,,,,,,,,1546.0180512000807,None,"['p', 'u', 'p', 'p', 'y']",1,"[1.0880233000498265, 1.360047300113365, 1.736055799992755, 1.8560299000237137, 2.0320172000210732]",1546.0180512000807,None,1546.0179102699738,None,,,,,,,,,,,,s254_11022023,001,2023-11-02_16h11.44.562,test_typingtask_norepeats,2020.2.10,59.97041061146614,
cheer,cheer,,,,,0,7,7,7,,,,,,,,1551.518091399921,None,"['c', 'h', 'e', 'e', 'r']",1,"[0.8759550999384373, 1.0359745000023395, 1.1640090998262167, 1.3080038998741657, 1.4600101998075843]",1551.518091399921,None,1551.5179907700046,None,,,,,,,,,,,,s254_11022023,001,2023-11-02_16h11.44.562,test_typingtask_norepeats,2020.2.10,59.97041061146614,
theme,theme,,,,,0,8,8,8,,,,,,,,1557.0181265999563,None,"['t', 'h', 'e', 'e', 'm']",0,"[0.9279326000250876, 1.0719544999301434, 1.207933699944988, 1.3599376999773085, 1.5599448999855667]",1557.0181265999563,None,1557.0179767701309,None,,,,,,,,,,,,s254_11022023,001,2023-11-02_16h11.44.562,test_typingtask_norepeats,2020.2.10,59.97041061146614,
vanru,vanru,,,,,0,9,9,9,,,,,,,,1562.5181402000599,None,"['v', 'a', 'n', 'r', 'u']",1,"[1.1799943000078201, 1.8599437999073416, 2.0119608999229968, 2.1399528000038117, 2.2919485000893474]",1562.5181402000599,None,1562.5180215700063,None,,,,,,,,,,,,s254_11022023,001,2023-11-02_16h11.44.562,test_typingtask_norepeats,2020.2.10,59.97041061146614,
lucky,lucky,,,,,0,10,10,10,,,,,,,,1568.0181676000357,None,"['l', 'u', 'c', 'k', 'y']",1,"[0.99193359981291, 1.2799334998708218, 1.5679275998845696, 1.6638408999424428, 1.8719226999673992]",1568.0181676000357,None,1568.0180102700367,1568.1182266001124,,,,,,,,,,,,s254_11022023,001,2023-11-02_16h11.44.562,test_typingtask_norepeats,2020.2.10,59.97041061146614,
would,would,,,,,0,11,11,11,,,,,,,,1573.5182159000542,None,"['w', 'o', 'u', 'l', 'd']",1,"[0.8758736001327634, 0.9959908002056181, 1.219864700222388, 1.4519212001468986, 1.539783800020814]",1573.5182159000542,None,1573.5180552699137,1573.6182099001016,,,,,,,,,,,,s254_11022023,001,2023-11-02_16h11.44.562,test_typingtask_norepeats,2020.2.10,59.97041061146614,
pykka,pykka,,,,,0,12,12,12,,,,,,,,1579.0182209999766,None,"['p', 'y', 'k']",0,"[1.5917832001578063, 2.863879700191319, 3.319876000052318]",1579.0182209999766,None,1579.018094770098,1579.1182228999678,,,,,,,,,,,,s254_11022023,001,2023-11-02_16h11.44.562,test_typingtask_norepeats,2020.2.10,59.97041061146614,
think,think,,,,,0,13,13,13,,,,,,,,1584.5182449999265,None,"['t', 'h', 'i', 'n', 'k']",1,"[0.9318017999175936, 1.05189389991574, 1.1398630000185221, 1.363858399912715, 1.4199188000056893]",1584.5182449999265,None,1584.5188516699243,1584.6182514999527,,,,,,,,,,,,s254_11022023,001,2023-11-02_16h11.44.562,test_typingtask_norepeats,2020.2.10,59.97041061146614,
would,would,,,,,0,14,14,14,,,,,,,,1590.0182564000133,None,"['w', 'o', 'u', 'l', 'd']",1,"[1.0158424000255764, 1.135782000143081, 1.3198547000065446, 1.5278729000128806, 1.6077517999801785]",1590.0182564000133,None,1590.0181745700072,1590.1182907000184,,,,,,,,,,,,s254_11022023,001,2023-11-02_16h11.44.562,test_typingtask_norepeats,2020.2.10,59.97041061146614,
kremp,kremp,,,,,0,15,15,15,,,,,,,,1595.5183329000138,None,"['k', 'r', 'e', 'p']",0,"[1.147752600023523, 1.3237042999826372, 1.5319081000052392, 1.6517936999443918]",1595.5183329000138,None,1595.5181751700118,1595.6183090000413,,,,,,,,,,,,s254_11022023,001,2023-11-02_16h11.44.562,test_typingtask_norepeats,2020.2.10,59.97041061146614,
pykka,pykka,,,,,0,16,16,16,,,,,,,,1601.0183337000199,None,"['p', 'y', 'k', 'k', 'a']",1,"[1.1117095998488367, 1.5837580000516027, 1.8716791998595, 2.0158241000026464, 2.1358095998875797]",1601.0183337000199,None,1601.018205470126,None,,,,,,,,,,,,s254_11022023,001,2023-11-02_16h11.44.562,test_typingtask_norepeats,2020.2.10,59.97041061146614,
kremp,kremp,,,,,0,17,17,17,,,,,,,,1606.5184162999503,None,"['k', 'r', 'e', 'm', 'p']",1,"[1.315608900040388, 1.5236002001911402, 1.715612699976191, 2.6276067001745105, 2.731788800098002]",1606.5184162999503,None,1606.5182220700196,None,,,,,,,,,,,,s254_11022023,001,2023-11-02_16h11.44.562,test_typingtask_norepeats,2020.2.10,59.97041061146614,
haole,haole,,,,,0,18,18,18,,,,,,,,1612.0183824999258,None,"['h', 'a', 'o', 'l', 'e']",1,"[1.2956624999642372, 1.8396537001244724, 2.327649899991229, 2.519783199997619, 2.7597650000825524]",1612.0183824999258,None,1612.0182611699681,None,,,,,,,,,,,,s254_11022023,001,2023-11-02_16h11.44.562,test_typingtask_norepeats,2020.2.10,59.97041061146614,
about,about,,,,,0,19,19,19,,,,,,,,1617.5184234001208,None,"['a', 'b', 'o', 'u', 't']",1,"[0.7556384999770671, 0.9956012999173254, 1.2837865999899805, 1.6196288000792265, 1.7637364000547677]",1617.5184234001208,None,1617.5182822700124,None,,,,,,,,,,,,s254_11022023,001,2023-11-02_16h11.44.562,test_typingtask_norepeats,2020.2.10,59.97041061146614,
pykka,pykka,,,,,0,20,20,20,,,,,,,,1623.0184236001223,None,"['p', 'y', 'k', 'k', 'a']",1,"[1.4156275000423193, 1.9196186000481248, 2.455604299902916, 2.599647899856791, 2.719616899965331]",1623.0184236001223,None,1623.0183117701206,None,,,,,,,,,,,,s254_11022023,001,2023-11-02_16h11.44.562,test_typingtask_norepeats,2020.2.10,59.97041061146614,
puppy,puppy,,,,,0,21,21,21,,,,,,,,1628.5184444999322,None,"['p', 'u', 'p', 'p', 'y']",1,"[1.4196143001317978, 1.6676748001482338, 2.1156123001128435, 2.2677063001319766, 2.395701300119981]",1628.5184444999322,None,1628.5183453699108,None,,,,,,,,,,,,s254_11022023,001,2023-11-02_16h11.44.562,test_typingtask_norepeats,2020.2.10,59.97041061146614,
buddy,buddy,,,,,0,22,22,22,,,,,,,,1634.0184736999217,None,"['b', 'u', 'd', 'd', 'y']",1,"[1.2715833000838757, 1.4716882000211626, 1.695690599968657, 1.815565099939704, 1.9276890000328422]",1634.0184736999217,None,1634.0183722699992,None,,,,,,,,,,,,s254_11022023,001,2023-11-02_16h11.44.562,test_typingtask_norepeats,2020.2.10,59.97041061146614,
heond,heond,,,,,0,23,23,23,,,,,,,,1639.5185366000514,None,"['h', 'e', 'o', 'n', 'd']",1,"[1.539511399809271, 1.7316365998703986, 2.2355344998650253, 2.6276378999464214, 2.763647399842739]",1639.5185366000514,None,1639.5184050700161,None,,,,,,,,,,,,s254_11022023,001,2023-11-02_16h11.44.562,test_typingtask_norepeats,2020.2.10,59.97041061146614,
edthe,edthe,,,,,0,24,24,24,,,,,,,,1645.018531500129,None,"['e', 'd', 't', 'h', 'e']",1,"[1.0475389000494033, 1.2397526998538524, 1.7516665998846292, 1.879515100037679, 2.031547199934721]",1645.018531500129,None,1645.0183966699522,None,,,,,,,,,,,,s254_11022023,001,2023-11-02_16h11.44.562,test_typingtask_norepeats,2020.2.10,59.97041061146614,
haole,haole,,,,,0,25,25,25,,,,,,,,1650.5185950999148,None,"['h', 'a', 'o', 'l', 'e']",1,"[1.0674860998988152, 1.7475072999950498, 2.0194625998847187, 2.203403600025922, 2.2756044999696314]",1650.5185950999148,None,1650.5184902699664,None,,,,,,,,,,,,s254_11022023,001,2023-11-02_16h11.44.562,test_typingtask_norepeats,2020.2.10,59.97041061146614,
belly,belly,,,,,0,26,26,26,,,,,,,,1656.018591,None,"['b', 'e', 'l', 'l', 'y']",1,"[1.0634971000254154, 1.2794724002014846, 1.591605800203979, 1.7516068001277745, 1.9115600001532584]",1656.018591,None,1656.0184903700836,None,,,,,,,,,,,,s254_11022023,001,2023-11-02_16h11.44.562,test_typingtask_norepeats,2020.2.10,59.97041061146614,
vodka,vodka,,,,,0,27,27,27,,,,,,,,1661.5186183000915,None,"['v', 'o', 'd', 'k', 'a']",1,"[1.227457500062883, 1.3955771001055837, 1.9794548000209033, 2.3234916001092643, 2.419468300184235]",1661.5186183000915,None,1661.5185266700107,None,,,,,,,,,,,,s254_11022023,001,2023-11-02_16h11.44.562,test_typingtask_norepeats,2020.2.10,59.97041061146614,
cooed,cooed,,,,,0,28,28,28,,,,,,,,1667.0186848000158,None,"['c', 'o', 'o', 'e', 'd']",1,"[1.1594049001578242, 1.439370300155133, 1.6155352999921888, 2.039373300038278, 2.1755109999794513]",1667.0186848000158,None,1667.018544269912,None,,,,,,,,,,,,s254_11022023,001,2023-11-02_16h11.44.562,test_typingtask_norepeats,2020.2.10,59.97041061146614,
there,there,,,,,0,29,29,29,,,,,,,,1672.518706999952,None,"['t', 'h', 'e', 'r', 'e']",1,"[1.027389399940148, 1.2114905999042094, 1.5873620000202209, 1.7394785999786109, 1.83535740012303]",1672.518706999952,None,1672.5185690701007,None,,,,,,,,,,,,s254_11022023,001,2023-11-02_16h11.44.562,test_typingtask_norepeats,2020.2.10,59.97041061146614,
vodka,vodka,,,,,0,30,30,30,,,,,,,,1678.018744800007,None,"['v', 'o', 'd', 'k', 'a']",1,"[1.1033480998594314, 1.3034448998514563, 1.6153762000612915, 2.0393342999741435, 2.11933710006997]",1678.018744800007,None,1678.0185978700872,None,,,,,,,,,,,,s254_11022023,001,2023-11-02_16h11.44.562,test_typingtask_norepeats,2020.2.10,59.97041061146614,
therm,therm,,,,,0,31,31,31,,,,,,,,1683.5187685999554,None,"['t', 'h', 'e', 'r', 'm']",1,"[0.9793279999867082, 1.4673127999994904, 1.7794345999136567, 1.9072909001260996, 2.099422900006175]",1683.5187685999554,None,1683.5186131700873,None,,,,,,,,,,,,s254_11022023,001,2023-11-02_16h11.44.562,test_typingtask_norepeats,2020.2.10,59.97041061146614,
there,there,,,,,0,32,32,32,,,,,,,,1689.0188148000743,None,"['t', 'h', 'e', 'r', 'e']",1,"[1.0072971999179572, 1.2554299000184983, 1.4712887001223862, 1.6074067999143153, 1.7514539000112563]",1689.0188148000743,None,1689.0186624701134,None,,,,,,,,,,,,s254_11022023,001,2023-11-02_16h11.44.562,test_typingtask_norepeats,2020.2.10,59.97041061146614,
faqir,faqir,,,,,0,33,33,33,,,,,,,,1694.5188442000654,None,"['f', 'a', 'q', 'i', 'r']",1,"[1.1792483997996897, 1.9632509998045862, 3.035359599860385, 3.227225999813527, 3.3473781999200583]",1694.5188442000654,None,1694.5186854700557,None,,,,,,,,,,,,s254_11022023,001,2023-11-02_16h11.44.562,test_typingtask_norepeats,2020.2.10,59.97041061146614,
think,think,,,,,0,34,34,34,,,,,,,,1700.0188664000016,None,"['t', 'h', 'i', 'n', 'k']",1,"[0.8552379000466317, 1.0073646001983434, 1.0952119000721723, 1.2313659000210464, 1.3033410999923944]",1700.0188664000016,None,1700.0187906699255,None,,,,,,,,,,,,s254_11022023,001,2023-11-02_16h11.44.562,test_typingtask_norepeats,2020.2.10,59.97041061146614,
tithe,tithe,,,,,0,35,35,35,,,,,,,,1705.5189078999683,None,"['t', 'i', 't', 'h', 'e']",1,"[1.2271979998331517, 1.4032933998387307, 1.5553048998117447, 2.00318059977144, 2.3953036998864263]",1705.5189078999683,None,1705.518776769936,None,,,,,,,,,,,,s254_11022023,001,2023-11-02_16h11.44.562,test_typingtask_norepeats,2020.2.10,59.97041061146614,
champ,champ,,,,,0,36,36,36,,,,,,,,1711.0189084000885,None,"['v', 'c', 'h', 'a', 'm', 'o']",0,"[1.0312109999358654, 2.0712009998969734, 2.159175199922174, 2.311138699995354, 2.3832960999570787, 2.5433084999676794]",1711.0189084000885,None,1711.018788570026,None,,,,,,,,,,,,s254_11022023,001,2023-11-02_16h11.44.562,test_typingtask_norepeats,2020.2.10,59.97041061146614,
would,would,,,,,0,37,37,37,,,,,,,,1716.518966899952,None,"['w', 'o', 'u', 'l', 'd']",1,"[0.9471385998185724, 1.1071239998564124, 1.3152752998284996, 1.5472503998316824, 1.6193438998889178]",1716.518966899952,None,1716.5188002699986,None,,,,,,,,,,,,s254_11022023,001,2023-11-02_16h11.44.562,test_typingtask_norepeats,2020.2.10,59.97041061146614,
about,about,,,,,0,38,38,38,,,,,,,,1722.0189879001118,None,"['a', 'b', 'o', 'u', 't']",1,"[1.3191254001576453, 1.5431062001734972, 1.6951554000843316, 1.847230600193143, 2.0951057001948357]",1722.0189879001118,None,1722.0188619701191,None,,,,,,,,,,,,s254_11022023,001,2023-11-02_16h11.44.562,test_typingtask_norepeats,2020.2.10,59.97041061146614,
edthe,edthe,,,,,0,39,39,39,,,,,,,,1727.519029499963,None,"['e', 'd', 't', 'h', 'e']",1,"[1.2510903999209404, 1.4591904999688268, 1.883091399911791, 2.0110575000289828, 2.1551298999693245]",1727.519029499963,None,1727.5188982700463,None,,,,,,,,,,,,s254_11022023,001,2023-11-02_16h11.44.562,test_typingtask_norepeats,2020.2.10,59.97041061146614,
lucky,lucky,,,,,0,40,40,40,,,,,,,,1733.0191142999101,None,"['l', 'u', 'c', 'k', 'y']",1,"[0.9590115998871624, 1.303004499990493, 1.567075700033456, 1.6389389000833035, 1.8230651000048965]",1733.0191142999101,None,1733.0189384701196,None,,,,,,,,,,,,s254_11022023,001,2023-11-02_16h11.44.562,test_typingtask_norepeats,2020.2.10,59.97041061146614,
champ,champ,,,,,0,41,41,41,,,,,,,,1738.519168900093,None,"['c', 'h', 'a', 'm', 'p']",1,"[0.834972099866718, 1.0190681999083608, 1.4989485999103636, 1.6270715999417007, 1.699072499992326]",1738.519168900093,None,1738.5190380699466,None,,,,,,,,,,,,s254_11022023,001,2023-11-02_16h11.44.562,test_typingtask_norepeats,2020.2.10,59.97041061146614,
therm,therm,,,,,0,42,42,42,,,,,,,,1744.019121899968,None,"['t', 'h', 'e', 'r', 'm']",1,"[1.054996500024572, 1.2391303000040352, 1.494989400031045, 1.6071166000328958, 1.7830880000256002]",1744.019121899968,None,1744.0189952700864,None,,,,,,,,,,,,s254_11022023,001,2023-11-02_16h11.44.562,test_typingtask_norepeats,2020.2.10,59.97041061146614,
cheer,cheer,,,,,0,43,43,43,,,,,,,,1749.5191601999104,None,"['c', 'h', 'e', 'e', 'r']",1,"[1.0189716001041234, 1.2269496000371873, 1.5229373001493514, 1.8030117000453174, 2.0510109001770616]",1749.5191601999104,None,1749.5190425700973,None,,,,,,,,,,,,s254_11022023,001,2023-11-02_16h11.44.562,test_typingtask_norepeats,2020.2.10,59.97041061146614,
zibja,zibja,,,,,0,44,44,44,,,,,,,,1755.0191711001098,None,"['z', 'i', 'b', 'j', 'a']",1,"[2.294972399948165, 2.447061900049448, 2.950981799978763, 3.1670856999699026, 3.2790830000303686]",1755.0191711001098,None,1755.0190667700488,1755.1191976000555,,,,,,,,,,,,s254_11022023,001,2023-11-02_16h11.44.562,test_typingtask_norepeats,2020.2.10,59.97041061146614,
edthe,edthe,,,,,0,45,45,45,,,,,,,,1760.5192346000113,None,"['e', 'd', 't', 'h', 'e']",1,"[0.8509015999734402, 1.1790248001925647, 1.706882500089705, 1.8191699001472443, 1.9389792999718338]",1760.5192346000113,None,1760.519099269947,None,,,,,,,,,,,,s254_11022023,001,2023-11-02_16h11.44.562,test_typingtask_norepeats,2020.2.10,59.97041061146614,
lucky,lucky,,,,,0,46,46,46,,,,,,,,1766.0192225999199,None,"['l', 'u', 'c', 'k', 'y']",1,"[1.0229216001462191, 1.36709040007554, 1.5909082000143826, 1.7110296001192182, 1.9349215000402182]",1766.0192225999199,None,1766.0191273700445,None,,,,,,,,,,,,s254_11022023,001,2023-11-02_16h11.44.562,test_typingtask_norepeats,2020.2.10,59.97041061146614,
cooed,cooed,,,,,0,47,47,47,,,,,,,,1771.519257799955,None,"['c', 'o', 'o', 'e', 'd']",1,"[0.8508895998820662, 1.0430075000040233, 1.1950184998568147, 1.563005100004375, 1.690873899962753]",1771.519257799955,None,1771.5191775699611,None,,,,,,,,,,,,s254_11022023,001,2023-11-02_16h11.44.562,test_typingtask_norepeats,2020.2.10,59.97041061146614,
tithe,tithe,,,,,0,48,48,48,,,,,,,,1777.0192909000907,None,"['t', 'i', 't', 'h', 'e']",1,"[1.2148514001164585, 1.3269283000845462, 1.9829615999478847, 2.1189665000420064, 2.342978799948469]",1777.0192909000907,None,1777.0191783699672,None,,,,,,,,,,,,s254_11022023,001,2023-11-02_16h11.44.562,test_typingtask_norepeats,2020.2.10,59.97041061146614,
vanru,vanru,,,,,0,49,49,49,,,,,,,,1782.5193259001244,None,"['v', 'a', 'n', 'r', 'u']",1,"[1.2588257999159396, 2.162823999999091, 2.378937300061807, 2.5149314999580383, 2.634927799925208]",1782.5193259001244,None,1782.5192348700482,None,,,,,,,,,,,,s254_11022023,001,2023-11-02_16h11.44.562,test_typingtask_norepeats,2020.2.10,59.97041061146614,
heond,heond,,,,,0,50,50,50,,,,,,,,1788.0193926999345,None,"['h', 'e', 'o', 'n', 'd']",1,"[1.1027959999628365, 1.2468852000311017, 1.8947544998954982, 2.3028828999958932, 2.478889799909666]",1788.0193926999345,None,1788.019258469995,None,,,,,,,,,,,,s254_11022023,001,2023-11-02_16h11.44.562,test_typingtask_norepeats,2020.2.10,59.97041061146614,
champ,champ,,,,,0,51,51,51,,,,,,,,1793.519469999941,None,"['c', 'h', 'a', 'm', 'p']",1,"[1.0186902999412268, 1.1946525000967085, 1.8667595000006258, 1.9948152001015842, 2.106806700117886]",1793.519469999941,None,1793.5192925701383,None,,,,,,,,,,,,s254_11022023,001,2023-11-02_16h11.44.562,test_typingtask_norepeats,2020.2.10,59.97041061146614,
think,think,,,,,0,52,52,52,,,,,,,,1799.0194240999408,None,"['t', 'h', 'i', 'n', 'k']",1,"[1.2867568000219762, 1.9107313000131398, 2.1748896001372486, 2.438734299968928, 2.694726499961689]",1799.0194240999408,None,1799.0193184699863,None,,,,,,,,,,,,s254_11022023,001,2023-11-02_16h11.44.562,test_typingtask_norepeats,2020.2.10,59.97041061146614,
haole,haole,,,,,0,53,53,53,,,,,,,,1804.519492899999,None,"['h', 'a', 'o', 'l', 'e']",1,"[1.0506769001949579, 1.7226697001606226, 1.9947842999827117, 2.2107909000478685, 2.322776800021529]",1804.519492899999,None,1804.5193766699638,None,,,,,,,,,,,,s254_11022023,001,2023-11-02_16h11.44.562,test_typingtask_norepeats,2020.2.10,59.97041061146614,
edthe,edthe,,,,,0,54,54,54,,,,,,,,1810.019527599914,None,"['e', 'd', 't', 'h', 'e']",1,"[0.8866423000581563, 1.1107854000292718, 1.670638200128451, 1.790737499948591, 1.902918600011617]",1810.019527599914,None,1810.0194018699228,None,,,,,,,,,,,,s254_11022023,001,2023-11-02_16h11.44.562,test_typingtask_norepeats,2020.2.10,59.97041061146614,
vodka,vodka,,,,,0,55,55,55,,,,,,,,1815.5195442999247,None,"['v', 'o', 'd', 'k', 'a']",1,"[2.2266277000308037, 2.4107151001226157, 2.922832699958235, 3.1307366001419723, 3.2347328001633286]",1815.5195442999247,None,1815.5194333700463,None,,,,,,,,,,,,s254_11022023,001,2023-11-02_16h11.44.562,test_typingtask_norepeats,2020.2.10,59.97041061146614,
cooed,cooed,,,,,0,56,56,56,,,,,,,,1821.0196022000164,None,"['c', 'o', 'o', 'e', 'd']",1,"[0.9826100000645965, 1.1985593000426888, 1.3506744999904186, 2.1905610000249, 2.31054830015637]",1821.0196022000164,None,1821.0194997700862,None,,,,,,,,,,,,s254_11022023,001,2023-11-02_16h11.44.562,test_typingtask_norepeats,2020.2.10,59.97041061146614,
puppy,puppy,,,,,0,57,57,57,,,,,,,,1826.5196179000195,None,"['p', 'u', 'p', 'p', 'y']",1,"[1.1545639000833035, 1.4746251001488417, 1.9626861000433564, 2.122666400158778, 2.2746644001454115]",1826.5196179000195,None,1826.519485569978,None,,,,,,,,,,,,s254_11022023,001,2023-11-02_16h11.44.562,test_typingtask_norepeats,2020.2.10,59.97041061146614,
kremp,kremp,,,,,0,58,58,58,,,,,,,,1832.0196479000151,None,"['k', 'r', 'e', 'm', 'p']",1,"[1.0145465999376029, 1.1826734999194741, 1.3184590998571366, 1.9585120999254286, 2.04665319994092]",1832.0196479000151,None,1832.019495069934,None,,,,,,,,,,,,s254_11022023,001,2023-11-02_16h11.44.562,test_typingtask_norepeats,2020.2.10,59.97041061146614,
belly,belly,,,,,0,59,59,59,,,,,,,,1837.5197022000793,None,"['b', 'e', 'l', 'l', 'y']",1,"[0.8824889999814332, 1.1225932999514043, 1.4346025998238474, 1.5546005999203771, 1.674586699809879]",1837.5197022000793,None,1837.5195326699875,None,,,,,,,,,,,,s254_11022023,001,2023-11-02_16h11.44.562,test_typingtask_norepeats,2020.2.10,59.97041061146614,
theme,theme,,,,,0,60,60,60,,,,,,,,1843.0197095000185,None,"['t', 'h', 'e', 'm', 'e']",1,"[1.1264893999323249, 1.3025919999927282, 1.4466041000559926, 1.5985214000102133, 1.7826042999513447]",1843.0197095000185,None,1843.0195941701065,None,,,,,,,,,,,,s254_11022023,001,2023-11-02_16h11.44.562,test_typingtask_norepeats,2020.2.10,59.97041061146614,
lucky,lucky,,,,,0,61,61,61,,,,,,,,1848.5197503999807,None,"['l', 'u', 'c', 'k', 'y']",1,"[1.0664606001228094, 1.346555800177157, 1.5705617000348866, 1.706569500034675, 1.9304311000742018]",1848.5197503999807,None,1848.5196360700763,None,,,,,,,,,,,,s254_11022023,001,2023-11-02_16h11.44.562,test_typingtask_norepeats,2020.2.10,59.97041061146614,
about,about,,,,,0,62,62,62,,,,,,,,1854.019794400083,None,"['a', 'b', 'o', 'u', 't']",1,"[0.9984210000839084, 1.126510800095275, 1.254521300084889, 1.3745486000552773, 1.5183717000763863]",1854.019794400083,None,1854.0196711699944,None,,,,,,,,,,,,s254_11022023,001,2023-11-02_16h11.44.562,test_typingtask_norepeats,2020.2.10,59.97041061146614,
druze,druze,,,,,0,63,63,63,,,,,,,,1859.5198317000177,None,"['d', 'r', 'u', 'z', 'e']",1,"[1.0743912998586893, 1.29844699986279, 1.4264602998737246, 2.5863683000206947, 2.810503500048071]",1859.5198317000177,None,1859.519700769987,None,,,,,,,,,,,,s254_11022023,001,2023-11-02_16h11.44.562,test_typingtask_norepeats,2020.2.10,59.97041061146614,
cooed,cooed,,,,,0,64,64,64,,,,,,,,1865.0198693999555,None,"['c', 'o', 'o', 'e', 'd']",1,"[0.9023771998472512, 1.1264468999579549, 1.2864385999273509, 1.7183699999004602, 1.8383211998734623]",1865.0198693999555,None,1865.0197460699826,None,,,,,,,,,,,,s254_11022023,001,2023-11-02_16h11.44.562,test_typingtask_norepeats,2020.2.10,59.97041061146614,
vanru,vanru,,,,,0,65,65,65,,,,,,,,1870.5199003999587,None,"['v', 'a', 'n', 'r', 'u']",1,"[1.3143299999646842, 1.4344310997985303, 1.5944195999763906, 2.274304299848154, 2.3545899000018835]",1870.5199003999587,None,1870.5197571699507,None,,,,,,,,,,,,s254_11022023,001,2023-11-02_16h11.44.562,test_typingtask_norepeats,2020.2.10,59.97041061146614,
think,think,,,,,0,66,66,66,,,,,,,,1876.0199053999968,None,"['t', 'h', 'n', 'k']",0,"[1.1343143000267446, 1.2704260998871177, 1.5264145000837743, 1.6624195000622422]",1876.0199053999968,None,1876.0198121701367,None,,,,,,,,,,,,s254_11022023,001,2023-11-02_16h11.44.562,test_typingtask_norepeats,2020.2.10,59.97041061146614,
faqir,faqir,,,,,0,67,67,67,,,,,,,,1881.519979499979,None,"['f', 'a', 'q', 'i', 'r']",1,"[1.2182515000458807, 1.4662881002295762, 2.402239000191912, 2.5542926001362503, 2.6742794001474977]",1881.519979499979,None,1881.5198049700819,None,,,,,,,,,,,,s254_11022023,001,2023-11-02_16h11.44.562,test_typingtask_norepeats,2020.2.10,59.97041061146614,
therm,therm,,,,,0,68,68,68,,,,,,,,1887.020012699999,None,"['t', 'h', 'e', 'r', 'm']",1,"[0.8382316001225263, 1.150257800007239, 1.5741976001299918, 1.718329800060019, 2.014307799981907]",1887.020012699999,None,1887.0198998699896,None,,,,,,,,,,,,s254_11022023,001,2023-11-02_16h11.44.562,test_typingtask_norepeats,2020.2.10,59.97041061146614,
zibja,zibja,,,,,0,69,69,69,,,,,,,,1892.5200426999945,None,"['z', 'i', 'b', 'j', 'a']",1,"[1.1701833000406623, 1.4263600001577288, 1.9701719000004232, 2.914162800181657, 3.0823862000834197]",1892.5200426999945,None,1892.5199197700247,None,,,,,,,,,,,,s254_11022023,001,2023-11-02_16h11.44.562,test_typingtask_norepeats,2020.2.10,59.97041061146614,
therm,therm,,,,,0,70,70,70,,,,,,,,1898.0200847999658,None,"['t', 'h', 'e', 'r', 'm']",1,"[1.1341373999603093, 1.39025290007703, 1.918125299969688, 1.9902468000072986, 2.166276799980551]",1898.0200847999658,None,1898.0203446701169,None,,,,,,,,,,,,s254_11022023,001,2023-11-02_16h11.44.562,test_typingtask_norepeats,2020.2.10,59.97041061146614,
vodka,vodka,,,,,0,71,71,71,,,,,,,,1903.5201183999889,None,"['v', 'o', 'd', 'k', 'a']",1,"[1.298115500016138, 1.5301063999067992, 1.8983221999369562, 2.2821082000155, 2.4182213000021875]",1903.5201183999889,None,1903.5199644700158,None,,,,,,,,,,,,s254_11022023,001,2023-11-02_16h11.44.562,test_typingtask_norepeats,2020.2.10,59.97041061146614,
druze,druze,,,,,0,72,72,72,,,,,,,,1909.0201202000026,None,"['d', 'r', 'u', 'z', 'e']",1,"[0.9661148001905531, 1.2062433001119643, 1.4381032001692802, 2.2461135000921786, 2.5022215000353754]",1909.0201202000026,None,1909.0200270700268,None,,,,,,,,,,,,s254_11022023,001,2023-11-02_16h11.44.562,test_typingtask_norepeats,2020.2.10,59.97041061146614,
cheer,cheer,,,,,0,73,73,73,,,,,,,,1914.520192099968,None,"['c', 'h', 'e', 'r', 'r']",0,"[0.8660512999631464, 1.0741556999273598, 1.2580413001123816, 1.3621823999565095, 2.3540499000810087]",1914.520192099968,None,1914.5200509700924,None,,,,,,,,,,,,s254_11022023,001,2023-11-02_16h11.44.562,test_typingtask_norepeats,2020.2.10,59.97041061146614,
would,would,,,,,0,74,74,74,,,,,,,,1920.0202291000169,None,"['w', 'o', 'u', 'l', 'd']",1,"[1.7340269000269473, 1.8621300000231713, 2.0621150999795645, 2.2699940998572856, 2.3741460000164807]",1920.0202291000169,None,1920.0200987699907,1920.1202239999548,,,,,,,,,,,,s254_11022023,001,2023-11-02_16h11.44.562,test_typingtask_norepeats,2020.2.10,59.97041061146614,
think,think,,,,,0,75,75,75,,,,,,,,1925.5202596001327,None,"['t', 'h', 'i', 'n', 'k']",1,"[0.7220521999988705, 0.985982800135389, 1.23408790002577, 1.5300900000147521, 1.7460988000966609]",1925.5202596001327,None,1925.52013367014,1925.6202614000067,,,,,,,,,,,,s254_11022023,001,2023-11-02_16h11.44.562,test_typingtask_norepeats,2020.2.10,59.97041061146614,
there,there,,,,,0,76,76,76,,,,,,,,1931.020283699967,None,"['t', 'h', 'e', 'r', 'e']",1,"[0.8619613999035209, 1.0140923999715596, 1.1500995999667794, 1.2540798000991344, 1.4220680000726134]",1931.020283699967,None,1931.0201369700487,1931.120295099914,,,,,,,,,,,,s254_11022023,001,2023-11-02_16h11.44.562,test_typingtask_norepeats,2020.2.10,59.97041061146614,
druze,druze,,,,,0,77,77,77,,,,,,,,1936.520307800034,None,"['d', 'r', 'u', 'z', 'e']",1,"[1.3299463000148535, 1.5539505998604, 1.8099255999550223, 2.385927499970421, 2.682047599926591]",1936.520307800034,None,1936.5202110700309,1936.6203350999858,,,,,,,,,,,,s254_11022023,001,2023-11-02_16h11.44.562,test_typingtask_norepeats,2020.2.10,59.97041061146614,
puppy,puppy,,,,,0,78,78,78,,,,,,,,1942.0203511000145,None,"['p', 'u', 'p', 'p', 'y']",1,"[1.4539123000577092, 1.7100088000297546, 2.118021700065583, 2.2940497000236064, 2.5498846999835223]",1942.0203511000145,None,1942.02024236992,1942.1203711000271,,,,,,,,,,,,s254_11022023,001,2023-11-02_16h11.44.562,test_typingtask_norepeats,2020.2.10,59.97041061146614,
therm,therm,,,,,0,79,79,79,,,,,,,,1947.5203988000285,None,"['t', 'h', 'e', 'r', 'm']",1,"[0.9458717999514192, 1.3778291000053287, 1.609973100014031, 1.721874700160697, 2.0099608001764864]",1947.5203988000285,None,1947.520279470086,1947.620408399962,,,,,,,,,,,,s254_11022023,001,2023-11-02_16h11.44.562,test_typingtask_norepeats,2020.2.10,59.97041061146614,
champ,champ,,,,,0,80,80,80,,,,,,,,1953.0204098001122,None,"['c', 'h', 'a', 'm', 'p']",1,"[0.893855300033465, 1.0778975000139326, 1.5978343999013305, 1.7259543999098241, 1.7979609000030905]",1953.0204098001122,None,1953.0203212699387,None,,,,,,,,,,,,s254_11022023,001,2023-11-02_16h11.44.562,test_typingtask_norepeats,2020.2.10,59.97041061146614,
heond,heond,,,,,0,81,81,81,,,,,,,,1958.5204688999802,None,"['h', 'e', 'o', 'n', 'd']",1,"[1.105799000011757, 1.6657773999031633, 1.897899999981746, 2.225794400088489, 2.4017672000918537]",1958.5204688999802,None,1958.5203118701,None,,,,,,,,,,,,s254_11022023,001,2023-11-02_16h11.44.562,test_typingtask_norepeats,2020.2.10,59.97041061146614,
vanru,vanru,,,,,0,82,82,82,,,,,,,,1964.0204793000594,None,"['v', 'a', 'n', 'r', 'u']",1,"[1.0617853000294417, 1.861795999808237, 2.053897899808362, 2.2059346998576075, 2.3418909998144954]",1964.0204793000594,None,1964.0203475700225,None,,,,,,,,,,,,s254_11022023,001,2023-11-02_16h11.44.562,test_typingtask_norepeats,2020.2.10,59.97041061146614,
tithe,tithe,,,,,0,83,83,83,,,,,,,,1969.520528000081,None,"['t', 'i', 't', 'h', 'e']",1,"[0.913777600042522, 1.1218499999959022, 1.3458760001230985, 1.8977338001132011, 2.0337096999865025]",1969.520528000081,None,1969.520419469988,None,,,,,,,,,,,,s254_11022023,001,2023-11-02_16h11.44.562,test_typingtask_norepeats,2020.2.10,59.97041061146614,
theme,theme,,,,,0,84,84,84,,,,,,,,1975.020587499952,None,"['t', 'h', 'e', 'm', 'e']",1,"[0.9576929998584092, 1.1498050999362022, 1.2937892999034375, 1.5017029999289662, 1.6139076999388635]",1975.020587499952,None,1975.0204555699136,None,,,,,,,,,,,,s254_11022023,001,2023-11-02_16h11.44.562,test_typingtask_norepeats,2020.2.10,59.97041061146614,
druze,druze,,,,,0,85,85,85,,,,,,,,1980.5206186000723,None,"['d', 'r', 'u', 'z', 'e']",1,"[0.953666899818927, 1.19365209992975, 1.3297601998783648, 1.7538500998634845, 2.0176406998652965]",1980.5206186000723,None,1980.5204882700461,1980.6206253001,,,,,,,,,,,,s254_11022023,001,2023-11-02_16h11.44.562,test_typingtask_norepeats,2020.2.10,59.97041061146614,
there,there,,,,,0,86,86,86,,,,,,,,1986.0206611000467,None,"['t', 'h', 'e', 'r', 'e']",1,"[0.8216212999541312, 0.9575904000084847, 1.133662800071761, 1.221735600149259, 1.3657595000695437]",1986.0206611000467,None,1986.0205327700357,None,,,,,,,,,,,,s254_11022023,001,2023-11-02_16h11.44.562,test_typingtask_norepeats,2020.2.10,59.97041061146614,
haole,haole,,,,,0,87,87,87,,,,,,,,1991.5206957999617,None,"['h', 'a', 'o', 'l', 'e']",1,"[1.1216013000812382, 1.761592899914831, 2.1536044999957085, 2.3456959000322968, 2.4656938000116497]",1991.5206957999617,None,1991.520554670086,None,,,,,,,,,,,,s254_11022023,001,2023-11-02_16h11.44.562,test_typingtask_norepeats,2020.2.10,59.97041061146614,
belly,belly,,,,,0,88,88,88,,,,,,,,1997.0207314,None,"['b', 'e', 'l', 'l', 'y']",1,"[1.0295856001321226, 1.2856787000782788, 1.6216792999766767, 1.7976880001369864, 1.9096662001684308]",1997.0207314,None,1997.0205914701335,None,,,,,,,,,,,,s254_11022023,001,2023-11-02_16h11.44.562,test_typingtask_norepeats,2020.2.10,59.97041061146614,
tithe,tithe,,,,,0,89,89,89,,,,,,,,2002.5207686999347,None,"['t', 'i', 't', 'h', 'e']",1,"[1.1855279998853803, 1.361625999910757, 2.2415366999339312, 2.62569549982436, 2.7456236998550594]",2002.5207686999347,None,2002.5206269700545,None,,,,,,,,,,,,s254_11022023,001,2023-11-02_16h11.44.562,test_typingtask_norepeats,2020.2.10,59.97041061146614,
about,about,,,,,0,90,90,90,,,,,,,,2008.0208083000034,None,"['a', 'b', 'o', 'u', 't']",1,"[0.7975081999320537, 0.9815656999126077, 1.0774654999841005, 1.2135582999326289, 1.3735964999068528]",2008.0208083000034,None,2008.0206468700896,2008.1208093999885,,,,,,,,,,,,s254_11022023,001,2023-11-02_16h11.44.562,test_typingtask_norepeats,2020.2.10,59.97041061146614,
cooed,cooed,,,,,0,91,91,91,,,,,,,,2013.520850500092,None,"['c', 'o', 'o', 'd', 'e']",0,"[0.9615169002208859, 1.2415605999995023, 1.4494422001298517, 1.561550100101158, 1.7774350000545382]",2013.520850500092,None,2013.5206878699362,2013.6208528999705,,,,,,,,,,,,s254_11022023,001,2023-11-02_16h11.44.562,test_typingtask_norepeats,2020.2.10,59.97041061146614,
zibja,zibja,,,,,0,92,92,92,,,,,,,,2019.020908500068,None,"['z', 'i', 'b', 'j', 'a']",1,"[2.045400299830362, 2.197514900006354, 2.461383800022304, 2.645392999984324, 2.733540799934417]",2019.020908500068,None,2019.0207367699593,2019.120911899954,,,,,,,,,,,,s254_11022023,001,2023-11-02_16h11.44.562,test_typingtask_norepeats,2020.2.10,59.97041061146614,
cheer,cheer,,,,,0,93,93,93,,,,,,,,2024.5209264000878,None,"['c', 'h', 'e', 'e', 'r']",1,"[0.9134168999735266, 1.1054769998881966, 1.2974827999714762, 1.4575082999654114, 1.6415142000187188]",2024.5209264000878,None,2024.520799270086,2024.6209178001154,,,,,,,,,,,,s254_11022023,001,2023-11-02_16h11.44.562,test_typingtask_norepeats,2020.2.10,59.97041061146614,
tithe,tithe,,,,,0,94,94,94,,,,,,,,2030.0209609000012,None,"['t', 'i', 't', 'h', 'e']",1,"[1.181347600184381, 1.5973515000659972, 2.005329200066626, 2.3653239000122994, 2.6533147001173347]",2030.0209609000012,None,2030.0208283699583,None,,,,,,,,,,,,s254_11022023,001,2023-11-02_16h11.44.562,test_typingtask_norepeats,2020.2.10,59.97041061146614,
pykka,pykka,,,,,0,95,95,95,,,,,,,,2035.5209822999313,None,"['p', 'y', 'k', 'k', 'a']",1,"[1.5293428001459688, 1.9613096001558006, 2.5614499000366777, 2.7373254999984056, 2.8574503001291305]",2035.5209822999313,None,2035.5208666701335,None,,,,,,,,,,,,s254_11022023,001,2023-11-02_16h11.44.562,test_typingtask_norepeats,2020.2.10,59.97041061146614,
about,about,,,,,0,96,96,96,,,,,,,,2041.021032599965,None,"['a', 'b', 'o', 'u', 't']",1,"[1.4133182999212295, 1.8772823999170214, 2.1253988998942077, 2.2934364997781813, 2.549279399914667]",2041.021032599965,None,2041.0209079700987,None,,,,,,,,,,,,s254_11022023,001,2023-11-02_16h11.44.562,test_typingtask_norepeats,2020.2.10,59.97041061146614,
buddy,buddy,,,,,0,97,97,97,,,,,,,,2046.5210667001083,None,"['b', 'u', 'u', 'd', 'y']",0,"[1.0012662000954151, 1.2173667000606656, 1.34534200001508, 1.457429900066927, 1.6413652000483125]",2046.5210667001083,None,2046.5209449699148,2046.6210698001087,,,,,,,,,,,,s254_11022023,001,2023-11-02_16h11.44.562,test_typingtask_norepeats,2020.2.10,59.97041061146614,
theme,theme,,,,,0,98,98,98,,,,,,,,2052.02106690011,None,"['t', 'h', 'e', 'r', 'm']",0,"[0.8052612999454141, 0.9013998000882566, 1.0293558000121266, 1.1174731000792235, 1.1893633999861777]",2052.02106690011,None,2052.021278170124,2052.121102000121,,,,,,,,,,,,s254_11022023,001,2023-11-02_16h11.44.562,test_typingtask_norepeats,2020.2.10,59.97041061146614,
there,there,,,,,0,99,99,99,,,,,,,,2057.5211523000617,None,"['t', 'h', 'e', 'r', 'e']",1,"[1.0572339000646025, 1.1853223000653088, 1.2812799999956042, 1.3771579000167549, 1.521310199983418]",2057.5211523000617,None,2057.521023970051,2057.6212273000274,,,,,,,,,,,,s254_11022023,001,2023-11-02_16h11.44.562,test_typingtask_norepeats,2020.2.10,59.97041061146614,
puppy,puppy,,,,,0,100,100,100,,,,,,,,2063.021181399934,None,"['p', 'u', 'p', 'p', 'y']",1,"[1.117644099984318, 1.4211776999291033, 1.9811318998690695, 2.1251407000236213, 2.2852590999100357]",2063.021181399934,None,2063.0210603700953,None,,,,,,,,,,,,s254_11022023,001,2023-11-02_16h11.44.562,test_typingtask_norepeats,2020.2.10,59.97041061146614,
vanru,vanru,,,,,0,101,101,101,,,,,,,,2068.521187500097,None,"['v', 'a', 'n', 'r', 'u']",1,"[1.1051507000811398, 1.3851423000451177, 1.537125099916011, 1.7612654000986367, 1.9052589000202715]",2068.521187500097,None,2068.521094270004,None,,,,,,,,,,,,s254_11022023,001,2023-11-02_16h11.44.562,test_typingtask_norepeats,2020.2.10,59.97041061146614,
faqir,faqir,,,,,0,102,102,102,,,,,,,,2074.0212624999695,None,"['f', 'a', 'q', 'i', 'r']",1,"[1.0610807999037206, 1.325199699960649, 2.6130796999204904, 2.757051299791783, 2.901054299902171]",2074.0212624999695,None,2074.021133169951,2074.121261900058,,,,,,,,,,,,s254_11022023,001,2023-11-02_16h11.44.562,test_typingtask_norepeats,2020.2.10,59.97041061146614,
kremp,kremp,,,,,0,103,103,103,,,,,,,,2079.521289800061,None,"['k', 'r', 'e', 'm', 'p']",1,"[1.625065399799496, 1.9130372998770326, 2.105039999820292, 2.673048699973151, 2.761054700007662]",2079.521289800061,None,2079.5211748699194,2079.62131460011,,,,,,,,,,,,s254_11022023,001,2023-11-02_16h11.44.562,test_typingtask_norepeats,2020.2.10,59.97041061146614,
buddy,buddy,,,,,0,104,104,104,,,,,,,,2085.021310799988,None,"['b', 'u', 'd', 'd', 'y']",1,"[1.1330744000151753, 1.5170245000626892, 1.7570491000078619, 1.925163900014013, 2.069132999982685]",2085.021310799988,None,2085.0212054699196,2085.1213591000997,,,,,,,,,,,,s254_11022023,001,2023-11-02_16h11.44.562,test_typingtask_norepeats,2020.2.10,59.97041061146614,
haole,haole,,,,,0,105,105,105,,,,,,,,2090.521360800136,None,"['h', 'a', 'o', 'l', 'e']",1,"[1.192990900017321, 1.9609978999942541, 2.169122900115326, 2.400984800187871, 2.617002099985257]",2090.521360800136,None,2090.521212869976,2090.6213837999385,,,,,,,,,,,,s254_11022023,001,2023-11-02_16h11.44.562,test_typingtask_norepeats,2020.2.10,59.97041061146614,
heond,heond,,,,,0,106,106,106,,,,,,,,2096.021383000072,None,"['h', 'e', 'o', 'n', 'd']",1,"[1.0929835001006722, 1.4849904999136925, 1.8929528999142349, 2.2530855000950396, 2.420955500099808]",2096.021383000072,None,2096.0212878700813,None,,,,,,,,,,,,s254_11022023,001,2023-11-02_16h11.44.562,test_typingtask_norepeats,2020.2.10,59.97041061146614,
zibja,zibja,,,,,0,107,107,107,,,,,,,,2101.5214519000147,None,"['z', 'i', 'b']",0,"[1.3049069000408053, 1.6089431000873446, 3.2889203000813723]",2101.5214519000147,None,2101.5214016700165,2101.621417300077,,,,,,,,,,,,s254_11022023,001,2023-11-02_16h11.44.562,test_typingtask_norepeats,2020.2.10,59.97041061146614,
kremp,kremp,,,,,0,108,108,108,,,,,,,,2107.0214881000575,None,"['k', 'r', 'e', 'm', 'p']",1,"[1.5568711999803782, 1.7649945998564363, 1.8368557998910546, 2.037001899909228, 2.1009801998734474]",2107.0214881000575,None,2107.0213627700696,2107.1214904000517,,,,,,,,,,,,s254_11022023,001,2023-11-02_16h11.44.562,test_typingtask_norepeats,2020.2.10,59.97041061146614,
lucky,lucky,,,,,0,109,109,109,,,,,,,,2112.5215270000044,None,"['l', 'u', 'c', 'k', 'y']",1,"[1.0728446999564767, 1.3928240998648107, 1.5769505999051034, 1.6808267999440432, 1.9449414000846446]",2112.5215270000044,None,2112.521369470004,2112.6215228000656,,,,,,,,,,,,s254_11022023,001,2023-11-02_16h11.44.562,test_typingtask_norepeats,2020.2.10,59.97041061146614,
zibja,zibja,,,,,0,110,110,110,,,,,,,,2118.0215503000654,None,"['z', 'i', 'b', 'j', 'a']",1,"[1.6528329998254776, 1.996840599924326, 2.4209313997998834, 2.6691282999236137, 2.7728163998108357]",2118.0215503000654,None,2118.0214123699816,2118.121561100008,,,,,,,,,,,,s254_11022023,001,2023-11-02_16h11.44.562,test_typingtask_norepeats,2020.2.10,59.97041061146614,
champ,champ,,,,,0,111,111,111,,,,,,,,2123.521568099968,None,"['c', 'h', 'a', 'm', 'p']",1,"[1.0808184000197798, 1.1927885999903083, 1.8170614999253303, 2.3528024000115693, 2.5449347998946905]",2123.521568099968,None,2123.521479669912,2123.621606100118,,,,,,,,,,,,s254_11022023,001,2023-11-02_16h11.44.562,test_typingtask_norepeats,2020.2.10,59.97041061146614,
belly,belly,,,,,0,112,112,112,,,,,,,,2129.02160550002,None,"['b', 'e', 'l', 'l', 'y']",1,"[0.7807778001297265, 1.0367615001741797, 1.3488884000107646, 1.5327793001197278, 1.6608615000732243]",2129.02160550002,None,2129.0215036700947,2129.121647299966,,,,,,,,,,,,s254_11022023,001,2023-11-02_16h11.44.562,test_typingtask_norepeats,2020.2.10,59.97041061146614,
druze,druze,,,,,0,113,113,113,,,,,,,,2134.5216767000966,None,"['d', 'r', 'u', 'z', 'e']",1,"[0.9686931001488119, 1.2248136000707746, 1.424809600226581, 1.9688260001130402, 2.2329691001214087]",2134.5216767000966,None,2134.5215505701026,2134.6216778000817,,,,,,,,,,,,s254_11022023,001,2023-11-02_16h11.44.562,test_typingtask_norepeats,2020.2.10,59.97041061146614,
belly,belly,,,,,0,114,114,114,,,,,,,,2140.0217190000694,None,"['b', 'e', 'l', 'l', 'y']",1,"[0.9006850998848677, 1.180774400010705, 1.444776999996975, 1.6207627998664975, 1.7327518998645246]",2140.0217190000694,None,2140.0215917699506,None,,,,,,,,,,,,s254_11022023,001,2023-11-02_16h11.44.562,test_typingtask_norepeats,2020.2.10,59.97041061146614,
edthe,edthe,,,,,0,115,115,115,,,,,,,,2145.521719499957,None,"['e', 'd', 't', 'h', 'e']",1,"[1.3766704997979105, 1.6087731998413801, 1.9766326998360455, 2.0967941000126302, 2.2086499999277294]",2145.521719499957,None,2145.5215985700024,2145.621727500111,,,,,,,,,,,,s254_11022023,001,2023-11-02_16h11.44.562,test_typingtask_norepeats,2020.2.10,59.97041061146614,
pykka,pykka,,,,,0,116,116,116,,,,,,,,2151.0217834999785,None,"['p', 'y', 'k', 'k', 'a']",1,"[1.3486157001461834, 1.772615000139922, 2.9246307001449168, 3.0685893001500517, 3.220707100117579]",2151.0217834999785,None,2151.0216375700666,2151.1217922000214,,,,,,,,,,,,s254_11022023,001,2023-11-02_16h11.44.562,test_typingtask_norepeats,2020.2.10,59.97041061146614,
buddy,buddy,,,,,0,117,117,117,,,,,,,,2156.521824900061,None,"['b', 'u', 'd', 'd', 'y']",1,"[1.1525643998757005, 1.3845549998804927, 1.584684900008142, 1.7367032999172807, 1.8566574999131262]",2156.521824900061,None,2156.5217184701005,2156.621848900104,,,,,,,,,,,,s254_11022023,001,2023-11-02_16h11.44.562,test_typingtask_norepeats,2020.2.10,59.97041061146614,
theme,theme,,,,,0,118,118,118,,,,,,,,2162.0218649001326,None,"['t', 'h', 'e', 'm', 'e']",1,"[0.9245616998523474, 1.0765092000365257, 1.2206296999938786, 1.6125342000741512, 1.7086215000599623]",2162.0218649001326,None,2162.0217378700154,2162.121894699987,,,,,,,,,,,,s254_11022023,001,2023-11-02_16h11.44.562,test_typingtask_norepeats,2020.2.10,59.97041061146614,
faqir,faqir,,,,,0,119,119,119,,,,,,,,2167.5219187000766,None,"['f', 'a', 'q', 'i', 'r']",1,"[1.440534699941054, 1.9044869998469949, 3.064486699877307, 3.1684176998678595, 3.360664299922064]",2167.5219187000766,None,2167.5217768700795,2167.6218789000995,,,,,,,,,,,,s254_11022023,001,2023-11-02_16h11.44.562,test_typingtask_norepeats,2020.2.10,59.97041061146614,
about,about,,,,,,,,,0,0,0,0,,,,,,,,,,,,,2173.021947799949,None,2361.156661800109,None,"['a', 'b', 'o', 'u', 't']",1,"[1.045874800067395, 1.165848300093785, 1.7498648001346737, 1.9979693000204861, 2.0859096001368016]",2361.156661800109,None,2361.1564690700734,None,s254_11022023,001,2023-11-02_16h11.44.562,test_typingtask_norepeats,2020.2.10,59.97041061146614,
heond,heond,,,,,,,,,0,1,1,1,,,,,,,,,,,,,,,2366.65702100005,None,"['h', 'e', 'o', 'n', 'd']",1,"[1.0095154999289662, 1.209614499937743, 1.7214891999028623, 2.0494929999113083, 2.2176212000194937]",2366.65702100005,None,2366.656542170048,None,s254_11022023,001,2023-11-02_16h11.44.562,test_typingtask_norepeats,2020.2.10,59.97041061146614,
belly,belly,,,,,,,,,0,2,2,2,,,,,,,,,,,,,,,2372.1567090000026,None,"['b', 'e', 'l', 'l', 'y']",1,"[0.8378274000715464, 0.997963999863714, 1.3419389999471605, 1.5017983000725508, 1.565815599868074]",2372.1567090000026,None,2372.156588070048,None,s254_11022023,001,2023-11-02_16h11.44.562,test_typingtask_norepeats,2020.2.10,59.97041061146614,
zibja,zibja,,,,,,,,,0,3,3,3,,,,,,,,,,,,,,,2377.6568001999985,None,"['z', 'i', 'b', 'j', 'a']",1,"[1.5377344998996705, 1.673776499927044, 2.0341787000652403, 2.2738492998760194, 2.4018864000681788]",2377.6568001999985,None,2377.656675770134,None,s254_11022023,001,2023-11-02_16h11.44.562,test_typingtask_norepeats,2020.2.10,59.97041061146614,
there,there,,,,,,,,,0,4,4,4,,,,,,,,,,,,,,,2383.1567967999727,None,"['t', 'h', 'e', 'r', 'e']",1,"[0.7737531999591738, 0.9178639000747353, 1.0858803999144584, 1.1818721999879926, 1.32588450005278]",2383.1567967999727,None,2383.1566636699254,None,s254_11022023,001,2023-11-02_16h11.44.562,test_typingtask_norepeats,2020.2.10,59.97041061146614,
haole,haole,,,,,,,,,0,5,5,5,,,,,,,,,,,,,,,2388.656832500128,None,"['h', 'a', 'o', 'e']",0,"[2.305713100126013, 2.481853700010106, 2.8656970001757145, 3.2257004000712186]",2388.656832500128,None,2388.656738670031,None,s254_11022023,001,2023-11-02_16h11.44.562,test_typingtask_norepeats,2020.2.10,59.97041061146614,
would,would,,,,,,,,,0,6,6,6,,,,,,,,,,,,,,,2394.1568851999473,None,"['w', 'o', 'u', 'l', 'd']",1,"[0.8936674001161009, 1.0457764000166208, 1.2936476999893785, 1.533640099922195, 1.629757400136441]",2394.1568851999473,None,2394.1567408700475,None,s254_11022023,001,2023-11-02_16h11.44.562,test_typingtask_norepeats,2020.2.10,59.97041061146614,
champ,champ,,,,,,,,,0,7,7,7,,,,,,,,,,,,,,,2399.6568922000006,None,"['c', 'h', 'a', 'm', 'p']",1,"[0.8096509000752121, 0.9697223000694066, 1.0657610001508147, 1.3136585000902414, 1.4576431000605226]",2399.6568922000006,None,2399.656789570069,None,s254_11022023,001,2023-11-02_16h11.44.562,test_typingtask_norepeats,2020.2.10,59.97041061146614,
haole,haole,,,,,,,,,0,8,8,8,,,,,,,,,,,,,,,2405.1569578000344,None,"['h', 'a', 'o', 'l', 'e']",1,"[0.9256013999693096, 1.1097301000263542, 1.4295722001697868, 1.6615554001182318, 1.925765800056979]",2405.1569578000344,None,2405.1567866699306,None,s254_11022023,001,2023-11-02_16h11.44.562,test_typingtask_norepeats,2020.2.10,59.97041061146614,
kremp,kremp,,,,,,,,,0,9,9,9,,,,,,,,,,,,,,,2410.656991600059,None,"['k', 'r', 'e', 'm', 'p']",1,"[0.9935608999803662, 1.2015697001479566, 1.3055543000809848, 1.681558100041002, 1.7377009000629187]",2410.656991600059,None,2410.656875470141,None,s254_11022023,001,2023-11-02_16h11.44.562,test_typingtask_norepeats,2020.2.10,59.97041061146614,
vanru,vanru,,,,,,,,,0,10,10,10,,,,,,,,,,,,,,,2416.1570609000046,None,"['v', 'a', 'n', 'r', 'u']",1,"[1.1015082001686096, 1.237637200159952, 1.5175430001690984, 1.749508700100705, 1.877606200054288]",2416.1570609000046,None,2416.156878469931,None,s254_11022023,001,2023-11-02_16h11.44.562,test_typingtask_norepeats,2020.2.10,59.97041061146614,
faqir,faqir,,,,,,,,,0,11,11,11,,,,,,,,,,,,,,,2421.657096500043,None,"['f', 'a', 'q', 'i']",0,"[1.2094699000008404, 2.273502000141889, 3.225469799945131, 3.361565000144765]",2421.657096500043,None,2421.6569214700257,None,s254_11022023,001,2023-11-02_16h11.44.562,test_typingtask_norepeats,2020.2.10,59.97041061146614,
lucky,lucky,,,,,,,,,0,12,12,12,,,,,,,,,,,,,,,2427.157086299965,None,"['l', 'u', 'c', 'k', 'y']",1,"[1.013503500027582, 1.2775942999869585, 1.509592399932444, 1.6055811999831349, 1.845586400013417]",2427.157086299965,None,2427.156988070067,None,s254_11022023,001,2023-11-02_16h11.44.562,test_typingtask_norepeats,2020.2.10,59.97041061146614,
cheer,cheer,,,,,,,,,0,13,13,13,,,,,,,,,,,,,,,2432.6571597000584,None,"['c', 'h', 'e', 'r', 'r']",0,"[0.753396000014618, 0.8975021000951529, 1.081379899987951, 1.1534873999189585, 1.329492500051856]",2432.6571597000584,None,2432.657034570072,None,s254_11022023,001,2023-11-02_16h11.44.562,test_typingtask_norepeats,2020.2.10,59.97041061146614,
think,think,,,,,,,,,0,14,14,14,,,,,,,,,,,,,,,2438.1572005001362,None,"['t', 'h', 'i', 'n', 'k']",1,"[0.9336503001395613, 1.245476400014013, 1.5734177001286298, 1.9414957000408322, 2.285393600119278]",2438.1572005001362,None,2438.1570614699276,None,s254_11022023,001,2023-11-02_16h11.44.562,test_typingtask_norepeats,2020.2.10,59.97041061146614,
zibja,zibja,,,,,,,,,0,15,15,15,,,,,,,,,,,,,,,2443.6572445000056,None,"['z', 'i', 'b', 'j', 'a']",1,"[1.5933391998987645, 1.7854458999354392, 2.289340900024399, 2.537437800085172, 2.6496987000573426]",2443.6572445000056,None,2443.657116270112,None,s254_11022023,001,2023-11-02_16h11.44.562,test_typingtask_norepeats,2020.2.10,59.97041061146614,
heond,heond,,,,,,,,,0,16,16,16,,,,,,,,,,,,,,,2449.1572394999675,None,"['h', 'e', 'o', 'n', 'd']",1,"[0.9335572998970747, 1.1254496998153627, 1.3734470999334008, 1.6613144997972995, 1.8694511000066996]",2449.1572394999675,None,2449.157152170036,None,s254_11022023,001,2023-11-02_16h11.44.562,test_typingtask_norepeats,2020.2.10,59.97041061146614,
druze,druze,,,,,,,,,0,17,17,17,,,,,,,,,,,,,,,2454.657290800009,None,"['d', 'r', 'u', 'z', 'e']",1,"[1.2013022999744862, 1.441403300035745, 1.665278100175783, 2.273277300177142, 2.6013954000081867]",2454.657290800009,None,2454.6572212699803,None,s254_11022023,001,2023-11-02_16h11.44.562,test_typingtask_norepeats,2020.2.10,59.97041061146614,
lucky,lucky,,,,,,,,,0,18,18,18,,,,,,,,,,,,,,,2460.157357899938,None,"['l', 'u', 'c', 'k', 'y']",1,"[1.0612238999456167, 1.3573336999397725, 1.5812103000935167, 1.653302500024438, 1.885381800122559]",2460.157357899938,None,2460.1572339699605,None,s254_11022023,001,2023-11-02_16h11.44.562,test_typingtask_norepeats,2020.2.10,59.97041061146614,
puppy,puppy,,,,,,,,,0,19,19,19,,,,,,,,,,,,,,,2465.6573814000003,None,"['p', 'u', 'p', 'p', 'y']",1,"[1.02521779993549, 1.329440000001341, 1.8571921999100596, 2.025199699914083, 2.1933013000525534]",2465.6573814000003,None,2465.65727497004,None,s254_11022023,001,2023-11-02_16h11.44.562,test_typingtask_norepeats,2020.2.10,59.97041061146614,
therm,therm,,,,,,,,,0,20,20,20,,,,,,,,,,,,,,,2471.1574397999793,None,"['t', 'h', 'e', 'r', 'm']",1,"[1.0611616000533104, 1.3251418001018465, 1.5813017999753356, 1.733122400008142, 1.9412616998888552]",2471.1574397999793,None,2471.1573157701177,2471.2574416999705,s254_11022023,001,2023-11-02_16h11.44.562,test_typingtask_norepeats,2020.2.10,59.97041061146614,
faqir,faqir,,,,,,,,,0,21,21,21,,,,,,,,,,,,,,,2476.657458400121,None,"['f', 'a', 'q', 'i', 'r']",1,"[0.9051366001367569, 1.6651546000503004, 2.6331452999729663, 2.8092579001095146, 2.9531575001310557]",2476.657458400121,None,2476.657325070072,2476.757511300035,s254_11022023,001,2023-11-02_16h11.44.562,test_typingtask_norepeats,2020.2.10,59.97041061146614,
therm,therm,,,,,,,,,0,22,22,22,,,,,,,,,,,,,,,2482.1575015001,None,"['t', 'h', 'e', 'r', 'm']",1,"[0.9091123000252992, 1.1172209000214934, 1.4050795999355614, 1.5410825998988003, 1.7170698998961598]",2482.1575015001,None,2482.157358270092,2482.2575165000744,s254_11022023,001,2023-11-02_16h11.44.562,test_typingtask_norepeats,2020.2.10,59.97041061146614,
vanru,vanru,,,,,,,,,0,23,23,23,,,,,,,,,,,,,,,2487.6575682000257,None,"['v', 'a', 'n', 'r', 'u']",1,"[1.481029599905014, 2.4490306000225246, 2.6811448999214917, 3.265010999981314, 3.3691904000006616]",2487.6575682000257,None,2487.65739337001,2487.7575715000276,s254_11022023,001,2023-11-02_16h11.44.562,test_typingtask_norepeats,2020.2.10,59.97041061146614,
haole,haole,,,,,,,,,0,24,24,24,,,,,,,,,,,,,,,2493.1575748999603,None,"['h', 'a', 'o', 'l', 'e']",1,"[1.09303729981184, 1.6770275998860598, 2.2610216999892145, 2.5412717999424785, 2.8210245999507606]",2493.1575748999603,None,2493.157470870018,2493.2575681000017,s254_11022023,001,2023-11-02_16h11.44.562,test_typingtask_norepeats,2020.2.10,59.97041061146614,
there,there,,,,,,,,,0,25,25,25,,,,,,,,,,,,,,,2498.657647999935,None,"['t', 'h', 'e', 'r', 'e']",1,"[0.9769596999976784, 1.1611041000578552, 1.3209794000722468, 1.448952900012955, 1.6010708999820054]",2498.657647999935,None,2498.657516170014,2498.7576123001054,s254_11022023,001,2023-11-02_16h11.44.562,test_typingtask_norepeats,2020.2.10,59.97041061146614,
faqir,faqir,,,,,,,,,0,26,26,26,,,,,,,,,,,,,,,2504.1576922000386,None,"['f', 'a', 'q', 'i', 'r']",1,"[1.012929500080645, 1.5409347999375314, 2.428917200071737, 2.62103209993802, 2.7810470999684185]",2504.1576922000386,None,2504.15755626997,None,s254_11022023,001,2023-11-02_16h11.44.562,test_typingtask_norepeats,2020.2.10,59.97041061146614,
think,think,,,,,,,,,0,27,27,27,,,,,,,,,,,,,,,2509.657733600121,None,"['t', 'h', 'i', 'n', 'k']",1,"[0.8728966999333352, 1.0570131000131369, 1.3049749999772757, 1.5529970999341458, 1.7609935998916626]",2509.657733600121,None,2509.657583770063,None,s254_11022023,001,2023-11-02_16h11.44.562,test_typingtask_norepeats,2020.2.10,59.97041061146614,
kremp,kremp,,,,,,,,,0,28,28,28,,,,,,,,,,,,,,,2515.1577594000846,None,"['k', 'r', 'e', 'm', 'p']",1,"[1.2528780999127775, 1.4529684998560697, 1.6050390999298543, 1.9889699998311698, 2.0768725997768342]",2515.1577594000846,None,2515.157616269961,None,s254_11022023,001,2023-11-02_16h11.44.562,test_typingtask_norepeats,2020.2.10,59.97041061146614,
cooed,cooed,,,,,,,,,0,29,29,29,,,,,,,,,,,,,,,2520.6578468000516,None,"['c', 'o', 'o', 'e', 'd']",1,"[1.08079389994964, 1.2887637000530958, 1.4567585000768304, 2.25678259995766, 2.480904500000179]",2520.6578468000516,None,2520.657637670124,None,s254_11022023,001,2023-11-02_16h11.44.562,test_typingtask_norepeats,2020.2.10,59.97041061146614,
theme,theme,,,,,,,,,0,30,30,30,,,,,,,,,,,,,,,2526.157888100017,None,"['t', 'h', 'e', 'm', 'e']",1,"[1.0047561000101268, 1.2128507001325488, 1.7407257999293506, 1.9407123001292348, 2.0927061999682337]",2526.157888100017,None,2526.157683370123,None,s254_11022023,001,2023-11-02_16h11.44.562,test_typingtask_norepeats,2020.2.10,59.97041061146614,
champ,champ,,,,,,,,,0,31,31,31,,,,,,,,,,,,,,,2531.6578913999256,None,"['c', 'h', 'a', 'm', 'p']",1,"[0.8807547001633793, 1.0568485001567751, 2.184754000045359, 2.416779499966651, 2.4726961001288146]",2531.6578913999256,None,2531.657723470079,None,s254_11022023,001,2023-11-02_16h11.44.562,test_typingtask_norepeats,2020.2.10,59.97041061146614,
pykka,pykka,,,,,,,,,0,32,32,32,,,,,,,,,,,,,,,2537.1579601000994,None,"['p', 'y', 'k', 'k', 'a']",1,"[1.252688999986276, 1.860662299906835, 2.4366782000288367, 2.5967373999301344, 2.7407919000834227]",2537.1579601000994,None,2537.157763970038,None,s254_11022023,001,2023-11-02_16h11.44.562,test_typingtask_norepeats,2020.2.10,59.97041061146614,
druze,druze,,,,,,,,,0,33,33,33,,,,,,,,,,,,,,,2542.6579666000325,None,"['d', 'r', 'u', 'z', 'e']",1,"[1.1046911000739783, 1.360680100042373, 1.5286541001405567, 2.4566532999742776, 2.6968042999505997]",2542.6579666000325,None,2542.6578262699304,None,s254_11022023,001,2023-11-02_16h11.44.562,test_typingtask_norepeats,2020.2.10,59.97041061146614,
vodka,vodka,,,,,,,,,0,34,34,34,,,,,,,,,,,,,,,2548.15801610006,None,"['v', 'o', 'd', 'k', 'a']",1,"[1.0606455998495221, 1.2207484999671578, 1.5407388999592513, 1.8126066999975592, 1.9647456998936832]",2548.15801610006,None,2548.1578500701116,None,s254_11022023,001,2023-11-02_16h11.44.562,test_typingtask_norepeats,2020.2.10,59.97041061146614,
belly,belly,,,,,,,,,0,35,35,35,,,,,,,,,,,,,,,2553.658065200085,None,"['b', 'e', 'l', 'l', 'y']",1,"[1.2405825001187623, 1.7286686999723315, 2.016572599997744, 2.184588799951598, 2.2728124998975545]",2553.658065200085,None,2553.6579224699644,None,s254_11022023,001,2023-11-02_16h11.44.562,test_typingtask_norepeats,2020.2.10,59.97041061146614,
pykka,pykka,,,,,,,,,0,36,36,36,,,,,,,,,,,,,,,2559.1580906999297,None,"['p', 'y', 'k', 'k', 'a']",1,"[1.3085780998226255, 1.8125876998528838, 2.4285605000332, 2.5886666998267174, 2.7246099000331014]",2559.1580906999297,None,2559.157958270004,None,s254_11022023,001,2023-11-02_16h11.44.562,test_typingtask_norepeats,2020.2.10,59.97041061146614,
kremp,kremp,,,,,,,,,0,37,37,37,,,,,,,,,,,,,,,2564.6581592999864,None,"['k', 'r', 'e', 'm', 'p']",1,"[1.2964826000388712, 2.2804731000214815, 2.4885275000706315, 2.736583100166172, 2.960448400117457]",2564.6581592999864,None,2564.6580061700197,None,s254_11022023,001,2023-11-02_16h11.44.562,test_typingtask_norepeats,2020.2.10,59.97041061146614,
buddy,buddy,,,,,,,,,0,38,38,38,,,,,,,,,,,,,,,2570.158174900105,None,"['b', 'u', 'd', 'd', 'y']",1,"[1.2684770000632852, 1.4764670000877231, 1.7084649000316858, 1.86856979993172, 1.9804634000174701]",2570.158174900105,None,2570.158036870137,None,s254_11022023,001,2023-11-02_16h11.44.562,test_typingtask_norepeats,2020.2.10,59.97041061146614,
puppy,puppy,,,,,,,,,0,39,39,39,,,,,,,,,,,,,,,2575.658219800098,None,"['p', 'u', 'p', 'p', 'y']",1,"[1.0964345000684261, 1.4325526000466198, 1.8244332000613213, 1.9764984000939876, 2.208530800184235]",2575.658219800098,None,2575.658091070084,None,s254_11022023,001,2023-11-02_16h11.44.562,test_typingtask_norepeats,2020.2.10,59.97041061146614,
vodka,vodka,,,,,,,,,0,40,40,40,,,,,,,,,,,,,,,2581.158252600115,None,"['v', 'o', 'd', 'a', 'k']",0,"[1.5009000001009554, 1.6444723000749946, 1.9563911000732332, 2.1645114000421017, 2.284530300181359]",2581.158252600115,None,2581.1581629700495,None,s254_11022023,001,2023-11-02_16h11.44.562,test_typingtask_norepeats,2020.2.10,59.97041061146614,
pykka,pykka,,,,,,,,,0,41,41,41,,,,,,,,,,,,,,,2586.658295399975,None,"['p', 'y', 'k', 'k', 'a']",1,"[0.9763811999000609, 1.5043625999242067, 1.9043587998021394, 2.0563583998009562, 2.1764729998540133]",2586.658295399975,None,2586.6581751699096,None,s254_11022023,001,2023-11-02_16h11.44.562,test_typingtask_norepeats,2020.2.10,59.97041061146614,
vanru,vanru,,,,,,,,,0,42,42,42,,,,,,,,,,,,,,,2592.1583144001197,None,"['v', 'a', 'n', 'r', 'u']",1,"[1.1483551999554038, 1.6603307998739183, 1.8683851999230683, 2.1083400999195874, 2.34047339996323]",2592.1583144001197,None,2592.1582110700665,None,s254_11022023,001,2023-11-02_16h11.44.562,test_typingtask_norepeats,2020.2.10,59.97041061146614,
therm,therm,,,,,,,,,0,43,43,43,,,,,,,,,,,,,,,2597.658361800015,None,"['t', 'h', 'e', 'r', 'm']",1,"[1.24831090006046, 1.4804223000537604, 2.1602996999863535, 2.232431200100109, 2.4084268000442535]",2597.658361800015,None,2597.658279670123,None,s254_11022023,001,2023-11-02_16h11.44.562,test_typingtask_norepeats,2020.2.10,59.97041061146614,
theme,theme,,,,,,,,,0,44,44,44,,,,,,,,,,,,,,,2603.158405800117,None,"['t', 'h', 'e', 'm', 'e']",1,"[1.0282749999314547, 1.25238179997541, 1.9722746999468654, 2.2123874998651445, 2.364250099984929]",2603.158405800117,None,2603.1582610699816,None,s254_11022023,001,2023-11-02_16h11.44.562,test_typingtask_norepeats,2020.2.10,59.97041061146614,
buddy,buddy,,,,,,,,,0,45,45,45,,,,,,,,,,,,,,,2608.6584387000185,None,"['b', 'u', 'd', 'd', 'y']",1,"[1.208246299996972, 1.5362462000921369, 1.7442610000725836, 1.9203572000842541, 2.0643731001764536]",2608.6584387000185,None,2608.6583400701174,None,s254_11022023,001,2023-11-02_16h11.44.562,test_typingtask_norepeats,2020.2.10,59.97041061146614,
kremp,kremp,,,,,,,,,0,46,46,46,,,,,,,,,,,,,,,2614.158469100017,None,"['k', 'r', 'e', 'm', 'p']",1,"[1.2922316000331193, 1.5643229000270367, 1.9483292000368237, 2.6122167001012713, 2.6683120001107454]",2614.158469100017,None,2614.158384570107,None,s254_11022023,001,2023-11-02_16h11.44.562,test_typingtask_norepeats,2020.2.10,59.97041061146614,
druze,druze,,,,,,,,,0,47,47,47,,,,,,,,,,,,,,,2619.6585119999945,None,"['d', 'r', 'u', 'z', 'e']",1,"[1.0003758000675589, 1.2562414000276476, 1.432265000184998, 2.040171700064093, 2.288270500022918]",2619.6585119999945,None,2619.6584113700783,None,s254_11022023,001,2023-11-02_16h11.44.562,test_typingtask_norepeats,2020.2.10,59.97041061146614,
champ,champ,,,,,,,,,0,48,48,48,,,,,,,,,,,,,,,2625.158581699943,None,"['c', 'h', 'a', 'm', 'p']",1,"[0.9241003000643104, 1.1242247999180108, 1.5721086000557989, 1.6921922999899834, 1.8041616000700742]",2625.158581699943,None,2625.1584590700922,None,s254_11022023,001,2023-11-02_16h11.44.562,test_typingtask_norepeats,2020.2.10,59.97041061146614,
vodka,vodka,,,,,,,,,0,49,49,49,,,,,,,,,,,,,,,2630.6586192999966,None,"['v', 'o', 'd', 'k', 'a']",1,"[0.9600941999815404, 1.2082461998797953, 1.4562593000009656, 2.0241705998778343, 2.128157600061968]",2630.6586192999966,None,2630.6584972699175,None,s254_11022023,001,2023-11-02_16h11.44.562,test_typingtask_norepeats,2020.2.10,59.97041061146614,
edthe,edthe,,,,,,,,,0,50,50,50,,,,,,,,,,,,,,,2636.158663399983,None,"['e', 'd', 't', 'h', 'e']",1,"[0.916040499927476, 1.1641607000492513, 1.796044500079006, 1.8842738999519497, 1.9960064999759197]",2636.158663399983,None,2636.158552070102,None,s254_11022023,001,2023-11-02_16h11.44.562,test_typingtask_norepeats,2020.2.10,59.97041061146614,
think,think,,,,,,,,,0,51,51,51,,,,,,,,,,,,,,,2641.658709600102,None,"['t', 'h', 'i', 'n', 'k']",1,"[0.9360237000510097, 1.1519670002162457, 1.3520235000178218, 1.552115400088951, 1.6561143000144511]",2641.658709600102,None,2641.6585820700975,None,s254_11022023,001,2023-11-02_16h11.44.562,test_typingtask_norepeats,2020.2.10,59.97041061146614,
therm,therm,,,,,,,,,0,52,52,52,,,,,,,,,,,,,,,2647.158753100084,None,"['t', 'h', 'e', 'r', 'm']",1,"[0.8839831999503076, 1.0599344000220299, 1.5719838999211788, 1.628068400081247, 1.7319396000821143]",2647.158753100084,None,2647.158621469932,None,s254_11022023,001,2023-11-02_16h11.44.562,test_typingtask_norepeats,2020.2.10,59.97041061146614,
lucky,lucky,,,,,,,,,0,53,53,53,,,,,,,,,,,,,,,2652.6587853000965,None,"['l', 'u', 'c', 'k', 'y']",1,"[0.9759365001227707, 1.3358802001457661, 1.6079244001302868, 1.7200561000499874, 2.0160402001347393]",2652.6587853000965,None,2652.6586277700962,None,s254_11022023,001,2023-11-02_16h11.44.562,test_typingtask_norepeats,2020.2.10,59.97041061146614,
tithe,tithe,,,,,,,,,0,54,54,54,,,,,,,,,,,,,,,2658.1588310000952,None,"['t', 'i', 't', 'h', 'e']",1,"[1.0759038000833243, 1.299987600184977, 1.8120485001709312, 1.9479517000727355, 3.0038921001832932]",2658.1588310000952,None,2658.1587091700176,None,s254_11022023,001,2023-11-02_16h11.44.562,test_typingtask_norepeats,2020.2.10,59.97041061146614,
belly,belly,,,,,,,,,0,55,55,55,,,,,,,,,,,,,,,2663.658906799974,None,"['b', 'e', 'l', 'l', 'y']",1,"[0.759823199827224, 1.0238045998848975, 1.3039127998054028, 1.4878830998204648, 1.6157801998779178]",2663.658906799974,None,2663.65870867013,None,s254_11022023,001,2023-11-02_16h11.44.562,test_typingtask_norepeats,2020.2.10,59.97041061146614,
champ,champ,,,,,,,,,0,56,56,56,,,,,,,,,,,,,,,2669.1589287999086,None,"['c', 'h', 'a', 'm', 'o', 'p']",0,"[1.2757979999296367, 1.3957851000595838, 1.5637556000147015, 1.8438917000312358, 2.0600145999342203, 2.0600145999342203]",2669.1589287999086,None,2669.1587564700285,None,s254_11022023,001,2023-11-02_16h11.44.562,test_typingtask_norepeats,2020.2.10,59.97041061146614,
cheer,cheer,,,,,,,,,0,57,57,57,,,,,,,,,,,,,,,2674.658955800114,None,"['c', 'h', 'e', 'e', 'r']",1,"[0.9917876999825239, 1.1678657000884414, 1.4238754999823868, 1.5837579001672566, 1.7438773000612855]",2674.658955800114,None,2674.6587961699815,None,s254_11022023,001,2023-11-02_16h11.44.562,test_typingtask_norepeats,2020.2.10,59.97041061146614,
cooed,cooed,,,,,,,,,0,58,58,58,,,,,,,,,,,,,,,2680.158984800102,None,"['c', 'o', 'o', 'e', 'd', 'c']",0,"[0.8517712000757456, 1.091868899995461, 1.2438580999150872, 1.8117434000596404, 1.987722699996084, 2.0039786000270396]",2680.158984800102,None,2680.158865770046,None,s254_11022023,001,2023-11-02_16h11.44.562,test_typingtask_norepeats,2020.2.10,59.97041061146614,
cheer,cheer,,,,,,,,,0,59,59,59,,,,,,,,,,,,,,,2685.6590390000492,None,"['c', 'h', 'e', 'e', 'r']",1,"[0.7037172000855207, 0.8717966999392956, 1.0957969999872148, 1.2638159999623895, 1.399823300074786]",2685.6590390000492,None,2685.6589029700963,None,s254_11022023,001,2023-11-02_16h11.44.562,test_typingtask_norepeats,2020.2.10,59.97041061146614,
cooed,cooed,,,,,,,,,0,60,60,60,,,,,,,,,,,,,,,2691.1590817999095,None,"['c', 'o', 'o', 'e', 'd']",1,"[0.8998728001024574, 1.1236813999712467, 1.2837851999793202, 1.4756394000723958, 1.6757641001604497]",2691.1590817999095,None,2691.1589473699687,None,s254_11022023,001,2023-11-02_16h11.44.562,test_typingtask_norepeats,2020.2.10,59.97041061146614,
there,there,,,,,,,,,0,61,61,61,,,,,,,,,,,,,,,2696.659128499916,None,"['t', 'h', 'e', 'r', 'e']",1,"[0.9276025998406112, 1.1197307000402361, 1.2795881000347435, 1.4796690999064595, 1.5036354998592287]",2696.659128499916,None,2696.658993669972,None,s254_11022023,001,2023-11-02_16h11.44.562,test_typingtask_norepeats,2020.2.10,59.97041061146614,
edthe,edthe,,,,,,,,,0,62,62,62,,,,,,,,,,,,,,,2702.159167899983,None,"['e', 'd', 't', 'h', 'e']",1,"[0.9555661000777036, 1.1555596999824047, 1.4515680999029428, 1.5477028999011964, 1.6596840000711381]",2702.159167899983,None,2702.1590411699844,None,s254_11022023,001,2023-11-02_16h11.44.562,test_typingtask_norepeats,2020.2.10,59.97041061146614,
about,about,,,,,,,,,0,63,63,63,,,,,,,,,,,,,,,2707.6591978000943,None,"['a', 'b', 'o', 'u', 't']",1,"[1.2155714000109583, 1.415662300074473, 1.7436913000419736, 1.8796556000597775, 2.1356279000174254]",2707.6591978000943,None,2707.659039769974,None,s254_11022023,001,2023-11-02_16h11.44.562,test_typingtask_norepeats,2020.2.10,59.97041061146614,
cheer,cheer,,,,,,,,,0,64,64,64,,,,,,,,,,,,,,,2713.1592502000276,None,"['c', 'h', 'e', 'e', 'r']",1,"[0.715511100133881, 0.8836012999527156, 1.0595354000106454, 1.267610999988392, 1.4516368000768125]",2713.1592502000276,None,2713.159116570093,None,s254_11022023,001,2023-11-02_16h11.44.562,test_typingtask_norepeats,2020.2.10,59.97041061146614,
lucky,lucky,,,,,,,,,0,65,65,65,,,,,,,,,,,,,,,2718.6592878999654,None,"['l', 'u', 'c', 'k', 'y']",1,"[1.0475411999505013, 1.3915715999901295, 1.5996042999904603, 1.7115874998271465, 1.9434709998313338]",2718.6592878999654,None,2718.659123070026,None,s254_11022023,001,2023-11-02_16h11.44.562,test_typingtask_norepeats,2020.2.10,59.97041061146614,
belly,belly,,,,,,,,,0,66,66,66,,,,,,,,,,,,,,,2724.1593222999945,None,"['b', 'e', 'l', 'l', 'y']",1,"[0.7794435999821872, 0.9716058000922203, 1.371427700156346, 1.5395498999860138, 1.691417200025171]",2724.1593222999945,None,2724.1591994699093,None,s254_11022023,001,2023-11-02_16h11.44.562,test_typingtask_norepeats,2020.2.10,59.97041061146614,
pykka,pykka,,,,,,,,,0,67,67,67,,,,,,,,,,,,,,,2729.659373299917,None,"['p', 'y', 'k', 'k', 'a']",1,"[1.1514028999954462, 1.815417299978435, 2.1353408000431955, 2.2794921998865902, 2.3836805999744684]",2729.659373299917,None,2729.6592030699367,None,s254_11022023,001,2023-11-02_16h11.44.562,test_typingtask_norepeats,2020.2.10,59.97041061146614,
theme,theme,,,,,,,,,0,68,68,68,,,,,,,,,,,,,,,2735.15940600005,None,"['t', 'h', 'e', 'm']",0,"[0.9953691000118852, 1.1314846999011934, 1.2676785998046398, 1.47533639986068]",2735.15940600005,None,2735.1592541699765,None,s254_11022023,001,2023-11-02_16h11.44.562,test_typingtask_norepeats,2020.2.10,59.97041061146614,
tithe,tithe,,,,,,,,,0,69,69,69,,,,,,,,,,,,,,,2740.659419900039,None,"['t', 'i', 't', 'h', 'e']",1,"[1.2233565000351518, 1.3754630000330508, 1.5113456000108272, 1.8233945998363197, 1.9114558999426663]",2740.659419900039,None,2740.6593247700484,None,s254_11022023,001,2023-11-02_16h11.44.562,test_typingtask_norepeats,2020.2.10,59.97041061146614,
puppy,puppy,,,,,,,,,0,70,70,70,,,,,,,,,,,,,,,2746.1594978000503,None,"['p', 'u', 'p', 'p', 'y']",1,"[1.0992831999901682, 1.4032837999984622, 1.891427299939096, 2.0434191999956965, 2.1632229001261294]",2746.1594978000503,None,2746.1593679699117,None,s254_11022023,001,2023-11-02_16h11.44.562,test_typingtask_norepeats,2020.2.10,59.97041061146614,
buddy,buddy,,,,,,,,,0,71,71,71,,,,,,,,,,,,,,,2751.6595956000965,None,"['b', 'u', 'd', 'd', 'y']",1,"[0.9752371998038143, 1.2151652998290956, 1.423285299912095, 1.5913000998552889, 1.6952927999664098]",2751.6595956000965,None,2751.65942457011,None,s254_11022023,001,2023-11-02_16h11.44.562,test_typingtask_norepeats,2020.2.10,59.97041061146614,
cooed,cooed,,,,,,,,,0,72,72,72,,,,,,,,,,,,,,,2757.159571300028,None,"['c', 'o', 'o', 'e', 'd']",1,"[1.0832114999648184, 1.3233945998363197, 1.4752485998906195, 1.9872103999368846, 2.179334499873221]",2757.159571300028,None,2757.159477269929,None,s254_11022023,001,2023-11-02_16h11.44.562,test_typingtask_norepeats,2020.2.10,59.97041061146614,
vodka,vodka,,,,,,,,,0,73,73,73,,,,,,,,,,,,,,,2762.6596383999567,None,"['v', 'o', 'd', 'k', 'a']",1,"[1.095138099975884, 1.279375899815932, 1.5032502999529243, 1.7911167999263853, 1.903127099853009]",2762.6596383999567,None,2762.6594842699824,None,s254_11022023,001,2023-11-02_16h11.44.562,test_typingtask_norepeats,2020.2.10,59.97041061146614,
pykka,pykka,,,,,,,,,0,74,74,74,,,,,,,,,,,,,,,2768.159648800036,None,"['p', 'y', 'k', 'k', 'a']",1,"[1.3071435000747442, 1.683120199944824, 2.1791185000911355, 2.3472766999620944, 2.4751089999917895]",2768.159648800036,None,2768.1595361700283,None,s254_11022023,001,2023-11-02_16h11.44.562,test_typingtask_norepeats,2020.2.10,59.97041061146614,
edthe,edthe,,,,,,,,,0,75,75,75,,,,,,,,,,,,,,,2773.6597005999647,None,"['e', 'd', 't', 'h', 'e']",1,"[0.9591007998678833, 1.1831037998199463, 1.6870694998651743, 1.7910602998454124, 1.9110864999238402]",2773.6597005999647,None,2773.6595877699556,None,s254_11022023,001,2023-11-02_16h11.44.562,test_typingtask_norepeats,2020.2.10,59.97041061146614,
think,think,,,,,,,,,0,76,76,76,,,,,,,,,,,,,,,2779.1597084999084,None,"['t', 'h', 'i', 'n', 'k']",1,"[0.8430862999521196, 1.1152315000072122, 1.299068900058046, 1.5711984999943525, 1.6592049000319093]",2779.1597084999084,None,2779.159578069998,None,s254_11022023,001,2023-11-02_16h11.44.562,test_typingtask_norepeats,2020.2.10,59.97041061146614,
faqir,faqir,,,,,,,,,0,77,77,77,,,,,,,,,,,,,,,2784.659750000108,None,"['f', 'a', 'q', 'i', 'r']",1,"[0.9512072999496013, 1.7750563998706639, 2.759053699905053, 2.895192400086671, 3.0310184999834746]",2784.659750000108,None,2784.659661970055,None,s254_11022023,001,2023-11-02_16h11.44.562,test_typingtask_norepeats,2020.2.10,59.97041061146614,
zibja,zibja,,,,,,,,,0,78,78,78,,,,,,,,,,,,,,,2790.159794300096,None,"['z', 'i', 'b', 'j', 'a']",1,"[1.1710067000240088, 1.4269872000440955, 2.155017799930647, 2.467203800100833, 2.571053500054404]",2790.159794300096,None,2790.1596713701265,None,s254_11022023,001,2023-11-02_16h11.44.562,test_typingtask_norepeats,2020.2.10,59.97041061146614,
vodka,vodka,,,,,,,,,0,79,79,79,,,,,,,,,,,,,,,2795.6598483000416,None,"['v', 'o', 'd', 'k', 'a']",1,"[0.9989584998693317, 1.214933699928224, 1.4230642998591065, 1.631058600032702, 1.7430771999061108]",2795.6598483000416,None,2795.659706569929,None,s254_11022023,001,2023-11-02_16h11.44.562,test_typingtask_norepeats,2020.2.10,59.97041061146614,
therm,therm,,,,,,,,,0,80,80,80,,,,,,,,,,,,,,,2801.1598801999353,None,"['t', 'h', 'e', 'r', 'm']",1,"[0.9069399000145495, 1.0509997999761254, 1.2829527999274433, 1.4110485001001507, 1.6109092000406235]",2801.1598801999353,None,2801.1597797700206,None,s254_11022023,001,2023-11-02_16h11.44.562,test_typingtask_norepeats,2020.2.10,59.97041061146614,
edthe,edthe,,,,,,,,,0,81,81,81,,,,,,,,,,,,,,,2806.6599678001367,None,"['e', 'd', 't', 'h', 'e']",1,"[1.0548410001210868, 1.278786800103262, 1.6629574000835419, 1.8229450001381338, 1.9107983000576496]",2806.6599678001367,None,2806.659872669913,None,s254_11022023,001,2023-11-02_16h11.44.562,test_typingtask_norepeats,2020.2.10,59.97041061146614,
vanru,vanru,,,,,,,,,0,82,82,82,,,,,,,,,,,,,,,2812.159990800079,None,"['v', 'a', 'n', 'r', 'u']",1,"[1.2028212998993695, 1.667196199996397, 1.8829127999488264, 2.0989429999608546, 2.2829241000581533]",2812.159990800079,None,2812.159866569983,None,s254_11022023,001,2023-11-02_16h11.44.562,test_typingtask_norepeats,2020.2.10,59.97041061146614,
buddy,buddy,,,,,,,,,0,83,83,83,,,,,,,,,,,,,,,2817.6600415001158,None,"['b', 'u', 'd', 'd', 'y']",1,"[1.1987952999770641, 1.5108018999453634, 1.7509333998896182, 1.8948961000423878, 2.030789399985224]",2817.6600415001158,None,2817.659904269921,None,s254_11022023,001,2023-11-02_16h11.44.562,test_typingtask_norepeats,2020.2.10,59.97041061146614,
tithe,tithe,,,,,,,,,0,84,84,84,,,,,,,,,,,,,,,2823.160069500096,None,"['t', 'i', 't', 'h', 'e']",1,"[1.1467591000255197, 1.3307406001258641, 2.0027624000795186, 2.1947540000546724, 2.4267291000578552]",2823.160069500096,None,2823.1599411700854,2823.2601066001225,s254_11022023,001,2023-11-02_16h11.44.562,test_typingtask_norepeats,2020.2.10,59.97041061146614,
lucky,lucky,,,,,,,,,0,85,85,85,,,,,,,,,,,,,,,2828.66015910008,None,"['l', 'u', 'c', 'k', 'y']",1,"[1.1346496001351625, 1.4706365000456572, 1.7506199001800269, 1.8307539001107216, 2.206633600173518]",2828.66015910008,None,2828.659971570084,2828.7601074001286,s254_11022023,001,2023-11-02_16h11.44.562,test_typingtask_norepeats,2020.2.10,59.97041061146614,
belly,belly,,,,,,,,,0,86,86,86,,,,,,,,,,,,,,,2834.1601655001286,None,"['b', 'e', 'l', 'l', 'y']",1,"[1.0186968999914825, 1.266738299978897, 1.8746784999966621, 2.0347802001051605, 2.162781000137329]",2834.1601655001286,None,2834.1600140700584,2834.2601648999844,s254_11022023,001,2023-11-02_16h11.44.562,test_typingtask_norepeats,2020.2.10,59.97041061146614,
think,think,,,,,,,,,0,87,87,87,,,,,,,,,,,,,,,2839.660187700065,None,"['t', 'h', 'i', 'k']",0,"[0.8626408998388797, 1.2786255998071283, 1.406639999942854, 1.7348125998396426]",2839.660187700065,None,2839.660039570136,2839.76020099991,s254_11022023,001,2023-11-02_16h11.44.562,test_typingtask_norepeats,2020.2.10,59.97041061146614,
heond,heond,,,,,,,,,0,88,88,88,,,,,,,,,,,,,,,2845.1602612000424,None,"['h', 'e', 'o', 'n', 'd']",1,"[0.9945696999784559, 1.2745580000337213, 1.474691899958998, 1.7385618998669088, 1.9546804998535663]",2845.1602612000424,None,2845.1601122701077,2845.2602385999635,s254_11022023,001,2023-11-02_16h11.44.562,test_typingtask_norepeats,2020.2.10,59.97041061146614,
would,would,,,,,,,,,0,89,89,89,,,,,,,,,,,,,,,2850.6602682000957,None,"['w', 'o', 'u', 'l', 'd']",1,"[1.2629309000913054, 1.462677099974826, 1.6866748998872936, 1.9185442000161856, 2.0946746000554413]",2850.6602682000957,None,2850.660122669954,2850.7603225999046,s254_11022023,001,2023-11-02_16h11.44.562,test_typingtask_norepeats,2020.2.10,59.97041061146614,
cooed,cooed,,,,,,,,,0,90,90,90,,,,,,,,,,,,,,,2856.1603310999926,None,"['c', 'o', 'o', 'e', 'd']",1,"[1.058528000023216, 1.2825162999797612, 1.4505962000694126, 1.9464966000523418, 2.034632199909538]",2856.1603310999926,None,2856.160164569924,None,s254_11022023,001,2023-11-02_16h11.44.562,test_typingtask_norepeats,2020.2.10,59.97041061146614,
theme,theme,,,,,,,,,0,91,91,91,,,,,,,,,,,,,,,2861.660364500014,None,"['t', 'h', 'e', 'm', 'e']",1,"[0.8624843000434339, 0.9666019999422133, 1.1026057999115437, 1.2464781000744551, 1.3905394000466913]",2861.660364500014,None,2861.660200870084,None,s254_11022023,001,2023-11-02_16h11.44.562,test_typingtask_norepeats,2020.2.10,59.97041061146614,
kremp,kremp,,,,,,,,,0,92,92,92,,,,,,,,,,,,,,,2867.160412099911,None,"['k', 'r', 'e', 'm', 'p']",1,"[1.2824409999884665, 1.6664191000163555, 2.130441900109872, 2.386499400017783, 2.4984266001265496]",2867.160412099911,None,2867.1602724699305,None,s254_11022023,001,2023-11-02_16h11.44.562,test_typingtask_norepeats,2020.2.10,59.97041061146614,
about,about,,,,,,,,,0,93,93,93,,,,,,,,,,,,,,,2872.6604464000557,None,"['a', 'b', 'o', 'u', 't']",1,"[1.2304534998256713, 1.438354899873957, 2.078384199878201, 2.5744111000094563, 2.8784499999601394]",2872.6604464000557,None,2872.6603149701377,None,s254_11022023,001,2023-11-02_16h11.44.562,test_typingtask_norepeats,2020.2.10,59.97041061146614,
cheer,cheer,,,,,,,,,0,94,94,94,,,,,,,,,,,,,,,2878.1604871000163,None,"['c', 'h', 'e', 'e', 'r']",1,"[1.1703445999883115, 1.314350799890235, 1.530476300045848, 1.6905006999149919, 1.8264921999070793]",2878.1604871000163,None,2878.160353670083,None,s254_11022023,001,2023-11-02_16h11.44.562,test_typingtask_norepeats,2020.2.10,59.97041061146614,
would,would,,,,,,,,,0,95,95,95,,,,,,,,,,,,,,,2883.660529300105,None,"['w', 'o', 'u', 'l', 'd']",1,"[0.9823338000569493, 1.1824334999546409, 1.3984354001004249, 1.6784373000264168, 1.8944451999850571]",2883.660529300105,None,2883.660412369948,None,s254_11022023,001,2023-11-02_16h11.44.562,test_typingtask_norepeats,2020.2.10,59.97041061146614,
tithe,tithe,,,,,,,,,0,96,96,96,,,,,,,,,,,,,,,2889.160571699962,None,"['t', 'i', 'h', 'e']",0,"[1.0663314999546856, 1.2182610998861492, 1.5063979998230934, 2.4665114998351783]",2889.160571699962,None,2889.1604774700945,None,s254_11022023,001,2023-11-02_16h11.44.562,test_typingtask_norepeats,2020.2.10,59.97041061146614,
haole,haole,,,,,,,,,0,97,97,97,,,,,,,,,,,,,,,2894.6606115000322,None,"['h', 'a', 'o', 'l', 'e']",1,"[0.8302656000014395, 1.0223660999909043, 1.3262388999573886, 1.5263239999767393, 1.6623637999873608]",2894.6606115000322,None,2894.660489869956,None,s254_11022023,001,2023-11-02_16h11.44.562,test_typingtask_norepeats,2020.2.10,59.97041061146614,
puppy,puppy,,,,,,,,,0,98,98,98,,,,,,,,,,,,,,,2900.160621999996,None,"['p', 'u', 'p', 'p', 'y']",1,"[1.338252800051123, 1.7228121000807732, 2.234264900209382, 2.450392800150439, 2.7062508000526577]",2900.160621999996,None,2900.1605374700857,None,s254_11022023,001,2023-11-02_16h11.44.562,test_typingtask_norepeats,2020.2.10,59.97041061146614,
there,there,,,,,,,,,0,99,99,99,,,,,,,,,,,,,,,2905.660702599911,None,"['t', 'h', 'e', 'r', 'e']",1,"[1.1261932000052184, 1.262295899912715, 1.4303138998802751, 1.622298900038004, 2.6702095000073314]",2905.660702599911,None,2905.6605706701057,None,s254_11022023,001,2023-11-02_16h11.44.562,test_typingtask_norepeats,2020.2.10,59.97041061146614,
about,about,,,,,,,,,0,100,100,100,,,,,,,,,,,,,,,2911.160725499969,None,"['a', 'b', 'o', 'u', 't']",1,"[1.1781546999700367, 1.3702052999287844, 1.5382948000915349, 1.7782564999070019, 1.9862508000805974]",2911.160725499969,None,2911.1606102699416,None,s254_11022023,001,2023-11-02_16h11.44.562,test_typingtask_norepeats,2020.2.10,59.97041061146614,
haole,haole,,,,,,,,,0,101,101,101,,,,,,,,,,,,,,,2916.660787400091,None,"['h', 'a', 'o', 'l', 'e']",1,"[0.8860993001144379, 1.1340918999630958, 2.1980787001084536, 2.398241200018674, 2.502244699979201]",2916.660787400091,None,2916.66063977005,None,s254_11022023,001,2023-11-02_16h11.44.562,test_typingtask_norepeats,2020.2.10,59.97041061146614,
heond,heond,,,,,,,,,0,102,102,102,,,,,,,,,,,,,,,2922.1608081001323,None,"['h', 'e', 'o', 'n', 'd']",1,"[1.186094099888578, 2.290080700069666, 2.48212519986555, 2.7700731998775154, 3.1940609999001026]",2922.1608081001323,None,2922.1606969700197,None,s254_11022023,001,2023-11-02_16h11.44.562,test_typingtask_norepeats,2020.2.10,59.97041061146614,
buddy,buddy,,,,,,,,,0,103,103,103,,,,,,,,,,,,,,,2927.660874800058,None,None,0,,2927.660874800058,None,2927.6607284699103,None,s254_11022023,001,2023-11-02_16h11.44.562,test_typingtask_norepeats,2020.2.10,59.97041061146614,
edthe,edthe,,,,,,,,,0,104,104,104,,,,,,,,,,,,,,,2933.1609030999243,None,"['e', 'd', 't', 'h', 'e']",1,"[0.8660244999919087, 1.0901007000356913, 1.3541155999992043, 1.4820982001256198, 1.5301161999814212]",2933.1609030999243,None,2933.160784169985,None,s254_11022023,001,2023-11-02_16h11.44.562,test_typingtask_norepeats,2020.2.10,59.97041061146614,
vanru,vanru,,,,,,,,,0,105,105,105,,,,,,,,,,,,,,,2938.6609662000556,None,"['v', 'a', 'n', 'r', 'u']",1,"[1.0059370000381023, 1.5259354999288917, 1.7420532000251114, 2.1019534999504685, 2.3020462000276893]",2938.6609662000556,None,2938.6608515700327,None,s254_11022023,001,2023-11-02_16h11.44.562,test_typingtask_norepeats,2020.2.10,59.97041061146614,
druze,druze,,,,,,,,,0,106,106,106,,,,,,,,,,,,,,,2944.1609547000844,None,"['d', 'r', 'u', 'z', 'e']",1,"[1.097946499940008, 1.386061399942264, 1.6739673998672515, 2.1699564999435097, 2.442069699987769]",2944.1609547000844,None,2944.160860469984,2944.260988000082,s254_11022023,001,2023-11-02_16h11.44.562,test_typingtask_norepeats,2020.2.10,59.97041061146614,
zibja,zibja,,,,,,,,,0,107,107,107,,,,,,,,,,,,,,,2949.6610403000377,None,"['z', 'i', 'b', 'j', 'a']",1,"[1.2138642000500113, 2.1098654000088573, 2.485839899862185, 2.7418631999753416, 2.8619474000297487]",2949.6610403000377,None,2949.6608914699873,None,s254_11022023,001,2023-11-02_16h11.44.562,test_typingtask_norepeats,2020.2.10,59.97041061146614,
theme,theme,,,,,,,,,0,108,108,108,,,,,,,,,,,,,,,2955.1610475000925,None,"['t', 'h', 'e', 'm', 'e']",1,"[1.0578497000969946, 1.17795590008609, 1.3059535999782383, 1.5299676998984069, 2.057871100027114]",2955.1610475000925,None,2955.160947170062,None,s254_11022023,001,2023-11-02_16h11.44.562,test_typingtask_norepeats,2020.2.10,59.97041061146614,
heond,heond,,,,,,,,,0,109,109,109,,,,,,,,,,,,,,,2960.661136199953,None,"['h', 'e', 'o']",0,"[1.2779581998474896, 1.5738799998071045, 2.341772199841216]",2960.661136199953,None,2960.6609915699346,None,s254_11022023,001,2023-11-02_16h11.44.562,test_typingtask_norepeats,2020.2.10,59.97041061146614,
would,would,,,,,,,,,0,110,110,110,,,,,,,,,,,,,,,2966.161148000043,None,"['w', 'o', 'u', 'l', 'd']",1,"[1.0657751001417637, 1.2978775999508798, 1.537882599979639, 1.8178684001322836, 2.065766500076279]",2966.161148000043,None,2966.16103946995,None,s254_11022023,001,2023-11-02_16h11.44.562,test_typingtask_norepeats,2020.2.10,59.97041061146614,
tithe,tithe,,,,,,,,,0,111,111,111,,,,,,,,,,,,,,,2971.6612009000964,None,"['t', 'i', 't', 'h', 'e']",1,"[1.509721000213176, 1.9257129000034183, 2.2457113000564277, 2.493699800223112, 2.7178431001957506]",2971.6612009000964,None,2971.661070269952,None,s254_11022023,001,2023-11-02_16h11.44.562,test_typingtask_norepeats,2020.2.10,59.97041061146614,
faqir,faqir,,,,,,,,,0,112,112,112,,,,,,,,,,,,,,,2977.1612287000753,None,"['f', 'a', 'q', 'i', 'r']",1,"[1.1696978998370469, 1.7616744998376817, 2.593707899795845, 2.793818400008604, 2.945777299813926]",2977.1612287000753,None,2977.161096370034,2977.261241500033,s254_11022023,001,2023-11-02_16h11.44.562,test_typingtask_norepeats,2020.2.10,59.97041061146614,
zibja,zibja,,,,,,,,,0,113,113,113,,,,,,,,,,,,,,,2982.661288900068,None,"['z', 'i', 'b', 'j', 'a']",1,"[1.389641699846834, 1.5737415999174118, 2.0456255997996777, 2.2536135998088866, 2.333596399985254]",2982.661288900068,None,2982.661126069911,None,s254_11022023,001,2023-11-02_16h11.44.562,test_typingtask_norepeats,2020.2.10,59.97041061146614,
puppy,puppy,,,,,,,,,0,114,114,114,,,,,,,,,,,,,,,2988.1612937001046,None,"['p', 'u', 'p', 'p', 'y']",1,"[1.153647400205955, 1.4496234999969602, 1.9136303002014756, 2.1376155000180006, 2.385761799989268]",2988.1612937001046,None,2988.1612075699495,2988.261323600076,s254_11022023,001,2023-11-02_16h11.44.562,test_typingtask_norepeats,2020.2.10,59.97041061146614,
champ,champ,,,,,,,,,0,115,115,115,,,,,,,,,,,,,,,2993.6613406001125,None,"['c', 'h', 'a', 'm', 'o']",0,"[1.1336584000382572, 1.2857050001621246, 1.4297203000169247, 1.6296232000458986, 1.7815964000765234]",2993.6613406001125,None,2993.6612430701034,None,s254_11022023,001,2023-11-02_16h11.44.562,test_typingtask_norepeats,2020.2.10,59.97041061146614,
about,about,,,,,,,,,0,116,116,116,,,,,,,,,,,,,,,2999.161452499917,None,"['a', 'b', 'o', 'u', 't']",1,"[0.8734639999456704, 1.0734495997894555, 1.2014899000059813, 1.2974721998907626, 1.4974732999689877]",2999.161452499917,None,2999.161331870081,2999.261374700116,s254_11022023,001,2023-11-02_16h11.44.562,test_typingtask_norepeats,2020.2.10,59.97041061146614,
there,there,,,,,,,,,0,117,117,117,,,,,,,,,,,,,,,3004.6614558999427,None,"['t', 'h', 'e', 'r', 'e']",1,"[0.9094934000167996, 1.1016493998467922, 1.2296040998771787, 1.4215936998371035, 1.509467399911955]",3004.6614558999427,None,3004.661328769941,None,s254_11022023,001,2023-11-02_16h11.44.562,test_typingtask_norepeats,2020.2.10,59.97041061146614,
would,would,,,,,,,,,0,118,118,118,,,,,,,,,,,,,,,3010.1614926001057,None,"['w', 'o', 'u', 'l', 'd']",1,"[1.1134564001113176, 1.2655795000027865, 1.4814385999925435, 1.721554100047797, 1.8337153000757098]",3010.1614926001057,None,3010.1613667699976,3010.261483400129,s254_11022023,001,2023-11-02_16h11.44.562,test_typingtask_norepeats,2020.2.10,59.97041061146614,
druze,druze,,,,,,,,,0,119,119,119,,,,,,,,,,,,,,,3015.661544499919,None,"['d', 'r', 'u', 'z', 'e']",1,"[1.2053890998940915, 1.485561199951917, 1.733585099922493, 2.165399400051683, 2.6373914999421686]",3015.661544499919,None,3015.6614090699704,None,s254_11022023,001,2023-11-02_16h11.44.562,test_typingtask_norepeats,2020.2.10,59.97041061146614,
