string,corrAns,practice_trials.thisRepN,practice_trials.thisTrialN,practice_trials.thisN,practice_trials.thisIndex,trials_1.thisRepN,trials_1.thisTrialN,trials_1.thisN,trials_1.thisIndex,trials_2.thisRepN,trials_2.thisTrialN,trials_2.thisN,trials_2.thisIndex,key_resp_0.keys,key_resp_0.corr,key_resp_0.rt,text_1.started,text_1.stopped,key_resp_1.keys,key_resp_1.corr,key_resp_1.rt,key_resp_1.started,key_resp_1.stopped,sound_1A_1.started,sound_1A_1.stopped,break_time.started,break_time.stopped,text_2.started,text_2.stopped,key_resp_2.keys,key_resp_2.corr,key_resp_2.rt,key_resp_2.started,key_resp_2.stopped,sound_1A_2.started,sound_1A_2.stopped,participant,session,date,expName,psychopyVersion,frameRate,
fresh,fresh,0,0,0,0,,,,,,,,,"['f', 'r', 'e', 's', 'h']",1,"[0.9573682000045665, 1.2212332999915816, 1.3812643000273965, 1.6133574999985285, 1.7334298000205308]",,,,,,,,,,,,,,,,,,,,,s261,001,2023-12-12_15h58.56.585,test_typingtask_norepeats,2020.2.10,59.97120182602823,
dream,dream,0,1,1,1,,,,,,,,,"['d', 'r', 'e', 'a', 'm']",1,"[0.8412467999733053, 1.1134014999843203, 1.249145400011912, 1.4012445000116713, 1.6093519999994896]",,,,,,,,,,,,,,,,,,,,,s261,001,2023-12-12_15h58.56.585,test_typingtask_norepeats,2020.2.10,59.97120182602823,
slime,slime,0,2,2,2,,,,,,,,,"['s', 'l', 'i', 'm', 'e']",1,"[0.9812857999932021, 1.0693846999784, 1.2373379999771714, 1.4532439999748021, 1.565221400000155]",,,,,,,,,,,,,,,,,,,,,s261,001,2023-12-12_15h58.56.585,test_typingtask_norepeats,2020.2.10,59.97120182602823,
zibja,zibja,,,,,0,0,0,0,,,,,,,,62.181759600003716,None,"['z', 'i', 'b', 'j', 'a']",1,"[1.08093260001624, 1.20902730000671, 1.6489129000110552, 1.8568768000113778, 1.9210210000164807]",62.181759600003716,None,62.18140794999199,62.281536099966615,,,,,,,,,,,,s261,001,2023-12-12_15h58.56.585,test_typingtask_norepeats,2020.2.10,59.97120182602823,
edthe,edthe,,,,,0,1,1,1,,,,,,,,67.68152639997425,None,"['e', 'd', 't', 'h', 'e']",1,"[0.845160000026226, 1.0691482000402175, 1.3091727000428364, 1.381128900044132, 1.5331219000509009]",67.68152639997425,None,67.68141924996162,None,,,,,,,,,,,,s261,001,2023-12-12_15h58.56.585,test_typingtask_norepeats,2020.2.10,59.97120182602823,
would,would,,,,,0,2,2,2,,,,,,,,73.1815537000075,None,"['w', 'o', 'u', 'l', 'd']",1,"[0.7851422000094317, 0.8652938000159338, 1.0250858999788761, 1.3052691000048071, 1.4410910999868065]",73.1815537000075,None,73.18146804998396,None,,,,,,,,,,,,s261,001,2023-12-12_15h58.56.585,test_typingtask_norepeats,2020.2.10,59.97120182602823,
tithe,tithe,,,,,0,3,3,3,,,,,,,,78.6816312999581,None,"['t', 'i', 't', 'h', 'e']",1,"[0.7490404999698512, 0.8611291999695823, 1.0131503999582492, 1.0849888999946415, 1.2372857999871485]",78.6816312999581,None,78.681497449975,None,,,,,,,,,,,,s261,001,2023-12-12_15h58.56.585,test_typingtask_norepeats,2020.2.10,59.97120182602823,
vanru,vanru,,,,,0,4,4,4,,,,,,,,84.18166549998568,None,"['v', 'a', 'n', 'r', 'u']",1,"[0.8011199000175111, 0.8811530999955721, 1.1050121000153013, 1.3692507999949157, 1.457109600014519]",84.18166549998568,None,84.18153205000563,None,,,,,,,,,,,,s261,001,2023-12-12_15h58.56.585,test_typingtask_norepeats,2020.2.10,59.97120182602823,
cheer,cheer,,,,,0,5,5,5,,,,,,,,89.68169479997596,None,"['c', 'h', 'e', 'e', 'r']",1,"[0.7329929000115953, 0.8129639000399038, 0.9650785000412725, 1.1330564999952912, 1.2689970000064932]",89.68169479997596,None,89.6815644499613,None,,,,,,,,,,,,s261,001,2023-12-12_15h58.56.585,test_typingtask_norepeats,2020.2.10,59.97120182602823,
about,about,,,,,0,6,6,6,,,,,,,,95.18172270001378,None,"['a', 'b', 'o', 'u', 't']",1,"[0.6009417999885045, 0.7771600999985822, 1.0649324000114575, 1.5369375000009313, 1.601170199981425]",95.18172270001378,None,95.18159694997594,None,,,,,,,,,,,,s261,001,2023-12-12_15h58.56.585,test_typingtask_norepeats,2020.2.10,59.97120182602823,
heond,heond,,,,,0,7,7,7,,,,,,,,100.68174440000439,None,"['h', 'e', 'o', 'n', 'd']",1,"[0.772914299974218, 0.8928900000173599, 1.0688849000143819, 1.3169859999907203, 1.5169543999945745]",100.68174440000439,None,100.68162104998483,None,,,,,,,,,,,,s261,001,2023-12-12_15h58.56.585,test_typingtask_norepeats,2020.2.10,59.97120182602823,
cheer,cheer,,,,,0,8,8,8,,,,,,,,106.18173829995794,None,"['c', 'h', 'e', 'e', 'r']",1,"[0.6009293999522924, 0.6729519999935292, 0.8809343999600969, 1.0409954999922775, 1.128917099966202]",106.18173829995794,None,106.18166145000141,None,,,,,,,,,,,,s261,001,2023-12-12_15h58.56.585,test_typingtask_norepeats,2020.2.10,59.97120182602823,
would,would,,,,,0,9,9,9,,,,,,,,111.68177319999086,None,"['w', 'o', 'u', 'l', 'd']",1,"[0.6448906000005081, 0.7490423999843188, 0.87700209999457, 1.1569948000251316, 1.2528639000374824]",111.68177319999086,None,111.68170344997198,None,,,,,,,,,,,,s261,001,2023-12-12_15h58.56.585,test_typingtask_norepeats,2020.2.10,59.97120182602823,
edthe,edthe,,,,,0,10,10,10,,,,,,,,117.18181380000897,None,"['e', 'd', 't', 'h', 'e']",1,"[0.6648483999888413, 0.8808481000014581, 1.0889120000065304, 1.1689571000169963, 1.3368494000169449]",117.18181380000897,None,117.18168084997451,None,,,,,,,,,,,,s261,001,2023-12-12_15h58.56.585,test_typingtask_norepeats,2020.2.10,59.97120182602823,
heond,heond,,,,,0,11,11,11,,,,,,,,122.68187329999637,None,"['h', 'e', 'o', 'n', 'd']",1,"[0.8607736999983899, 0.956897999974899, 1.1248621999984607, 1.3487747000181116, 1.4928854000172578]",122.68187329999637,None,122.68171214998002,None,,,,,,,,,,,,s261,001,2023-12-12_15h58.56.585,test_typingtask_norepeats,2020.2.10,59.97120182602823,
puppy,puppy,,,,,0,12,12,12,,,,,,,,128.1819021999836,None,"['p', 'u', 'p', 'p', 'y']",1,"[0.8169794999994338, 0.9688549999846146, 1.184896300022956, 1.3288542000227608, 1.552769600006286]",128.1819021999836,None,128.18174675001063,None,,,,,,,,,,,,s261,001,2023-12-12_15h58.56.585,test_typingtask_norepeats,2020.2.10,59.97120182602823,
think,think,,,,,0,13,13,13,,,,,,,,133.68203299999004,None,"['t', 'h', 'i', 'n', 'k']",1,"[0.8926122999982908, 0.9407210000208579, 1.1247205000254326, 1.3167297000181861, 1.4767046000342816]",133.68203299999004,None,133.68182794998864,None,,,,,,,,,,,,s261,001,2023-12-12_15h58.56.585,test_typingtask_norepeats,2020.2.10,59.97120182602823,
tithe,tithe,,,,,0,14,14,14,,,,,,,,139.1819613999687,None,"['t', 'i', 't', 'h', 'e']",1,"[0.704868400003761, 0.808660700044129, 0.9367885000538081, 0.9847758000250906, 1.1126801000209525]",139.1819613999687,None,139.18183915001572,None,,,,,,,,,,,,s261,001,2023-12-12_15h58.56.585,test_typingtask_norepeats,2020.2.10,59.97120182602823,
zibja,zibja,,,,,0,15,15,15,,,,,,,,144.68199459998868,None,"['z', 'i', 'b', 'j', 'a']",1,"[0.7406457000179216, 0.8286962999845855, 1.0847441999940202, 1.3007419999921694, 1.3727538000093773]",144.68199459998868,None,144.6818689500098,None,,,,,,,,,,,,s261,001,2023-12-12_15h58.56.585,test_typingtask_norepeats,2020.2.10,59.97120182602823,
puppy,puppy,,,,,0,16,16,16,,,,,,,,150.1820269000018,None,"['p', 'u', 'p', 'p', 'y']",1,"[0.7926288999733515, 0.9447064999840222, 1.1047306999680586, 1.2167257000110112, 1.4326352999778464]",150.1820269000018,None,150.18187144997063,None,,,,,,,,,,,,s261,001,2023-12-12_15h58.56.585,test_typingtask_norepeats,2020.2.10,59.97120182602823,
heond,heond,,,,,0,17,17,17,,,,,,,,155.6820590000134,None,"['h', 'e', 'o', 'n', 'd']",1,"[1.0525793000124395, 1.132817099976819, 1.2927665999741293, 1.5328093999996781, 1.6766759000020102]",155.6820590000134,None,155.68195365001446,None,,,,,,,,,,,,s261,001,2023-12-12_15h58.56.585,test_typingtask_norepeats,2020.2.10,59.97120182602823,
vodka,vodka,,,,,0,18,18,18,,,,,,,,161.18208870000672,None,"['v', 'o', 'd', 'k', 'a']",1,"[0.8245471999980509, 0.9765807999647222, 1.136517399980221, 1.560546799970325, 1.6806429999996908]",161.18208870000672,None,161.18195774998748,None,,,,,,,,,,,,s261,001,2023-12-12_15h58.56.585,test_typingtask_norepeats,2020.2.10,59.97120182602823,
about,about,,,,,0,19,19,19,,,,,,,,166.68211809999775,None,"['a', 'b', 'o', 'u', 't']",1,"[0.6205107999849133, 0.6845057000173256, 0.8766152000171132, 1.0205997999873944, 1.1084898000117391]",166.68211809999775,None,166.6820244499715,None,,,,,,,,,,,,s261,001,2023-12-12_15h58.56.585,test_typingtask_norepeats,2020.2.10,59.97120182602823,
cheer,cheer,,,,,0,20,20,20,,,,,,,,172.18215619999683,None,"['v', 'c', 'h', 'e', 'e', 'r']",0,"[0.6484686000039801, 0.6565676999744028, 0.9605713000055403, 1.1764617000008002, 1.344457200029865, 1.4565714999916963]",172.18215619999683,None,172.18199115000897,None,,,,,,,,,,,,s261,001,2023-12-12_15h58.56.585,test_typingtask_norepeats,2020.2.10,59.97120182602823,
faqir,faqir,,,,,0,21,21,21,,,,,,,,177.6821801000042,None,"['f', 'a', 'q', 'i', 'r']",1,"[0.9564457999658771, 1.036553499987349, 1.3085578000172973, 1.4204133999883197, 1.5485358000150882]",177.6821801000042,None,177.68210244998335,177.78217969997786,,,,,,,,,,,,s261,001,2023-12-12_15h58.56.585,test_typingtask_norepeats,2020.2.10,59.97120182602823,
belly,belly,,,,,0,22,22,22,,,,,,,,183.18221659999108,None,"['b', 'e', 'l', 'l', 'y']",1,"[0.6883968000183813, 0.8084309999831021, 0.9845034999889322, 1.136524300032761, 1.2644991999841295]",183.18221659999108,None,183.18205975000745,183.28221829998074,,,,,,,,,,,,s261,001,2023-12-12_15h58.56.585,test_typingtask_norepeats,2020.2.10,59.97120182602823,
there,there,,,,,0,23,23,23,,,,,,,,188.68225099996198,None,"['t', 'h', 'e', 'r', 'e']",1,"[0.6363731999881566, 0.7008235999965109, 0.8843641999992542, 0.9883485999889672, 1.0683294999762438]",188.68225099996198,None,188.68209674999815,188.7822473999695,,,,,,,,,,,,s261,001,2023-12-12_15h58.56.585,test_typingtask_norepeats,2020.2.10,59.97120182602823,
faqir,faqir,,,,,0,24,24,24,,,,,,,,194.18230729998322,None,"['f', 'a', 'q', 'i', 'r']",1,"[0.8643236999632791, 0.9364247999619693, 1.2802743999636732, 1.3763466999516822, 1.6082947999821045]",194.18230729998322,None,194.18219134996178,194.28224719996797,,,,,,,,,,,,s261,001,2023-12-12_15h58.56.585,test_typingtask_norepeats,2020.2.10,59.97120182602823,
theme,theme,,,,,0,25,25,25,,,,,,,,199.68223609996494,None,"['t', 'h', 'e', 'm', 'e']",1,"[0.6923782999510877, 0.7644242999958806, 0.9004643999505788, 1.1563792999950238, 1.1964009999646805]",199.68223609996494,None,199.6821879499941,199.78224989998853,,,,,,,,,,,,s261,001,2023-12-12_15h58.56.585,test_typingtask_norepeats,2020.2.10,59.97120182602823,
puppy,puppy,,,,,0,26,26,26,,,,,,,,205.18234110000776,None,"['p', 'u', 'p', 'p', 'y']",1,"[0.984275599999819, 1.1283633999992162, 1.2883244999684393, 1.4563874999876134, 1.6403736000065692]",205.18234110000776,None,205.18220934998243,205.28230229998007,,,,,,,,,,,,s261,001,2023-12-12_15h58.56.585,test_typingtask_norepeats,2020.2.10,59.97120182602823,
haole,haole,,,,,0,27,27,27,,,,,,,,210.68236899998737,None,"['h', 'a', 'o', 'l', 'e']",1,"[0.7562546000117436, 0.8842043000040576, 1.0443373000016436, 1.2842265000217594, 1.3883516000350937]",210.68236899998737,None,210.68224654997465,210.78237139998237,,,,,,,,,,,,s261,001,2023-12-12_15h58.56.585,test_typingtask_norepeats,2020.2.10,59.97120182602823,
vodka,vodka,,,,,0,28,28,28,,,,,,,,216.1824079999933,None,"['v', 'o', 'd', 'k', 'a']",1,"[0.832197499985341, 0.9442197000025772, 1.1122646000003442, 1.2963186000124551, 1.416230299975723]",216.1824079999933,None,216.1822782499832,None,,,,,,,,,,,,s261,001,2023-12-12_15h58.56.585,test_typingtask_norepeats,2020.2.10,59.97120182602823,
kremp,kremp,,,,,0,29,29,29,,,,,,,,221.68241119995946,None,"['k', 'r', 'e', 'm', 'p']",1,"[1.0442061999929138, 1.1562855999800377, 1.2281850999570452, 1.3402914999751374, 1.5082780999946408]",221.68241119995946,None,221.68231614998075,None,,,,,,,,,,,,s261,001,2023-12-12_15h58.56.585,test_typingtask_norepeats,2020.2.10,59.97120182602823,
would,would,,,,,0,30,30,30,,,,,,,,227.18247349996818,None,"['w', 'o', 'u', 'l', 'd']",1,"[0.6481247999472544, 0.7281180999707431, 0.8723050999687985, 1.192108699993696, 1.3842810999485664]",227.18247349996818,None,227.18234235000563,None,,,,,,,,,,,,s261,001,2023-12-12_15h58.56.585,test_typingtask_norepeats,2020.2.10,59.97120182602823,
there,there,,,,,0,31,31,31,,,,,,,,232.68248129996937,None,"['t', 'h', 'e', 'r', 'e']",1,"[0.6361484000226483, 0.7001963000511751, 0.892098700045608, 0.9563188000465743, 1.0681063000229187]",232.68248129996937,None,232.68233324999454,None,,,,,,,,,,,,s261,001,2023-12-12_15h58.56.585,test_typingtask_norepeats,2020.2.10,59.97120182602823,
therm,therm,,,,,0,32,32,32,,,,,,,,238.1824925999972,None,"['t', 'h', 'e', 'r', 'm']",1,"[0.8081170999794267, 0.8720864999922924, 1.056250599969644, 1.1601959000108764, 1.224205099977553]",238.1824925999972,None,238.18241105000487,None,,,,,,,,,,,,s261,001,2023-12-12_15h58.56.585,test_typingtask_norepeats,2020.2.10,59.97120182602823,
pykka,pykka,,,,,0,33,33,33,,,,,,,,243.68251879996387,None,"['p', 'u', 'y', 'k', 'k', 'a']",0,"[0.7481252000434324, 0.9161951999994926, 0.9242082000127994, 1.4200589000247419, 1.5560393000487238, 1.6601732000126503]",243.68251879996387,None,243.6824332499993,None,,,,,,,,,,,,s261,001,2023-12-12_15h58.56.585,test_typingtask_norepeats,2020.2.10,59.97120182602823,
vanru,vanru,,,,,0,34,34,34,,,,,,,,249.18277969997143,None,"['v', 'a', 'n', 'r', 'u']",1,"[0.8317718000034802, 0.903755999985151, 1.0237793999840505, 1.2159894999931566, 1.3359053999884054]",249.18277969997143,None,249.1824347500107,None,,,,,,,,,,,,s261,001,2023-12-12_15h58.56.585,test_typingtask_norepeats,2020.2.10,59.97120182602823,
think,think,,,,,0,35,35,35,,,,,,,,254.6825794999604,None,"['t', 'h', 'i', 'n', 'k']",1,"[0.6521250999649055, 0.7320028999820352, 0.9001424000016414, 1.059996299969498, 1.1800774000003003]",254.6825794999604,None,254.68250235000158,None,,,,,,,,,,,,s261,001,2023-12-12_15h58.56.585,test_typingtask_norepeats,2020.2.10,59.97120182602823,
therm,therm,,,,,0,36,36,36,,,,,,,,260.182609499956,None,"['t', 'h', 'e', 'r', 'm']",1,"[0.6322440999792889, 0.7041047999518923, 0.8960186999756843, 0.999945999996271, 1.1360666999826208]",260.182609499956,None,260.18253904999,None,,,,,,,,,,,,s261,001,2023-12-12_15h58.56.585,test_typingtask_norepeats,2020.2.10,59.97120182602823,
kremp,kremp,,,,,0,37,37,37,,,,,,,,265.6826811999781,None,"['k', 'r', 'e', 'm', 'p']",1,"[0.9159346999949776, 1.003867799998261, 1.083927700005006, 1.195933300012257, 1.403860500024166]",265.6826811999781,None,265.68255934996995,None,,,,,,,,,,,,s261,001,2023-12-12_15h58.56.585,test_typingtask_norepeats,2020.2.10,59.97120182602823,
vodka,vodka,,,,,0,38,38,38,,,,,,,,271.18271029996686,None,"['v', 'o', 'd', 'k', 'a']",1,"[0.8318770999903791, 0.967973799968604, 1.1280853999778628, 1.2879814999760129, 1.4479669999564067]",271.18271029996686,None,271.1826153499889,None,,,,,,,,,,,,s261,001,2023-12-12_15h58.56.585,test_typingtask_norepeats,2020.2.10,59.97120182602823,
therm,therm,,,,,0,39,39,39,,,,,,,,276.6827509999857,None,"['t', 'h', 'e', 'r', 'm']",1,"[0.6839006000082009, 0.7558230999857187, 0.9479799999971874, 1.0357845000107773, 1.0999167999834754]",276.6827509999857,None,276.682632750005,None,,,,,,,,,,,,s261,001,2023-12-12_15h58.56.585,test_typingtask_norepeats,2020.2.10,59.97120182602823,
heond,heond,,,,,0,40,40,40,,,,,,,,282.1827732999809,None,"['h', 'e', 'o', 'n', 'd']",1,"[0.7919582999893464, 0.927964000031352, 1.1119573000469245, 1.3677710000192747, 1.4878028000239283]",282.1827732999809,None,282.1826391499955,None,,,,,,,,,,,,s261,001,2023-12-12_15h58.56.585,test_typingtask_norepeats,2020.2.10,59.97120182602823,
cooed,cooed,,,,,0,41,41,41,,,,,,,,287.68281410000054,None,"['c', 'o', 'o', 'e', 'd']",1,"[0.7717550999950618, 0.9798549999832176, 1.1477334999945015, 1.4037155999685638, 1.5398822000133805]",287.68281410000054,None,287.6826689499896,None,,,,,,,,,,,,s261,001,2023-12-12_15h58.56.585,test_typingtask_norepeats,2020.2.10,59.97120182602823,
vanru,vanru,,,,,0,42,42,42,,,,,,,,293.18283449998125,None,"['v', 'a', 'n', 'r', 'u']",1,"[0.7437354000285268, 0.8157112000044435, 0.903845300024841, 1.0718533000326715, 1.1997820000397041]",293.18283449998125,None,293.18270704998866,None,,,,,,,,,,,,s261,001,2023-12-12_15h58.56.585,test_typingtask_norepeats,2020.2.10,59.97120182602823,
would,would,,,,,0,43,43,43,,,,,,,,298.6829111999832,None,"['w', 'o', 'u', 'l', 'd']",1,"[0.651848700013943, 0.7238047000137158, 0.8196218000375666, 1.0437619000440463, 1.1477794999955222]",298.6829111999832,None,298.6827100500115,None,,,,,,,,,,,,s261,001,2023-12-12_15h58.56.585,test_typingtask_norepeats,2020.2.10,59.97120182602823,
buddy,buddy,,,,,0,44,44,44,,,,,,,,304.182903399982,None,"['b', 'u', 'd', 'd', 'y']",1,"[0.6955978000187315, 0.9436242000083439, 1.0877579000080004, 1.223755000042729, 1.3277561000431888]",304.182903399982,None,304.18274974996456,None,,,,,,,,,,,,s261,001,2023-12-12_15h58.56.585,test_typingtask_norepeats,2020.2.10,59.97120182602823,
lucky,lucky,,,,,0,45,45,45,,,,,,,,309.6829815999954,None,"['l', 'u', 'c', 'k', 'y']",1,"[0.7235925999702886, 1.0277220999705605, 1.179611700004898, 1.2915623000008054, 1.4995560999959707]",309.6829815999954,None,309.68279844998614,None,,,,,,,,,,,,s261,001,2023-12-12_15h58.56.585,test_typingtask_norepeats,2020.2.10,59.97120182602823,
kremp,kremp,,,,,0,46,46,46,,,,,,,,315.1829660999938,None,"['k', 'r', 'e', 'm', 'n', 'p']",0,"[0.9517867999966256, 1.047673900029622, 1.1276539000100456, 1.2716933999909088, 1.343564199982211, 1.6317174999858253]",315.1829660999938,None,315.18280125000746,None,,,,,,,,,,,,s261,001,2023-12-12_15h58.56.585,test_typingtask_norepeats,2020.2.10,59.97120182602823,
puppy,puppy,,,,,0,47,47,47,,,,,,,,320.6830046999967,None,"['p', 'u', 'p', 'p', 'y']",1,"[0.8115423999843188, 0.9076614999794401, 1.0916678999783471, 1.2276508000213653, 1.4355638999841176]",320.6830046999967,None,320.6828723499668,None,,,,,,,,,,,,s261,001,2023-12-12_15h58.56.585,test_typingtask_norepeats,2020.2.10,59.97120182602823,
pykka,pykka,,,,,0,48,48,48,,,,,,,,326.18300680001266,None,"['p', 'y', 'k', 'k', 'a']",1,"[0.8635452999733388, 1.0397006999701262, 1.3196438999730162, 1.4556454999838024, 1.551709099963773]",326.18300680001266,None,326.1829128499841,None,,,,,,,,,,,,s261,001,2023-12-12_15h58.56.585,test_typingtask_norepeats,2020.2.10,59.97120182602823,
cheer,cheer,,,,,0,49,49,49,,,,,,,,331.6830641999841,None,"['c', 'h', 'e', 'e', 'r']",1,"[0.6755050999927334, 0.7554626000346616, 0.9316021000267938, 1.06744409998646, 1.1715734000317752]",331.6830641999841,None,331.68294775001704,None,,,,,,,,,,,,s261,001,2023-12-12_15h58.56.585,test_typingtask_norepeats,2020.2.10,59.97120182602823,
haole,haole,,,,,0,50,50,50,,,,,,,,337.1830967999995,None,"['h', 'a', 'o', 'l', 'e']",1,"[0.6954403999843635, 0.8235482000163756, 0.9516287000151351, 1.1434509999817237, 1.2154332000063732]",337.1830967999995,None,337.18298164998413,None,,,,,,,,,,,,s261,001,2023-12-12_15h58.56.585,test_typingtask_norepeats,2020.2.10,59.97120182602823,
buddy,buddy,,,,,0,51,51,51,,,,,,,,342.68312509998213,None,"['b', 'u', 'd', 'd', 'y']",1,"[0.7314439000329003, 0.9395369000267237, 1.0594796999939717, 1.1555033000186086, 1.251581399992574]",342.68312509998213,None,342.6829985499964,None,,,,,,,,,,,,s261,001,2023-12-12_15h58.56.585,test_typingtask_norepeats,2020.2.10,59.97120182602823,
theme,theme,,,,,0,52,52,52,,,,,,,,348.1831150999642,None,"['t', 'h', 'e', 'm', 'e']",1,"[0.6154106999747455, 0.679469499969855, 0.8956575999618508, 1.0235306999529712, 1.1115356999798678]",348.1831150999642,None,348.1830311500118,None,,,,,,,,,,,,s261,001,2023-12-12_15h58.56.585,test_typingtask_norepeats,2020.2.10,59.97120182602823,
there,there,,,,,0,53,53,53,,,,,,,,353.68319849995896,None,"['t', 'h', 'e', 'r', 'e']",1,"[0.6273359000333585, 0.7074630000279285, 0.8434344000415877, 0.9234379000263289, 1.0353945000097156]",353.68319849995896,None,353.6830686500063,None,,,,,,,,,,,,s261,001,2023-12-12_15h58.56.585,test_typingtask_norepeats,2020.2.10,59.97120182602823,
vodka,vodka,,,,,0,54,54,54,,,,,,,,359.1832252999884,None,"['v', 'o', 'd', 'k', 'a']",1,"[0.7513141999952495, 0.8713320000097156, 1.1112829000339843, 1.247408399998676, 1.3594484999775887]",359.1832252999884,None,359.18311044997535,None,,,,,,,,,,,,s261,001,2023-12-12_15h58.56.585,test_typingtask_norepeats,2020.2.10,59.97120182602823,
edthe,edthe,,,,,0,55,55,55,,,,,,,,364.6832051000092,None,"['e', 'd', 't', 'h', 'e']",1,"[0.7794432999799028, 0.9554568000021391, 1.267327599984128, 1.315434299991466, 1.451340799976606]",364.6832051000092,None,364.6831304500112,None,,,,,,,,,,,,s261,001,2023-12-12_15h58.56.585,test_typingtask_norepeats,2020.2.10,59.97120182602823,
think,think,,,,,0,56,56,56,,,,,,,,370.18324589997064,None,"['t', 'h', 'i', 'n', 'k']",1,"[0.6714495000196621, 0.7353717000223696, 0.9112601000233553, 1.0554045000462793, 1.1753401000169106]",370.18324589997064,None,370.1831286499975,None,,,,,,,,,,,,s261,001,2023-12-12_15h58.56.585,test_typingtask_norepeats,2020.2.10,59.97120182602823,
puppy,puppy,,,,,0,57,57,57,,,,,,,,375.6832954999991,None,"['p', 'u', 'p', 'p', 'y']",1,"[0.7392290999996476, 0.8911992000066675, 1.0591794999781996, 1.2273221000214107, 1.3872876999666914]",375.6832954999991,None,375.68320514999795,None,,,,,,,,,,,,s261,001,2023-12-12_15h58.56.585,test_typingtask_norepeats,2020.2.10,59.97120182602823,
zibja,zibja,,,,,0,58,58,58,,,,,,,,381.183315399976,None,"['z', 'i', 'b', 'j', 'a']",1,"[0.9432043000124395, 1.0392096000141464, 1.2313077000435442, 1.4393154000281356, 1.5353679000400007]",381.183315399976,None,381.18323204996994,None,,,,,,,,,,,,s261,001,2023-12-12_15h58.56.585,test_typingtask_norepeats,2020.2.10,59.97120182602823,
champ,champ,,,,,0,59,59,59,,,,,,,,386.6833473999868,None,"['c', 'h', 'a', 'm', 'p']",1,"[0.7151661000098102, 0.7711706000263803, 0.9792594999889843, 1.0192779999924824, 1.2672566000255756]",386.6833473999868,None,386.68326695000286,None,,,,,,,,,,,,s261,001,2023-12-12_15h58.56.585,test_typingtask_norepeats,2020.2.10,59.97120182602823,
theme,theme,,,,,0,60,60,60,,,,,,,,392.18342229997506,None,"['t', 'h', 'e', 'm', 'e']",1,"[0.6871010000468232, 0.7431501999963075, 0.9192170000169426, 1.0712151000043377, 1.1432265000184998]",392.18342229997506,None,392.1832872499828,None,,,,,,,,,,,,s261,001,2023-12-12_15h58.56.585,test_typingtask_norepeats,2020.2.10,59.97120182602823,
druze,druze,,,,,0,61,61,61,,,,,,,,397.68345799995586,None,"['d', 'r', 'u', 'z', 'e']",1,"[0.7070515000377782, 0.8910604000557214, 1.0510506000136957, 1.1711242000455968, 1.387190300039947]",397.68345799995586,None,397.68337254999204,None,,,,,,,,,,,,s261,001,2023-12-12_15h58.56.585,test_typingtask_norepeats,2020.2.10,59.97120182602823,
zibja,zibja,,,,,0,62,62,62,,,,,,,,403.18347689998336,None,"['z', 'i', 'b', 'j', 'a']",1,"[0.8630246000248007, 0.9430380000267178, 1.343032900011167, 1.599025800009258, 1.6631580000394024]",403.18347689998336,None,403.18335855000186,None,,,,,,,,,,,,s261,001,2023-12-12_15h58.56.585,test_typingtask_norepeats,2020.2.10,59.97120182602823,
heond,heond,,,,,0,63,63,63,,,,,,,,408.68351239996264,None,"['h', 'e', 'o', 'n', 'd']",1,"[0.6750413999543525, 0.7469812999479473, 0.9230206999927759, 1.0750679999473505, 1.1550806000013836]",408.68351239996264,None,408.6833863499807,None,,,,,,,,,,,,s261,001,2023-12-12_15h58.56.585,test_typingtask_norepeats,2020.2.10,59.97120182602823,
lucky,lucky,,,,,0,64,64,64,,,,,,,,414.1835522999754,None,"['l', 'u', 'c', 'k', 'y']",1,"[0.7109500000369735, 0.8950515000033192, 1.0390463000512682, 1.1349377000005916, 1.3110668000299484]",414.1835522999754,None,414.18342634999425,None,,,,,,,,,,,,s261,001,2023-12-12_15h58.56.585,test_typingtask_norepeats,2020.2.10,59.97120182602823,
vanru,vanru,,,,,0,65,65,65,,,,,,,,419.68354699999327,None,"['v', 'a', 'n', 'r', 'u']",1,"[0.8189565999782644, 0.8909333000192419, 0.9791639000177383, 1.1870785999926738, 1.2669653000193648]",419.68354699999327,None,419.6834169499809,None,,,,,,,,,,,,s261,001,2023-12-12_15h58.56.585,test_typingtask_norepeats,2020.2.10,59.97120182602823,
tithe,tithe,,,,,0,66,66,66,,,,,,,,425.18360889999894,None,"['t', 'i', 't', 'h', 'e']",1,"[0.7111403000308201, 0.8149850000045262, 0.926943400001619, 0.9909884000080638, 1.1268058000132442]",425.18360889999894,None,425.1835064499639,None,,,,,,,,,,,,s261,001,2023-12-12_15h58.56.585,test_typingtask_norepeats,2020.2.10,59.97120182602823,
belly,belly,,,,,0,67,67,67,,,,,,,,430.6836682999856,None,"['b', 'e', 'l', 'l', 'y']",1,"[0.6908180000027642, 0.8028279999853112, 0.946922299975995, 1.1068311000126414, 1.370799399970565]",430.6836682999856,None,430.6835173499887,None,,,,,,,,,,,,s261,001,2023-12-12_15h58.56.585,test_typingtask_norepeats,2020.2.10,59.97120182602823,
think,think,,,,,0,68,68,68,,,,,,,,436.1836818999727,None,"['t', 'h', 'i', 'n', 'k']",1,"[0.6628261000150815, 0.7187996000284329, 0.8787879000301473, 1.0469108000397682, 1.1909333000076003]",436.1836818999727,None,436.1835045500076,None,,,,,,,,,,,,s261,001,2023-12-12_15h58.56.585,test_typingtask_norepeats,2020.2.10,59.97120182602823,
vanru,vanru,,,,,0,69,69,69,,,,,,,,441.68371439998737,None,"['v', 'a', 'n', 'r', 'u']",1,"[0.7307741999975406, 0.8187964999815449, 0.8988715999876149, 1.090780500031542, 1.1787888000253588]",441.68371439998737,None,441.6835464499774,None,,,,,,,,,,,,s261,001,2023-12-12_15h58.56.585,test_typingtask_norepeats,2020.2.10,59.97120182602823,
druze,druze,,,,,0,70,70,70,,,,,,,,447.18370719999075,None,"['d', 'r', 'u', 'z', 'e']",1,"[0.6547916000126861, 0.862862000009045, 1.006798600021284, 1.1428969000116922, 1.4948073999839835]",447.18370719999075,None,447.1836254499969,None,,,,,,,,,,,,s261,001,2023-12-12_15h58.56.585,test_typingtask_norepeats,2020.2.10,59.97120182602823,
there,there,,,,,0,71,71,71,,,,,,,,452.68379639997147,None,"['t', 'h', 'e', 'r', 'e']",1,"[0.6586956999963149, 0.7307876999839209, 0.8511839000275359, 0.9066597999772057, 1.0267988999839872]",452.68379639997147,None,452.68365504998945,None,,,,,,,,,,,,s261,001,2023-12-12_15h58.56.585,test_typingtask_norepeats,2020.2.10,59.97120182602823,
champ,champ,,,,,0,72,72,72,,,,,,,,458.18379639997147,None,"['c', 'h', 'a', 'm', 'p']",1,"[0.7906806000391953, 0.8628117000334896, 0.9828639000188559, 1.0707868000026792, 1.214799600013066]",458.18379639997147,None,458.18367965000215,None,,,,,,,,,,,,s261,001,2023-12-12_15h58.56.585,test_typingtask_norepeats,2020.2.10,59.97120182602823,
belly,belly,,,,,0,73,73,73,,,,,,,,463.68383679998806,None,"['b', 'e', 'l', 'l', 'y']",1,"[0.7466458000126295, 0.8107219000230543, 0.9626319000381045, 1.0987091999850236, 1.1947144999867305]",463.68383679998806,None,463.68369934997753,None,,,,,,,,,,,,s261,001,2023-12-12_15h58.56.585,test_typingtask_norepeats,2020.2.10,59.97120182602823,
therm,therm,,,,,0,74,74,74,,,,,,,,469.18387169996276,None,"['t', 'h', 'e', 'r', 'm']",1,"[0.6306257999967784, 0.694649999961257, 0.8547509999480098, 0.9187267999514006, 0.9986708999495022]",469.18387169996276,None,469.1837405500002,None,,,,,,,,,,,,s261,001,2023-12-12_15h58.56.585,test_typingtask_norepeats,2020.2.10,59.97120182602823,
buddy,buddy,,,,,0,75,75,75,,,,,,,,474.6838955999701,None,"['b', 'u', 'd', 'd', 'y']",1,"[0.7065910000237636, 0.9065814000205137, 1.0106616000412032, 1.1546362000517547, 1.2267005000030622]",474.6838955999701,None,474.6837812499609,None,,,,,,,,,,,,s261,001,2023-12-12_15h58.56.585,test_typingtask_norepeats,2020.2.10,59.97120182602823,
kremp,kremp,,,,,0,76,76,76,,,,,,,,480.1839360999875,None,"['k', 'r', 'e', 'm', 'p']",1,"[0.9905428999918513, 1.0948147000162862, 1.1906467000371777, 1.2946441000094637, 1.806530700006988]",480.1839360999875,None,480.1837951500085,None,,,,,,,,,,,,s261,001,2023-12-12_15h58.56.585,test_typingtask_norepeats,2020.2.10,59.97120182602823,
cooed,cooed,,,,,0,77,77,77,,,,,,,,485.6839764000033,None,"['c', 'o', 'o', 'e', 'd']",1,"[0.7304960999754258, 0.8745532999746501, 1.0265972000197507, 1.1704952999716625, 1.3624825999722816]",485.6839764000033,None,485.6838626499986,None,,,,,,,,,,,,s261,001,2023-12-12_15h58.56.585,test_typingtask_norepeats,2020.2.10,59.97120182602823,
champ,champ,,,,,0,78,78,78,,,,,,,,491.18397389998427,None,"['c', 'h', 'a', 'm', 'p']",1,"[0.6864742999896407, 0.758601000008639, 0.9746113999863155, 1.0384828000096604, 1.190608200035058]",491.18397389998427,None,491.18423644999274,None,,,,,,,,,,,,s261,001,2023-12-12_15h58.56.585,test_typingtask_norepeats,2020.2.10,59.97120182602823,
belly,belly,,,,,0,79,79,79,,,,,,,,496.68403419997776,None,"['b', 'e', 'l', 'l', 'y']",1,"[0.714434000023175, 0.8184239999973215, 0.9945280000101775, 1.1546645000344142, 1.2665968000073917]",496.68403419997776,None,496.6838688499876,None,,,,,,,,,,,,s261,001,2023-12-12_15h58.56.585,test_typingtask_norepeats,2020.2.10,59.97120182602823,
vodka,vodka,,,,,0,80,80,80,,,,,,,,502.1840605000034,None,"['v', 'o', 'd', 'k', 'a']",1,"[0.8384105999721214, 1.0545041000004858, 1.2224965000059456, 1.3665458000032231, 1.47039400000358]",502.1840605000034,None,502.1838957499596,None,,,,,,,,,,,,s261,001,2023-12-12_15h58.56.585,test_typingtask_norepeats,2020.2.10,59.97120182602823,
edthe,edthe,,,,,0,81,81,81,,,,,,,,507.68406920001144,None,"['e', 'd', 't', 'h', 'e']",1,"[0.794427499989979, 1.018417099956423, 1.2103623999864794, 1.266483099956531, 1.4104842999950051]",507.68406920001144,None,507.68396654997485,None,,,,,,,,,,,,s261,001,2023-12-12_15h58.56.585,test_typingtask_norepeats,2020.2.10,59.97120182602823,
champ,champ,,,,,0,82,82,82,,,,,,,,513.1841293000034,None,"['c', 'h', 'a', 'm', 'p']",1,"[0.6305155999725685, 0.6944285000208765, 0.8304540999815799, 0.9023194999899715, 1.0704268999979831]",513.1841293000034,None,513.1840118499706,None,,,,,,,,,,,,s261,001,2023-12-12_15h58.56.585,test_typingtask_norepeats,2020.2.10,59.97120182602823,
about,about,,,,,0,83,83,83,,,,,,,,518.6841649999842,None,"['a', 'b', 'o', 'u', 't']",1,"[0.6502571000019088, 0.730397199979052, 0.898408200009726, 1.0582612000289373, 1.1704882000340149]",518.6841649999842,None,518.684038249997,None,,,,,,,,,,,,s261,001,2023-12-12_15h58.56.585,test_typingtask_norepeats,2020.2.10,59.97120182602823,
pykka,pykka,,,,,0,84,84,84,,,,,,,,524.1842208000016,None,"['p', 'y', 'k', 'k', 'a']",1,"[0.6786811000201851, 0.8703688000096008, 1.1263078000047244, 1.2701970000052825, 1.3503106000134721]",524.1842208000016,None,524.1840665499797,None,,,,,,,,,,,,s261,001,2023-12-12_15h58.56.585,test_typingtask_norepeats,2020.2.10,59.97120182602823,
about,about,,,,,0,85,85,85,,,,,,,,529.6842150999582,None,"['a', 'b', 'o', 'u', 't']",1,"[0.5782379999873228, 0.6422273999778554, 0.8902187999919988, 0.9702161999884993, 1.1701920999912545]",529.6842150999582,None,529.6841078500031,529.7842287999811,,,,,,,,,,,,s261,001,2023-12-12_15h58.56.585,test_typingtask_norepeats,2020.2.10,59.97120182602823,
faqir,faqir,,,,,0,86,86,86,,,,,,,,535.1842374000116,None,"['f', 'a', 'q', 'i', 'r']",1,"[0.758209599996917, 0.8223921000026166, 1.1261960999690928, 1.2623278999817558, 1.3503625000012107]",535.1842374000116,None,535.1841327499599,535.2842926000012,,,,,,,,,,,,s261,001,2023-12-12_15h58.56.585,test_typingtask_norepeats,2020.2.10,59.97120182602823,
druze,druze,,,,,0,87,87,87,,,,,,,,540.6842975000036,None,"['d', 'r', 'u', 'z', 'e']",1,"[0.5861393999657594, 0.7942603999981657, 0.9462449999991804, 1.0502965999767184, 1.2262601999682374]",540.6842975000036,None,540.6841663499829,540.7843001000001,,,,,,,,,,,,s261,001,2023-12-12_15h58.56.585,test_typingtask_norepeats,2020.2.10,59.97120182602823,
kremp,kremp,,,,,0,88,88,88,,,,,,,,546.184323799971,None,"['k', 'r', 'e', 'm', 'p']",1,"[0.9421582000213675, 1.006130399997346, 1.070228099997621, 1.1341886000009254, 1.3182589000207372]",546.184323799971,None,546.1842167500174,546.2844085000106,,,,,,,,,,,,s261,001,2023-12-12_15h58.56.585,test_typingtask_norepeats,2020.2.10,59.97120182602823,
champ,champ,,,,,0,89,89,89,,,,,,,,551.6843381999643,None,"['c', 'h', 'a', 'm', 'p']",1,"[0.6901053999899887, 0.7700945999822579, 0.9142075999989174, 1.002147999999579, 1.1861013999441639]",551.6843381999643,None,551.6842317500152,551.7843691000016,,,,,,,,,,,,s261,001,2023-12-12_15h58.56.585,test_typingtask_norepeats,2020.2.10,59.97120182602823,
would,would,,,,,0,90,90,90,,,,,,,,557.1843537999666,None,"['w', 'o', 'u', 'l', 'd']",1,"[0.6220734999515116, 0.6780271999887191, 0.814182499947492, 1.0221970999846235, 1.1183054999564774]",557.1843537999666,None,557.1842722499744,557.2843882999732,,,,,,,,,,,,s261,001,2023-12-12_15h58.56.585,test_typingtask_norepeats,2020.2.10,59.97120182602823,
pykka,pykka,,,,,0,91,91,91,,,,,,,,562.6843985999585,None,"['p', 'y', 'k', 'k', 'a']",1,"[0.7060379000031389, 0.8260328999604098, 1.1061271000071429, 1.2505124000017531, 1.3220242999959737]",562.6843985999585,None,562.6842534500058,562.784415400005,,,,,,,,,,,,s261,001,2023-12-12_15h58.56.585,test_typingtask_norepeats,2020.2.10,59.97120182602823,
therm,therm,,,,,0,92,92,92,,,,,,,,568.1844115999993,None,"['t', 'h', 'e', 'r', 'm']",1,"[0.7342013000161387, 0.7820028000278398, 0.9661896000034176, 1.062156900006812, 1.1021229000180028]",568.1844115999993,None,568.1843241499621,None,,,,,,,,,,,,s261,001,2023-12-12_15h58.56.585,test_typingtask_norepeats,2020.2.10,59.97120182602823,
edthe,edthe,,,,,0,93,93,93,,,,,,,,573.6844516000128,None,"['e', 'd', 't', 'h', 'e']",1,"[0.697968199965544, 0.8979574999539182, 1.1139783000107855, 1.1700718000065535, 1.2818654999719001]",573.6844516000128,None,573.6843552499661,None,,,,,,,,,,,,s261,001,2023-12-12_15h58.56.585,test_typingtask_norepeats,2020.2.10,59.97120182602823,
think,think,,,,,0,94,94,94,,,,,,,,579.1845165999839,None,"['t', 'h', 'i', 'n', 'k']",1,"[0.6459021000191569, 0.7260706000379287, 0.87803130003158, 1.0300095999846235, 1.1580045000300743]",579.1845165999839,None,579.1843871499761,None,,,,,,,,,,,,s261,001,2023-12-12_15h58.56.585,test_typingtask_norepeats,2020.2.10,59.97120182602823,
zibja,zibja,,,,,0,95,95,95,,,,,,,,584.6845511000138,None,"['z', 'i', 'b', 'j', 'a']",1,"[0.8818860999890603, 0.9540071999654174, 1.1860387999913655, 1.3299477999680676, 1.3859792999573983]",584.6845511000138,None,584.6844147500117,None,,,,,,,,,,,,s261,001,2023-12-12_15h58.56.585,test_typingtask_norepeats,2020.2.10,59.97120182602823,
druze,druze,,,,,0,96,96,96,,,,,,,,590.184580000001,None,"['d', 'r', 'u', 'z', 'e']",1,"[0.6699919999809936, 0.9098326999810524, 1.0057760999770835, 1.2617596000200137, 1.5979771999991499]",590.184580000001,None,590.1844507499948,590.2845917000086,,,,,,,,,,,,s261,001,2023-12-12_15h58.56.585,test_typingtask_norepeats,2020.2.10,59.97120182602823,
about,about,,,,,0,97,97,97,,,,,,,,595.6846237999853,None,"['a', 'b', 'o', 'u', 't']",1,"[0.6819520000135526, 0.7937594000250101, 0.9218984000035562, 1.0897773000178859, 1.2017702999874018]",595.6846237999853,None,595.6844979500049,595.784617999976,,,,,,,,,,,,s261,001,2023-12-12_15h58.56.585,test_typingtask_norepeats,2020.2.10,59.97120182602823,
lucky,lucky,,,,,0,98,98,98,,,,,,,,601.1846340000047,None,"['l', 'u', 'c', 'k', 'y']",1,"[0.685787700000219, 0.9099711999879219, 1.0618311999714933, 1.1658832000102848, 1.437783200002741]",601.1846340000047,None,601.1845272499952,601.2846524000051,,,,,,,,,,,,s261,001,2023-12-12_15h58.56.585,test_typingtask_norepeats,2020.2.10,59.97120182602823,
pykka,pykka,,,,,0,99,99,99,,,,,,,,606.6846740999608,None,"['p', 'y', 'k', 'k', 'a']",1,"[0.8977361999568529, 1.1697251999867149, 1.5297327999724075, 1.6578145999810658, 1.801685299957171]",606.6846740999608,None,606.6845531499596,606.7846856999677,,,,,,,,,,,,s261,001,2023-12-12_15h58.56.585,test_typingtask_norepeats,2020.2.10,59.97120182602823,
cooed,cooed,,,,,0,100,100,100,,,,,,,,612.1847265000106,None,"['c', 'o', 'o', 'e', 'd']",1,"[0.8136744999792427, 0.9817635999643244, 1.1336922000045888, 1.2217826999840327, 1.3817869999911636]",612.1847265000106,None,612.1845580499969,612.2847239999683,,,,,,,,,,,,s261,001,2023-12-12_15h58.56.585,test_typingtask_norepeats,2020.2.10,59.97120182602823,
druze,druze,,,,,0,101,101,101,,,,,,,,617.6847522999742,None,"['d', 'r', 'u', 'z', 'e']",1,"[0.7296536000212654, 0.9457696000463329, 1.0577616000082344, 1.2177622000453994, 1.4176363000296988]",617.6847522999742,None,617.6846247499809,None,,,,,,,,,,,,s261,001,2023-12-12_15h58.56.585,test_typingtask_norepeats,2020.2.10,59.97120182602823,
cooed,cooed,,,,,0,102,102,102,,,,,,,,623.1847852999927,None,"['c', 'o', 'o', 'e', 'd']",1,"[0.6856151000247337, 0.7977374999900348, 0.9496508999727666, 1.0136182999704033, 1.2057188000180759]",623.1847852999927,None,623.1846351500019,623.2847780999728,,,,,,,,,,,,s261,001,2023-12-12_15h58.56.585,test_typingtask_norepeats,2020.2.10,59.97120182602823,
theme,theme,,,,,0,103,103,103,,,,,,,,628.6847778999945,None,"['t', 'h', 'e', 'm', 'e']",1,"[0.7216185000143014, 0.7696725000278093, 0.9376806999789551, 1.0336391999735497, 1.1377270999946631]",628.6847778999945,None,628.6846588500077,628.7848249999806,,,,,,,,,,,,s261,001,2023-12-12_15h58.56.585,test_typingtask_norepeats,2020.2.10,59.97120182602823,
haole,haole,,,,,0,104,104,104,,,,,,,,634.1848611999885,None,"['h', 'e', 'o', 'l', 'e']",0,"[0.7415348999784328, 0.8775300999986939, 1.0855126000242308, 1.2775277000037022, 1.3415309999836609]",634.1848611999885,None,634.1847417499987,634.2848352000001,,,,,,,,,,,,s261,001,2023-12-12_15h58.56.585,test_typingtask_norepeats,2020.2.10,59.97120182602823,
buddy,buddy,,,,,0,105,105,105,,,,,,,,639.6848828999791,None,"['b', 'u', 'd', 'd', 'y']",1,"[0.6895211000228301, 0.9294729999965057, 1.0174911000067368, 1.161597200029064, 1.2338125000242144]",639.6848828999791,None,639.684762749984,None,,,,,,,,,,,,s261,001,2023-12-12_15h58.56.585,test_typingtask_norepeats,2020.2.10,59.97120182602823,
faqir,faqir,,,,,0,106,106,106,,,,,,,,645.1849306999939,None,"['f', 'a', 'q', 'i', 'r']",1,"[0.8214596000034362, 0.8934755999944173, 1.1734493999974802, 1.261565900000278, 1.4135688000242226]",645.1849306999939,None,645.1847906499636,645.2849154999712,,,,,,,,,,,,s261,001,2023-12-12_15h58.56.585,test_typingtask_norepeats,2020.2.10,59.97120182602823,
lucky,lucky,,,,,0,107,107,107,,,,,,,,650.6849436999764,None,"['l', 'u', 'c', 'k', 'y']",1,"[0.7534457000438124, 0.9775165000464767, 1.1055057000485249, 1.2094285000348464, 1.417434700008016]",650.6849436999764,None,650.684819150006,650.7849457999691,,,,,,,,,,,,s261,001,2023-12-12_15h58.56.585,test_typingtask_norepeats,2020.2.10,59.97120182602823,
belly,belly,,,,,0,108,108,108,,,,,,,,656.1849557000096,None,"['b', 'e', 'l', 'l', 'y']",1,"[0.6534245999646373, 0.7816683999844827, 0.9575082999654114, 1.149528099980671, 1.2294188999803737]",656.1849557000096,None,656.1851052499726,656.284982000012,,,,,,,,,,,,s261,001,2023-12-12_15h58.56.585,test_typingtask_norepeats,2020.2.10,59.97120182602823,
cheer,cheer,,,,,0,109,109,109,,,,,,,,661.6850061999867,None,"['c', 'h', 'e', 'e', 'r']",1,"[0.6733787999837659, 0.7455028000404127, 0.8814695000182837, 1.0415181000134908, 1.153319300035946]",661.6850061999867,None,661.6848725500051,661.7850107999984,,,,,,,,,,,,s261,001,2023-12-12_15h58.56.585,test_typingtask_norepeats,2020.2.10,59.97120182602823,
haole,haole,,,,,0,110,110,110,,,,,,,,667.1850274999742,None,"['h', 'a', 'o', 'l', 'e']",1,"[0.7493572999956086, 0.8856556999962777, 1.0534652000060305, 1.325473000004422, 1.4133183000376448]",667.1850274999742,None,667.1849291499705,667.2850520999637,,,,,,,,,,,,s261,001,2023-12-12_15h58.56.585,test_typingtask_norepeats,2020.2.10,59.97120182602823,
tithe,tithe,,,,,0,111,111,111,,,,,,,,672.6850824999856,None,"['t', 'i', 't', 'h', 'e']",1,"[0.6572899000020698, 0.7452847000095062, 0.8413359000114724, 0.8974146000109613, 1.009382700023707]",672.6850824999856,None,672.6849597499706,672.7850893999566,,,,,,,,,,,,s261,001,2023-12-12_15h58.56.585,test_typingtask_norepeats,2020.2.10,59.97120182602823,
cooed,cooed,,,,,0,112,112,112,,,,,,,,678.1851003000047,None,"['c', 'o', 'o', 'e', 'd']",1,"[0.877263700007461, 1.053260400018189, 1.213405899994541, 1.2932582999928854, 1.517202599963639]",678.1851003000047,None,678.1850211499725,678.2851283999626,,,,,,,,,,,,s261,001,2023-12-12_15h58.56.585,test_typingtask_norepeats,2020.2.10,59.97120182602823,
theme,theme,,,,,0,113,113,113,,,,,,,,683.6851567999693,None,"['t', 'h', 'e', 'm', 'e']",1,"[0.657216600026004, 0.705265500000678, 0.9293227000162005, 1.0333159000147134, 1.1291573000489734]",683.6851567999693,None,683.6850506499643,683.7851654000115,,,,,,,,,,,,s261,001,2023-12-12_15h58.56.585,test_typingtask_norepeats,2020.2.10,59.97120182602823,
there,there,,,,,0,114,114,114,,,,,,,,689.1851853000117,None,"['t', 'h', 'e', 'r', 'e']",1,"[0.6131727999891154, 0.6933069999795407, 0.8293005999876186, 0.9092986999894492, 1.0211768999579363]",689.1851853000117,None,689.185094350006,689.2851939999964,,,,,,,,,,,,s261,001,2023-12-12_15h58.56.585,test_typingtask_norepeats,2020.2.10,59.97120182602823,
buddy,buddy,,,,,0,115,115,115,,,,,,,,694.6852152000065,None,"['b', 'u', 'd', 'd', 'y']",1,"[0.6891632999759167, 0.8970933000091463, 0.9771935999742709, 1.1291193999932148, 1.3292616999824531]",694.6852152000065,None,694.685088150017,694.7852158999885,,,,,,,,,,,,s261,001,2023-12-12_15h58.56.585,test_typingtask_norepeats,2020.2.10,59.97120182602823,
faqir,faqir,,,,,0,116,116,116,,,,,,,,700.1852414999739,None,"['f', 'a', 'q', 'i', 'r']",1,"[0.8051224000519142, 0.869096000038553, 1.1570935000199825, 1.3092232000199147, 1.4291901999968104]",700.1852414999739,None,700.185117550008,700.2852081999881,,,,,,,,,,,,s261,001,2023-12-12_15h58.56.585,test_typingtask_norepeats,2020.2.10,59.97120182602823,
haole,haole,,,,,0,117,117,117,,,,,,,,705.6852802999783,None,"['h', 'a', 'o', 'l', 'e']",1,"[0.761089300038293, 0.8490832000388764, 1.017504999996163, 1.257073600019794, 1.3771662000217475]",705.6852802999783,None,705.6851528499858,705.7852389999898,,,,,,,,,,,,s261,001,2023-12-12_15h58.56.585,test_typingtask_norepeats,2020.2.10,59.97120182602823,
tithe,tithe,,,,,0,118,118,118,,,,,,,,711.1852811999852,None,"['t', 'i', 't', 'h', 'e']",1,"[0.7250681000296026, 0.7811950999894179, 0.9091651000198908, 0.9650557999848388, 1.0770786000066437]",711.1852811999852,None,711.185190049978,711.2854172000079,,,,,,,,,,,,s261,001,2023-12-12_15h58.56.585,test_typingtask_norepeats,2020.2.10,59.97120182602823,
lucky,lucky,,,,,0,119,119,119,,,,,,,,716.6853463999578,None,"['l', 'u', 'c', 'k', 'y']",1,"[0.6731842999579385, 0.8811138999881223, 0.984925500000827, 1.1530724999611266, 1.296994199976325]",716.6853463999578,None,716.6852265499649,716.7853530999855,,,,,,,,,,,,s261,001,2023-12-12_15h58.56.585,test_typingtask_norepeats,2020.2.10,59.97120182602823,
lucky,lucky,,,,,,,,,0,0,0,0,,,,,,,,,,,,,722.1854015999706,None,730.6520979999914,None,"['l', 'u', 'c', 'k', 'y']",1,"[0.8262524000019766, 1.0343109000241384, 1.122252099972684, 1.2422507000155747, 1.3943098000017926]",730.6520979999914,None,730.6353040499846,730.7354109999724,s261,001,2023-12-12_15h58.56.585,test_typingtask_norepeats,2020.2.10,59.97120182602823,
think,think,,,,,,,,,0,1,1,1,,,,,,,,,,,,,,,736.152130100003,None,"['t', 'h', 'i', 'n', 'k']",1,"[0.6301991000073031, 0.6942020999849774, 0.8702884999802336, 1.0143160999868996, 1.1423728999798186]",736.152130100003,None,736.1520537499921,None,s261,001,2023-12-12_15h58.56.585,test_typingtask_norepeats,2020.2.10,59.97120182602823,
there,there,,,,,,,,,0,2,2,2,,,,,,,,,,,,,,,741.652163599967,None,"['t', 'h', 'e', 'r', 'e']",1,"[0.5863092999788933, 0.6341610999661498, 0.8341796999447979, 0.9141518999822438, 1.0181013999972492]",741.652163599967,None,741.6520321500022,None,s261,001,2023-12-12_15h58.56.585,test_typingtask_norepeats,2020.2.10,59.97120182602823,
buddy,buddy,,,,,,,,,0,3,3,3,,,,,,,,,,,,,,,747.1521938999649,None,"['b', 'u', 'd', 'd', 'y']",1,"[0.6941542999702506, 0.870134099968709, 0.9982681999681517, 1.150273399951402, 1.238248499983456]",747.1521938999649,None,747.1520851499984,None,s261,001,2023-12-12_15h58.56.585,test_typingtask_norepeats,2020.2.10,59.97120182602823,
pykka,pykka,,,,,,,,,0,4,4,4,,,,,,,,,,,,,,,752.6522276999895,None,"['p', 'y', 'k', 'k', 'a']",1,"[0.7221140000037849, 0.938211600005161, 1.178225299983751, 1.3221907999832183, 1.4020998000050895]",752.6522276999895,None,752.652111349965,None,s261,001,2023-12-12_15h58.56.585,test_typingtask_norepeats,2020.2.10,59.97120182602823,
about,about,,,,,,,,,0,5,5,5,,,,,,,,,,,,,,,758.1522740999935,None,"['a', 'b', 'o', 'u', 't']",1,"[0.6139909999910742, 0.6861813000286929, 0.8380958000198007, 1.0541827999986708, 1.1740359999821521]",758.1522740999935,None,758.152161149995,758.2522634000052,s261,001,2023-12-12_15h58.56.585,test_typingtask_norepeats,2020.2.10,59.97120182602823,
tithe,tithe,,,,,,,,,0,6,6,6,,,,,,,,,,,,,,,763.6523038999876,None,"['t', 'i', 't', 'h', 'e']",1,"[0.6260270000202581, 0.7220212999964133, 0.8261383000062779, 0.8821306999889202, 0.9781203999882564]",763.6523038999876,None,763.6521720499616,763.7522926999955,s261,001,2023-12-12_15h58.56.585,test_typingtask_norepeats,2020.2.10,59.97120182602823,
vanru,vanru,,,,,,,,,0,7,7,7,,,,,,,,,,,,,,,769.1523240999668,None,"['v', 'a', 'n', 'r', 'u']",1,"[0.7500310000032187, 0.8380566999549046, 0.9021184999728575, 1.0699889999814332, 1.1421262999647297]",769.1523240999668,None,769.1522094500135,769.2523295999854,s261,001,2023-12-12_15h58.56.585,test_typingtask_norepeats,2020.2.10,59.97120182602823,
vodka,vodka,,,,,,,,,0,8,8,8,,,,,,,,,,,,,,,774.6524041999946,None,"['v', 'o', 'd', 'k', 'a']",1,"[0.7619365000282414, 0.8579332000226714, 1.0580475000315346, 1.2500091000110842, 1.345984400017187]",774.6524041999946,None,774.6522377499962,774.7523730999674,s261,001,2023-12-12_15h58.56.585,test_typingtask_norepeats,2020.2.10,59.97120182602823,
champ,champ,,,,,,,,,0,9,9,9,,,,,,,,,,,,,,,780.152379999985,None,"['c', 'h', 'a', 'm', 'p']",1,"[0.9339654000359587, 1.005931599996984, 1.197921100014355, 1.2859756000107154, 1.4699249000404961]",780.152379999985,None,780.1522756499937,780.2524001999991,s261,001,2023-12-12_15h58.56.585,test_typingtask_norepeats,2020.2.10,59.97120182602823,
buddy,buddy,,,,,,,,,0,10,10,10,,,,,,,,,,,,,,,785.6524727999931,None,"['b', 'u', 'd', 'd', 'y']",1,"[0.6258164999890141, 0.8258480000076815, 0.8659526000265032, 1.049907999986317, 1.105796999996528]",785.6524727999931,None,785.6522828499903,785.7524317000061,s261,001,2023-12-12_15h58.56.585,test_typingtask_norepeats,2020.2.10,59.97120182602823,
cooed,cooed,,,,,,,,,0,11,11,11,,,,,,,,,,,,,,,791.1524699999718,None,"['c', 'o', 'o', 'e', 'd']",1,"[0.5578503000433557, 0.7098814000491984, 0.8537893000175245, 0.9018789000110701, 1.0859280000440776]",791.1524699999718,None,791.1523618500098,None,s261,001,2023-12-12_15h58.56.585,test_typingtask_norepeats,2020.2.10,59.97120182602823,
lucky,lucky,,,,,,,,,0,12,12,12,,,,,,,,,,,,,,,796.6524858999765,None,"['l', 'u', 'c', 'k', 'y']",1,"[0.5778302000253461, 0.7618502000113949, 0.8342280000215396, 1.0098464000038803, 1.1457860000082292]",796.6524858999765,None,796.6523518499919,None,s261,001,2023-12-12_15h58.56.585,test_typingtask_norepeats,2020.2.10,59.97120182602823,
therm,therm,,,,,,,,,0,13,13,13,,,,,,,,,,,,,,,802.1524911999586,None,"['t', 'h', 'e', 'r', 'm']",1,"[0.5978274999652058, 0.6618399999570101, 0.8379376999801025, 0.9019355999771506, 0.9579366999678314]",802.1524911999586,None,802.1524025499705,None,s261,001,2023-12-12_15h58.56.585,test_typingtask_norepeats,2020.2.10,59.97120182602823,
faqir,faqir,,,,,,,,,0,14,14,14,,,,,,,,,,,,,,,807.6525727999979,None,"['f', 'a', 'q', 'i']",0,"[0.7297771000303328, 0.8418748999829404, 1.4737489999970421, 1.6658525000093505]",807.6525727999979,None,807.6524451500038,None,s261,001,2023-12-12_15h58.56.585,test_typingtask_norepeats,2020.2.10,59.97120182602823,
vanru,vanru,,,,,,,,,0,15,15,15,,,,,,,,,,,,,,,813.1526060999604,None,"['v', 'a', 'n', 'r', 'u']",1,"[0.909699699957855, 0.9817036999738775, 1.0458319999743253, 1.189801400003489, 1.3259225999936461]",813.1526060999604,None,813.1524755500025,None,s261,001,2023-12-12_15h58.56.585,test_typingtask_norepeats,2020.2.10,59.97120182602823,
kremp,kremp,,,,,,,,,0,16,16,16,,,,,,,,,,,,,,,818.652648999996,None,"['k', 'r', 'e', 'm', 'p']",1,"[0.8656120999949053, 0.9216582999797538, 1.0016510999994352, 1.0335804999922402, 1.225674399989657]",818.652648999996,None,818.6525132499985,None,s261,001,2023-12-12_15h58.56.585,test_typingtask_norepeats,2020.2.10,59.97120182602823,
lucky,lucky,,,,,,,,,0,17,17,17,,,,,,,,,,,,,,,824.1526937999879,None,"['l', 'u', 'c', 'k', 'y']",1,"[0.5976272000116296, 0.8057873999932781, 0.917575899977237, 1.0455955999786966, 1.2135955999838188]",824.1526937999879,None,824.1525272499887,None,s261,001,2023-12-12_15h58.56.585,test_typingtask_norepeats,2020.2.10,59.97120182602823,
cheer,cheer,,,,,,,,,0,18,18,18,,,,,,,,,,,,,,,829.6527037000051,None,"['c', 'h', 'e', 'e', 'r']",1,"[0.601636299979873, 0.6737017999985255, 0.7855597999878228, 0.9536880999803543, 1.057590499985963]",829.6527037000051,None,829.6525746500004,None,s261,001,2023-12-12_15h58.56.585,test_typingtask_norepeats,2020.2.10,59.97120182602823,
vodka,vodka,,,,,,,,,0,19,19,19,,,,,,,,,,,,,,,835.1526976999594,None,"['c', 'o', 'd', 'k', 'a']",0,"[0.8375972000067122, 0.9335989999817684, 1.0775814999942668, 1.2776817999547347, 1.3817282000090927]",835.1526976999594,None,835.1525976500009,None,s261,001,2023-12-12_15h58.56.585,test_typingtask_norepeats,2020.2.10,59.97120182602823,
theme,theme,,,,,,,,,0,20,20,20,,,,,,,,,,,,,,,840.6527304999763,None,"['t', 'h', 'e', 'm', 'e']",1,"[0.5935648000449874, 0.6495483000180684, 0.8416293000336736, 0.9456243000458926, 1.0255524000385776]",840.6527304999763,None,840.6526049499982,None,s261,001,2023-12-12_15h58.56.585,test_typingtask_norepeats,2020.2.10,59.97120182602823,
belly,belly,,,,,,,,,0,21,21,21,,,,,,,,,,,,,,,846.1528058999684,None,"['b', 'e', 'l', 'l', 'y']",1,"[0.6295249999966472, 0.7414800999686122, 0.8855247999890707, 1.0456006999593228, 1.1657665999955498]",846.1528058999684,None,846.1527212500107,None,s261,001,2023-12-12_15h58.56.585,test_typingtask_norepeats,2020.2.10,59.97120182602823,
faqir,faqir,,,,,,,,,0,22,22,22,,,,,,,,,,,,,,,851.6528374999762,None,"['f', 'a', 'q', 'i', 'r']",1,"[0.7534521000343375, 0.82560000004014, 1.1134954000008292, 1.2254264000221156, 1.33742550003808]",851.6528374999762,None,851.6526764499606,None,s261,001,2023-12-12_15h58.56.585,test_typingtask_norepeats,2020.2.10,59.97120182602823,
there,there,,,,,,,,,0,23,23,23,,,,,,,,,,,,,,,857.1528813999612,None,"['t', 'h', 'e', 'r', 'e']",1,"[0.6534968999912962, 0.7173870999831706, 0.8695117000024766, 0.9173706999863498, 1.0374226999701932]",857.1528813999612,None,857.1527174499818,None,s261,001,2023-12-12_15h58.56.585,test_typingtask_norepeats,2020.2.10,59.97120182602823,
tithe,tithe,,,,,,,,,0,24,24,24,,,,,,,,,,,,,,,862.6529980999767,None,"['t', 'i', 't', 'h', 'e']",1,"[0.8652826000470668, 0.969384900003206, 1.0571938000502996, 1.1532593000447378, 1.2655800000065938]",862.6529980999767,None,862.6527752500144,None,s261,001,2023-12-12_15h58.56.585,test_typingtask_norepeats,2020.2.10,59.97120182602823,
theme,theme,,,,,,,,,0,25,25,25,,,,,,,,,,,,,,,868.1529555000016,None,"['t', 'h', 'e', 'm', 'e']",1,"[0.629404999956023, 0.6773946999455802, 0.8132827999652363, 0.9573016999638639, 1.0373184999916703]",868.1529555000016,None,868.1528165499797,None,s261,001,2023-12-12_15h58.56.585,test_typingtask_norepeats,2020.2.10,59.97120182602823,
haole,haole,,,,,,,,,0,26,26,26,,,,,,,,,,,,,,,873.6529846999911,None,"['h', 'a', 'o', 'l', 'e']",1,"[0.7293969999882393, 0.8094214000157081, 0.9692672999808565, 1.1853332000318915, 1.2412737000267953]",873.6529846999911,None,873.6528525499627,None,s261,001,2023-12-12_15h58.56.585,test_typingtask_norepeats,2020.2.10,59.97120182602823,
vanru,vanru,,,,,,,,,0,27,27,27,,,,,,,,,,,,,,,879.153019499965,None,"['v', 'a', 'n', 'r', 'u']",1,"[0.6933124999632128, 0.7733843000023626, 0.8451869999989867, 1.0133664999739267, 1.125518299988471]",879.153019499965,None,879.1529879500042,None,s261,001,2023-12-12_15h58.56.585,test_typingtask_norepeats,2020.2.10,59.97120182602823,
pykka,pykka,,,,,,,,,0,28,28,28,,,,,,,,,,,,,,,884.6530424999655,None,"['p', 'y', 'k', 'k', 'a']",1,"[0.9692346999654546, 1.0973333999863826, 1.2413300999905914, 1.4013521999586374, 1.4573354999884032]",884.6530424999655,None,884.6528763499693,None,s261,001,2023-12-12_15h58.56.585,test_typingtask_norepeats,2020.2.10,59.97120182602823,
faqir,faqir,,,,,,,,,0,29,29,29,,,,,,,,,,,,,,,890.1530807999661,None,"['f', 'a', 'q', 'i', 'r']",1,"[0.8291508000111207, 0.8852671000058763, 1.149185899994336, 1.1732928000274114, 1.3652286999858916]",890.1530807999661,None,890.152934150002,None,s261,001,2023-12-12_15h58.56.585,test_typingtask_norepeats,2020.2.10,59.97120182602823,
belly,belly,,,,,,,,,0,30,30,30,,,,,,,,,,,,,,,895.653100800002,None,"['b', 'e', 'l', 'l', 'y']",1,"[0.6491609999793582, 0.7771989000029862, 0.8972512999898754, 1.097199300013017, 1.161396000010427]",895.653100800002,None,895.6529830499669,None,s261,001,2023-12-12_15h58.56.585,test_typingtask_norepeats,2020.2.10,59.97120182602823,
puppy,puppy,,,,,,,,,0,31,31,31,,,,,,,,,,,,,,,901.1531516999821,None,"['p', 'u', 'p', 'p', 'y']",1,"[0.8211011000094004, 0.9331449000164866, 1.1092396000167355, 1.2612158000119962, 1.3812019000179134]",901.1531516999821,None,901.1529988499708,None,s261,001,2023-12-12_15h58.56.585,test_typingtask_norepeats,2020.2.10,59.97120182602823,
would,would,,,,,,,,,0,32,32,32,,,,,,,,,,,,,,,906.653175399988,None,"['w', 'o', 'u', 'l', 'd']",1,"[0.7130861000041477, 0.7690791999921203, 1.0092038000002503, 1.3450693000340834, 1.4651493999990635]",906.653175399988,None,906.6530638500001,None,s261,001,2023-12-12_15h58.56.585,test_typingtask_norepeats,2020.2.10,59.97120182602823,
heond,heond,,,,,,,,,0,33,33,33,,,,,,,,,,,,,,,912.1532157000038,None,"['h', 'e', 'o', 'n', 'd']",1,"[0.6610453000175767, 0.7730421000160277, 0.8610696999821812, 1.1010218000155874, 1.197043499967549]",912.1532157000038,None,912.1530476499931,None,s261,001,2023-12-12_15h58.56.585,test_typingtask_norepeats,2020.2.10,59.97120182602823,
puppy,puppy,,,,,,,,,0,34,34,34,,,,,,,,,,,,,,,917.6532576999743,None,"['p', 'u', 'p', 'p', 'y']",1,"[0.6730071000056341, 0.7931175000267103, 0.9369963000062853, 1.0889814000111073, 1.2330540000111796]",917.6532576999743,None,917.6530902499683,None,s261,001,2023-12-12_15h58.56.585,test_typingtask_norepeats,2020.2.10,59.97120182602823,
zibja,zibja,,,,,,,,,0,35,35,35,,,,,,,,,,,,,,,923.1532444999903,None,"['z', 'i', 'b', 'j', 'a']",1,"[1.013008699985221, 1.0770063000381924, 1.293110400030855, 1.437123799987603, 1.4929981000022963]",923.1532444999903,None,923.1531552499976,None,s261,001,2023-12-12_15h58.56.585,test_typingtask_norepeats,2020.2.10,59.97120182602823,
buddy,buddy,,,,,,,,,0,36,36,36,,,,,,,,,,,,,,,928.653275699995,None,"['b', 'u', 'd', 'd', 'y']",1,"[0.6729176000226289, 0.8649731000186875, 0.9770902000018395, 1.1290436999988742, 1.1691143999923952]",928.653275699995,None,928.6531874500099,None,s261,001,2023-12-12_15h58.56.585,test_typingtask_norepeats,2020.2.10,59.97120182602823,
kremp,kremp,,,,,,,,,0,37,37,37,,,,,,,,,,,,,,,934.1533538000076,None,"['k', 'r', 'e', 'm', 'p']",1,"[0.7569934999919496, 0.8528851000010036, 0.9408779999939725, 0.9650051000062376, 1.1730192999821156]",934.1533538000076,None,934.1532347499626,None,s261,001,2023-12-12_15h58.56.585,test_typingtask_norepeats,2020.2.10,59.97120182602823,
edthe,edthe,,,,,,,,,0,38,38,38,,,,,,,,,,,,,,,939.6533850000123,None,"['e', 'd', 't', 'h', 'e']",1,"[0.6968556999927387, 0.9128817999735475, 1.176959500007797, 1.232861900003627, 1.3527939000050537]",939.6533850000123,None,939.6532622499974,None,s261,001,2023-12-12_15h58.56.585,test_typingtask_norepeats,2020.2.10,59.97120182602823,
zibja,zibja,,,,,,,,,0,39,39,39,,,,,,,,,,,,,,,945.1534156000125,None,"['z', 'i', 'b', 'j', 'a']",1,"[0.740824899985455, 0.8129601000109687, 1.3968402000027709, 1.588928599958308, 1.6529292999766767]",945.1534156000125,None,945.1532597499784,None,s261,001,2023-12-12_15h58.56.585,test_typingtask_norepeats,2020.2.10,59.97120182602823,
therm,therm,,,,,,,,,0,40,40,40,,,,,,,,,,,,,,,950.6534616000135,None,"['t', 'h', 'e', 'r', 'm']",1,"[0.6087028000038117, 0.6647545000305399, 0.832702599989716, 0.9368269999977201, 0.9927925000083633]",950.6534616000135,None,950.6533284499776,None,s261,001,2023-12-12_15h58.56.585,test_typingtask_norepeats,2020.2.10,59.97120182602823,
puppy,puppy,,,,,,,,,0,41,41,41,,,,,,,,,,,,,,,956.1535269999877,None,"['p', 'u', 'p', 'p']",0,"[0.7169878000277095, 0.8289244000334293, 1.0127004000241868, 1.15667840000242]",956.1535269999877,None,956.1533858500072,None,s261,001,2023-12-12_15h58.56.585,test_typingtask_norepeats,2020.2.10,59.97120182602823,
cooed,cooed,,,,,,,,,0,42,42,42,,,,,,,,,,,,,,,961.653505299997,None,"['c', 'o', 'o', 'e', 'd']",1,"[0.8967619999893941, 1.0408205999992788, 1.1768491999828257, 1.2170203999849036, 1.400829199992586]",961.653505299997,None,961.6534018500126,None,s261,001,2023-12-12_15h58.56.585,test_typingtask_norepeats,2020.2.10,59.97120182602823,
would,would,,,,,,,,,0,43,43,43,,,,,,,,,,,,,,,967.1535387999611,None,"['w', 'o', 'u', 'l', 'd']",1,"[0.6686894999584183, 0.716678700002376, 0.9487710999674164, 1.172700099996291, 1.2847920999629423]",967.1535387999611,None,967.1534392500064,None,s261,001,2023-12-12_15h58.56.585,test_typingtask_norepeats,2020.2.10,59.97120182602823,
pykka,pykka,,,,,,,,,0,44,44,44,,,,,,,,,,,,,,,972.6535512999981,None,"['p', 'y', 'k', 'k', 'a']",1,"[0.6647136000101455, 0.8806744999601506, 1.0967588999774307, 1.2407873999909498, 1.352771500009112]",972.6535512999981,None,972.6534623500077,None,s261,001,2023-12-12_15h58.56.585,test_typingtask_norepeats,2020.2.10,59.97120182602823,
kremp,kremp,,,,,,,,,0,45,45,45,,,,,,,,,,,,,,,978.1536257999833,None,"['k', 'r', 'e', 'm', 'p']",1,"[0.8285202000406571, 0.9166243000072427, 0.9887217000359669, 1.0046985000371933, 1.1967199000064284]",978.1536257999833,None,978.1534601499909,None,s261,001,2023-12-12_15h58.56.585,test_typingtask_norepeats,2020.2.10,59.97120182602823,
theme,theme,,,,,,,,,0,46,46,46,,,,,,,,,,,,,,,983.6536637999816,None,"['t', 'h', 'e', 'm', 'e']",1,"[0.5845613999990746, 0.6406680000363849, 0.7846427999902517, 0.8886727000353858, 1.0008721000049263]",983.6536637999816,None,983.653487849969,None,s261,001,2023-12-12_15h58.56.585,test_typingtask_norepeats,2020.2.10,59.97120182602823,
there,there,,,,,,,,,0,47,47,47,,,,,,,,,,,,,,,989.1536564999842,None,"['t', 'h', 'r', 'e', 'r', 'e']",0,"[0.6525663000065833, 0.6926702000200748, 0.9485696000047028, 1.0367060000426136, 1.1405556999961846, 1.2445395000395365]",989.1536564999842,None,989.1536451500026,None,s261,001,2023-12-12_15h58.56.585,test_typingtask_norepeats,2020.2.10,59.97120182602823,
champ,champ,,,,,,,,,0,48,48,48,,,,,,,,,,,,,,,994.6537302999641,None,"['c', 'h', 'a', 'm', 'p']",1,"[0.6324907999951392, 0.6965988999581896, 0.8565183999598958, 0.920607999956701, 1.0484790999908]",994.6537302999641,None,994.6536133499933,None,s261,001,2023-12-12_15h58.56.585,test_typingtask_norepeats,2020.2.10,59.97120182602823,
druze,druze,,,,,,,,,0,49,49,49,,,,,,,,,,,,,,,1000.1537617999711,None,"['d', 'r', 'u', 'z', 'e']",1,"[0.7084560000221245, 0.8845714000053704, 1.0284783000242896, 1.1325466000125743, 1.316518600040581]",1000.1537617999711,None,1000.153629650001,None,s261,001,2023-12-12_15h58.56.585,test_typingtask_norepeats,2020.2.10,59.97120182602823,
think,think,,,,,,,,,0,50,50,50,,,,,,,,,,,,,,,1005.6537894000066,None,"['t', 'h', 'i', 'n', 'k']",1,"[0.6323945999611169, 0.6884189000120386, 0.8485040999948978, 1.0244745999807492, 1.1444998999941163]",1005.6537894000066,None,1005.6536998500117,None,s261,001,2023-12-12_15h58.56.585,test_typingtask_norepeats,2020.2.10,59.97120182602823,
vanru,vanru,,,,,,,,,0,51,51,51,,,,,,,,,,,,,,,1011.1538287999574,None,"['v', 'a', 'n', 'r', 'u']",1,"[0.6766575999790803, 0.7723656999878585, 0.8363601999590173, 0.9884608999709599, 1.084343699971214]",1011.1538287999574,None,1011.1537184499787,None,s261,001,2023-12-12_15h58.56.585,test_typingtask_norepeats,2020.2.10,59.97120182602823,
edthe,edthe,,,,,,,,,0,52,52,52,,,,,,,,,,,,,,,1016.6538729000022,None,"['e', 'd', 't', 'h', 'e']",1,"[0.6723354000132531, 0.8404139999765903, 1.0082739000208676, 1.0483345999964513, 1.1844429000047967]",1016.6538729000022,None,1016.6537344499841,None,s261,001,2023-12-12_15h58.56.585,test_typingtask_norepeats,2020.2.10,59.97120182602823,
haole,haole,,,,,,,,,0,53,53,53,,,,,,,,,,,,,,,1022.1538652000017,None,"['h', 'a', 'o', 'l', 'e']",1,"[0.7644033000105992, 0.8685749999713153, 1.0204430000158027, 1.260427700006403, 1.3404527999809943]",1022.1538652000017,None,1022.1537582499907,None,s261,001,2023-12-12_15h58.56.585,test_typingtask_norepeats,2020.2.10,59.97120182602823,
champ,champ,,,,,,,,,0,54,54,54,,,,,,,,,,,,,,,1027.6539476999897,None,"['c', 'h', 'a', 'm', 'p']",1,"[0.6802463000058196, 0.7684290999895893, 0.9203684999956749, 1.0002484999713488, 1.168209699972067]",1027.6539476999897,None,1027.6537666499964,None,s261,001,2023-12-12_15h58.56.585,test_typingtask_norepeats,2020.2.10,59.97120182602823,
about,about,,,,,,,,,0,55,55,55,,,,,,,,,,,,,,,1033.1539204999572,None,"['a', 'b', 'o', 'u', 't']",1,"[0.684291499957908, 0.7402753999922425, 0.9083913000067696, 1.0524035000125878, 1.172375899972394]",1033.1539204999572,None,1033.1538116499898,None,s261,001,2023-12-12_15h58.56.585,test_typingtask_norepeats,2020.2.10,59.97120182602823,
vodka,vodka,,,,,,,,,0,56,56,56,,,,,,,,,,,,,,,1038.653996500012,None,"['v', 'o', 'd', 'k', 'a']",1,"[0.8481969999847934, 0.9842836000025272, 1.1282195000094362, 1.2322942999890074, 1.3682740000076592]",1038.653996500012,None,1038.653834349988,None,s261,001,2023-12-12_15h58.56.585,test_typingtask_norepeats,2020.2.10,59.97120182602823,
tithe,tithe,,,,,,,,,0,57,57,57,,,,,,,,,,,,,,,1044.1540369999711,None,"['t', 'i', 't', 'h', 'e']",1,"[0.8121688000392169, 0.8841935000382364, 0.9881309000193141, 1.0361269999993965, 1.1401427000528201]",1044.1540369999711,None,1044.153924749978,None,s261,001,2023-12-12_15h58.56.585,test_typingtask_norepeats,2020.2.10,59.97120182602823,
champ,champ,,,,,,,,,0,58,58,58,,,,,,,,,,,,,,,1049.654071099998,None,"['c', 'h', 'a', 'm', 'p']",1,"[0.640114400011953, 0.728237800009083, 0.8960930000175722, 0.9520970999728888, 1.13625320000574]",1049.654071099998,None,1049.6539456499625,None,s261,001,2023-12-12_15h58.56.585,test_typingtask_norepeats,2020.2.10,59.97120182602823,
belly,belly,,,,,,,,,0,59,59,59,,,,,,,,,,,,,,,1055.1541005999898,None,"['b', 'e', 'l', 'l', 'y']",1,"[0.6760320999892429, 0.7640720999916084, 0.8840541000245139, 1.0440840999945067, 1.1562460000277497]",1055.1541005999898,None,1055.1539766499657,None,s261,001,2023-12-12_15h58.56.585,test_typingtask_norepeats,2020.2.10,59.97120182602823,
about,about,,,,,,,,,0,60,60,60,,,,,,,,,,,,,,,1060.6541402000003,None,"['a', 'b', 'o', 'u', 't']",1,"[0.6640423000208102, 0.736034200002905, 0.8881596999708563, 1.04003279999597, 1.152137600001879]",1060.6541402000003,None,1060.6540100499872,None,s261,001,2023-12-12_15h58.56.585,test_typingtask_norepeats,2020.2.10,59.97120182602823,
vodka,vodka,,,,,,,,,0,61,61,61,,,,,,,,,,,,,,,1066.1542001999915,None,"['v', 'o', 'd', 'k', 'a']",1,"[0.8199767000041902, 0.948115199978929, 1.195953999995254, 1.276131099963095, 1.3881015999941155]",1066.1542001999915,None,1066.1540620499757,None,s261,001,2023-12-12_15h58.56.585,test_typingtask_norepeats,2020.2.10,59.97120182602823,
faqir,faqir,,,,,,,,,0,62,62,62,,,,,,,,,,,,,,,1071.654260099982,None,"['f', 'a', 'q', 'i', 'r']",1,"[1.0558948999969289, 1.127882300002966, 1.4159116999944672, 1.5118855999899097, 1.656008199963253]",1071.654260099982,None,1071.6540795499925,None,s261,001,2023-12-12_15h58.56.585,test_typingtask_norepeats,2020.2.10,59.97120182602823,
cooed,cooed,,,,,,,,,0,63,63,63,,,,,,,,,,,,,,,1077.1542340999586,None,"['c', 'o', 'o', 'e', 'd']",1,"[0.7079447999713011, 0.9079037999617867, 1.0519828000105917, 1.0842209999682382, 1.2999442999716848]",1077.1542340999586,None,1077.1541172499885,None,s261,001,2023-12-12_15h58.56.585,test_typingtask_norepeats,2020.2.10,59.97120182602823,
pykka,pykka,,,,,,,,,0,64,64,64,,,,,,,,,,,,,,,1082.654289899976,None,"['p', 'y', 'k', 'k', 'a']",1,"[0.7198441000073217, 0.943868400005158, 1.232027799997013, 1.3760052000288852, 1.4879990000044927]",1082.654289899976,None,1082.6541501500062,None,s261,001,2023-12-12_15h58.56.585,test_typingtask_norepeats,2020.2.10,59.97120182602823,
zibja,zibja,,,,,,,,,0,65,65,65,,,,,,,,,,,,,,,1088.1543034999631,None,"['z', 'i', 'b', 'j', 'a']",1,"[0.939862999948673, 1.035871199972462, 1.275970899965614, 1.42797319998499, 1.5079315999755636]",1088.1543034999631,None,1088.1541574500036,None,s261,001,2023-12-12_15h58.56.585,test_typingtask_norepeats,2020.2.10,59.97120182602823,
think,think,,,,,,,,,0,66,66,66,,,,,,,,,,,,,,,1093.6543067999883,None,"['t', 'h', 'i', 'n', 'k']",1,"[0.6639404000015929, 0.719856699986849, 0.9039100999943912, 1.151967899990268, 1.2718368000350893]",1093.6543067999883,None,1093.6542304499774,None,s261,001,2023-12-12_15h58.56.585,test_typingtask_norepeats,2020.2.10,59.97120182602823,
druze,druze,,,,,,,,,0,67,67,67,,,,,,,,,,,,,,,1099.154366999981,None,"['d', 'r', 'u', 'z', 'e']",1,"[0.8197983000427485, 1.0358674000017345, 1.1479110000072978, 1.2841368000372313, 1.5957734000403434]",1099.154366999981,None,1099.154222749977,None,s261,001,2023-12-12_15h58.56.585,test_typingtask_norepeats,2020.2.10,59.97120182602823,
lucky,lucky,,,,,,,,,0,68,68,68,,,,,,,,,,,,,,,1104.654392700002,None,"['l', 'u', 'c', 'k', 'y']",1,"[0.6798016999964602, 0.8877462000236847, 1.007737800013274, 1.1278670000028796, 1.2878662999719381]",1104.654392700002,None,1104.6542852499872,1104.7543874999974,s261,001,2023-12-12_15h58.56.585,test_typingtask_norepeats,2020.2.10,59.97120182602823,
belly,belly,,,,,,,,,0,69,69,69,,,,,,,,,,,,,,,1110.1544120999752,None,"['b', 'e', 'l', 'l', 'y']",1,"[0.6757449000142515, 0.8038507000310346, 0.8842497000005096, 1.0518249000306241, 1.1398395000142045]",1110.1544120999752,None,1110.1543304499821,1110.2544732000097,s261,001,2023-12-12_15h58.56.585,test_typingtask_norepeats,2020.2.10,59.97120182602823,
therm,therm,,,,,,,,,0,70,70,70,,,,,,,,,,,,,,,1115.65444329998,None,"['t', 'h', 'e', 'r', 'm']",1,"[0.575717400002759, 0.6316648999927565, 0.791705500043463, 0.8156974000157788, 0.9037400000379421]",1115.65444329998,None,1115.6543554499979,1115.754442000005,s261,001,2023-12-12_15h58.56.585,test_typingtask_norepeats,2020.2.10,59.97120182602823,
there,there,,,,,,,,,0,71,71,71,,,,,,,,,,,,,,,1121.1545185999712,None,"['t', 'h', 'e', 'r', 'e']",1,"[0.6436421000398695, 0.7077554000425152, 0.8677787000196986, 0.9477411000407301, 1.0676292000571266]",1121.1545185999712,None,1121.154383149976,1121.2544817999587,s261,001,2023-12-12_15h58.56.585,test_typingtask_norepeats,2020.2.10,59.97120182602823,
edthe,edthe,,,,,,,,,0,72,72,72,,,,,,,,,,,,,,,1126.6545508999843,None,"['e', 'd', 't', 'h', 'e']",1,"[0.7517235000268556, 0.9437025000224821, 1.1115881000296213, 1.159623500017915, 1.3036810000194237]",1126.6545508999843,None,1126.6544338500128,1126.7545501000131,s261,001,2023-12-12_15h58.56.585,test_typingtask_norepeats,2020.2.10,59.97120182602823,
would,would,,,,,,,,,0,73,73,73,,,,,,,,,,,,,,,1132.1546292999992,None,"['w', 'o', 'u', 'l', 'd']",1,"[0.7315112000214867, 0.7955385000095703, 1.0036634000134654, 1.2435708999983035, 1.2995174000388943]",1132.1546292999992,None,1132.1544597499771,1132.2545849999879,s261,001,2023-12-12_15h58.56.585,test_typingtask_norepeats,2020.2.10,59.97120182602823,
belly,belly,,,,,,,,,0,74,74,74,,,,,,,,,,,,,,,1137.6545866999659,None,"['b', 'e', 'l', 'l', 'y']",1,"[0.6876227000029758, 0.7995980000123382, 0.9276503000291996, 1.087691500026267, 1.1756631000316702]",1137.6545866999659,None,1137.6544944500085,1137.7546208999702,s261,001,2023-12-12_15h58.56.585,test_typingtask_norepeats,2020.2.10,59.97120182602823,
puppy,puppy,,,,,,,,,0,75,75,75,,,,,,,,,,,,,,,1143.154617699969,None,"['p', 'u', 'p', 'p', 'y']",1,"[0.6755223000072874, 0.7956829000031576, 0.9556293000350706, 1.1075137000298128, 1.2036227000062354]",1143.154617699969,None,1143.1545181500144,1143.2546516999719,s261,001,2023-12-12_15h58.56.585,test_typingtask_norepeats,2020.2.10,59.97120182602823,
buddy,buddy,,,,,,,,,0,76,76,76,,,,,,,,,,,,,,,1148.6546683000051,None,"['b', 'u', 'd', 'd', 'y']",1,"[0.6635141000151634, 0.8556061999988742, 0.9836579000111669, 1.1194451000192203, 1.1915687000146136]",1148.6546683000051,None,1148.654560549988,1148.7546838999842,s261,001,2023-12-12_15h58.56.585,test_typingtask_norepeats,2020.2.10,59.97120182602823,
druze,druze,,,,,,,,,0,77,77,77,,,,,,,,,,,,,,,1154.1547259999788,None,"['d', 'r', 'u', 'z', 'e']",1,"[0.77139549999265, 0.9953847000142559, 1.059394100040663, 1.24345509998966, 1.4595241000060923]",1154.1547259999788,None,1154.1545832499862,1154.2547024000087,s261,001,2023-12-12_15h58.56.585,test_typingtask_norepeats,2020.2.10,59.97120182602823,
cheer,cheer,,,,,,,,,0,78,78,78,,,,,,,,,,,,,,,1159.6547203999944,None,"['c', 'h', 'e', 'e', 'r']",1,"[0.6554120000218973, 0.759417699999176, 0.9195180999813601, 1.0713918000110425, 1.1835749999736436]",1159.6547203999944,None,1159.6546299499926,1159.7547639000113,s261,001,2023-12-12_15h58.56.585,test_typingtask_norepeats,2020.2.10,59.97120182602823,
haole,haole,,,,,,,,,0,79,79,79,,,,,,,,,,,,,,,1165.15475409996,None,"['h', 'a', 'o', 'l', 'e']",1,"[0.7153875000076368, 0.8594551999703981, 0.9554410999990068, 1.195458600006532, 1.2754275999614038]",1165.15475409996,None,1165.154626849969,1165.2547911999864,s261,001,2023-12-12_15h58.56.585,test_typingtask_norepeats,2020.2.10,59.97120182602823,
kremp,kremp,,,,,,,,,0,80,80,80,,,,,,,,,,,,,,,1170.6548451000126,None,"['k', 'r', 'e', 'm', 'p']",1,"[0.9352773999562487, 1.0312822999549098, 1.1113493999582715, 1.1672485999879427, 1.3673406000016257]",1170.6548451000126,None,1170.654660449992,1170.7548665999784,s261,001,2023-12-12_15h58.56.585,test_typingtask_norepeats,2020.2.10,59.97120182602823,
think,think,,,,,,,,,0,81,81,81,,,,,,,,,,,,,,,1176.1548271999927,None,"['t', 'h', 'i', 'n', 'k']",1,"[0.6513056000112556, 0.7073028000304475, 0.8912715000333264, 1.0194069999852218, 1.1554198000230826]",1176.1548271999927,None,1176.1547444499913,1176.2548247000086,s261,001,2023-12-12_15h58.56.585,test_typingtask_norepeats,2020.2.10,59.97120182602823,
kremp,kremp,,,,,,,,,0,82,82,82,,,,,,,,,,,,,,,1181.6548972000019,None,"['k', 'r', 'e', 'm', 'p']",1,"[0.7352190999663435, 0.871311099966988, 0.9591969000175595, 1.0793183000059798, 1.2393709999741986]",1181.6548972000019,None,1181.6547675499926,1181.7548629000084,s261,001,2023-12-12_15h58.56.585,test_typingtask_norepeats,2020.2.10,59.97120182602823,
heond,heond,,,,,,,,,0,83,83,83,,,,,,,,,,,,,,,1187.1549262999906,None,"['h', 'e', 'o', 'n', 'd']",1,"[0.7391862000222318, 0.8432898999890313, 0.9632189000258222, 1.1553169999970123, 1.2674776000203565]",1187.1549262999906,None,1187.1548078500084,1187.254926399968,s261,001,2023-12-12_15h58.56.585,test_typingtask_norepeats,2020.2.10,59.97120182602823,
edthe,edthe,,,,,,,,,0,84,84,84,,,,,,,,,,,,,,,1192.6549958999967,None,"['e', 'd', 't', 'h', 'e']",1,"[0.655129799968563, 0.8551908999797888, 1.0553570999763906, 1.1032438999973238, 1.2232174999662675]",1192.6549958999967,None,1192.6548822499929,1192.7549718999653,s261,001,2023-12-12_15h58.56.585,test_typingtask_norepeats,2020.2.10,59.97120182602823,
therm,therm,,,,,,,,,0,85,85,85,,,,,,,,,,,,,,,1198.1549976000097,None,"['t', 'h', 'e', 'r', 'm']",1,"[0.7391389000113122, 0.8111139999818988, 0.9552834999631159, 1.0510897999629378, 1.1313576999818906]",1198.1549976000097,None,1198.1548727499787,1198.2549990999978,s261,001,2023-12-12_15h58.56.585,test_typingtask_norepeats,2020.2.10,59.97120182602823,
vanru,vanru,,,,,,,,,0,86,86,86,,,,,,,,,,,,,,,1203.6550024999888,None,"['v', 'a', 'n', 'r', 'u']",1,"[0.7511123000294901, 0.839183900039643, 0.9111266999971122, 1.0790825000149198, 1.1751233999966644]",1203.6550024999888,None,1203.6549046499888,1203.7550309000071,s261,001,2023-12-12_15h58.56.585,test_typingtask_norepeats,2020.2.10,59.97120182602823,
zibja,zibja,,,,,,,,,0,87,87,87,,,,,,,,,,,,,,,1209.1550710999873,None,"['z', 'i', 'b', 'j', 'a']",1,"[0.9630468999966979, 1.0669912000303157, 1.275016100029461, 1.4511548000155017, 1.5151368000078946]",1209.1550710999873,None,1209.1549757500063,1209.2551009999588,s261,001,2023-12-12_15h58.56.585,test_typingtask_norepeats,2020.2.10,59.97120182602823,
haole,haole,,,,,,,,,0,88,88,88,,,,,,,,,,,,,,,1214.6551198000088,None,"['h', 'e', 'o', 'e']",0,"[0.7509841999853961, 0.8709984999732114, 1.006978799996432, 1.2551032999763265]",1214.6551198000088,None,1214.6549407499726,1214.7551122999866,s261,001,2023-12-12_15h58.56.585,test_typingtask_norepeats,2020.2.10,59.97120182602823,
theme,theme,,,,,,,,,0,89,89,89,,,,,,,,,,,,,,,1220.1552187000052,None,"['t', 'h', 'e', 'm', 'e']",1,"[0.650899300002493, 0.7229912999900989, 0.9149969999562018, 1.0028772999648936, 1.1071912999614142]",1220.1552187000052,None,1220.1550200499944,1220.2551326999674,s261,001,2023-12-12_15h58.56.585,test_typingtask_norepeats,2020.2.10,59.97120182602823,
think,think,,,,,,,,,0,90,90,90,,,,,,,,,,,,,,,1225.6551801000023,None,"['t', 'h', 'i', 'n', 'k']",1,"[0.6149375999812037, 0.6789171000127681, 0.86292919999687, 1.0149419999797828, 1.1669046999886632]",1225.6551801000023,None,1225.6550427499926,1225.7551802999806,s261,001,2023-12-12_15h58.56.585,test_typingtask_norepeats,2020.2.10,59.97120182602823,
therm,therm,,,,,,,,,0,91,91,91,,,,,,,,,,,,,,,1231.1552135999664,None,"['t', 'h', 'e', 'r', 'm']",1,"[0.5709035999607295, 0.6429471999872476, 0.7708471999503672, 0.8508989999536425, 0.9229835999431089]",1231.1552135999664,None,1231.1550420499873,1231.2552113999845,s261,001,2023-12-12_15h58.56.585,test_typingtask_norepeats,2020.2.10,59.97120182602823,
would,would,,,,,,,,,0,92,92,92,,,,,,,,,,,,,,,1236.6552097999956,None,"['w', 'o', 'u', 'l', 'd']",1,"[0.6708849999704398, 0.7508791000000201, 0.8869933999958448, 1.143069399986416, 1.278855599986855]",1236.6552097999956,None,1236.6551262499881,1236.7552392999642,s261,001,2023-12-12_15h58.56.585,test_typingtask_norepeats,2020.2.10,59.97120182602823,
about,about,,,,,,,,,0,93,93,93,,,,,,,,,,,,,,,1242.1552817999618,None,"['a', 'b', 'o', 'u', 't']",1,"[0.7468188999919221, 0.8028801999753341, 0.9469012999907136, 1.0910173999727704, 1.218767799960915]",1242.1552817999618,None,1242.1551506499993,1242.2552380000125,s261,001,2023-12-12_15h58.56.585,test_typingtask_norepeats,2020.2.10,59.97120182602823,
cooed,cooed,,,,,,,,,0,94,94,94,,,,,,,,,,,,,,,1247.6553373999777,None,"['c', 'o', 'o', 'e', 'd']",1,"[0.7747598999994807, 0.9348677999805659, 1.0868920999928378, 1.134720699978061, 1.3427375999744982]",1247.6553373999777,None,1247.6551671500085,1247.7553167999722,s261,001,2023-12-12_15h58.56.585,test_typingtask_norepeats,2020.2.10,59.97120182602823,
puppy,puppy,,,,,,,,,0,95,95,95,,,,,,,,,,,,,,,1253.1553491000086,None,"['p', 'u', 'p', 'p', 'y']",1,"[0.7307434999966063, 0.850790299999062, 1.0027094999677502, 1.1707076999591663, 1.2907143000047654]",1253.1553491000086,None,1253.1552201500047,1253.25534839998,s261,001,2023-12-12_15h58.56.585,test_typingtask_norepeats,2020.2.10,59.97120182602823,
about,about,,,,,,,,,0,96,96,96,,,,,,,,,,,,,,,1258.6553352999617,None,"['a', 'b', 'o', 'u', 't']",1,"[0.6547603999497369, 0.7427447999943979, 0.886844199965708, 1.0387912999722175, 1.1747149999719113]",1258.6553352999617,None,1258.65529334998,1258.755382800009,s261,001,2023-12-12_15h58.56.585,test_typingtask_norepeats,2020.2.10,59.97120182602823,
cooed,cooed,,,,,,,,,0,97,97,97,,,,,,,,,,,,,,,1264.1553742999677,None,"['c', 'o', 'o', 'e', 'd']",1,"[0.6427229999681003, 0.8506930999574251, 1.0110299999942072, 1.0507822999497876, 1.2588804999832064]",1264.1553742999677,None,1264.1555844499846,1264.255408899975,s261,001,2023-12-12_15h58.56.585,test_typingtask_norepeats,2020.2.10,59.97120182602823,
there,there,,,,,,,,,0,98,98,98,,,,,,,,,,,,,,,1269.655473199964,None,"['t', 'h', 'e', 'r', 'e']",1,"[0.6065885999705642, 0.7027173999813385, 0.8467197999707423, 0.9026407999917865, 1.0065695000230335]",1269.655473199964,None,1269.655342250003,1269.7554806999979,s261,001,2023-12-12_15h58.56.585,test_typingtask_norepeats,2020.2.10,59.97120182602823,
would,would,,,,,,,,,0,99,99,99,,,,,,,,,,,,,,,1275.1554968999699,None,"['w', 'o', 'o', 'u', 'l', 'd']",0,"[0.738569799985271, 0.9226978999795392, 1.0266809999593534, 1.3225547999609262, 1.6825825999840163, 1.8106818999513052]",1275.1554968999699,None,1275.1553585500108,1275.2554920999683,s261,001,2023-12-12_15h58.56.585,test_typingtask_norepeats,2020.2.10,59.97120182602823,
cheer,cheer,,,,,,,,,0,100,100,100,,,,,,,,,,,,,,,1280.6555007999996,None,"['c', 'h', 'e', 'e', 'r']",1,"[0.6465790999936871, 0.7667162999860011, 0.9024987000157125, 1.062682899995707, 1.1985515999840572]",1280.6555007999996,None,1280.655484849983,1280.7555744000128,s261,001,2023-12-12_15h58.56.585,test_typingtask_norepeats,2020.2.10,59.97120182602823,
haole,haole,,,,,,,,,0,101,101,101,,,,,,,,,,,,,,,1286.1555201999727,None,"['h', 'a', 'o', 'l', 'e']",1,"[0.6585596000077203, 0.7465470000170171, 0.850700200011488, 1.0745699000544846, 1.1385237000067718]",1286.1555201999727,None,1286.1554308499792,1286.2555606999667,s261,001,2023-12-12_15h58.56.585,test_typingtask_norepeats,2020.2.10,59.97120182602823,
zibja,zibja,,,,,,,,,0,102,102,102,,,,,,,,,,,,,,,1291.6555739999749,None,"['z', 'i', 'b', 'j', 'a']",1,"[0.894501400005538, 1.0144822000293061, 1.2624977000523359, 1.4785685000242665, 1.5504814000451006]",1291.6555739999749,None,1291.655435550015,1291.755616199982,s261,001,2023-12-12_15h58.56.585,test_typingtask_norepeats,2020.2.10,59.97120182602823,
druze,druze,,,,,,,,,0,103,103,103,,,,,,,,,,,,,,,1297.155584799999,None,"['d', 'r', 'u', 'z', 'e']",1,"[0.6824955000192858, 0.8905286000226624, 1.0024510999792255, 1.1385835999972187, 1.3306793000083417]",1297.155584799999,None,1297.1555045500165,1297.2556315999827,s261,001,2023-12-12_15h58.56.585,test_typingtask_norepeats,2020.2.10,59.97120182602823,
heond,heond,,,,,,,,,0,104,104,104,,,,,,,,,,,,,,,1302.6556241000071,None,"['h', 'e', 'o', 'n', 'd']",1,"[0.6546602000016719, 0.7744376999908127, 0.9183817000011913, 1.086562699987553, 1.1747943999944255]",1302.6556241000071,None,1302.6555417500088,1302.7556561999954,s261,001,2023-12-12_15h58.56.585,test_typingtask_norepeats,2020.2.10,59.97120182602823,
vodka,vodka,,,,,,,,,0,105,105,105,,,,,,,,,,,,,,,1308.1556952999672,None,"['v', 'o', 'd', 'k', 'a']",1,"[1.042363899992779, 1.1303423999925144, 1.370467100001406, 1.4584774999530055, 1.6103748999885283]",1308.1556952999672,None,1308.1556327500032,1308.2556935999892,s261,001,2023-12-12_15h58.56.585,test_typingtask_norepeats,2020.2.10,59.97120182602823,
theme,theme,,,,,,,,,0,106,106,106,,,,,,,,,,,,,,,1313.6557309000054,None,"['t', 'h', 'e', 'm', 'e']",1,"[0.6943266000016592, 0.7505256999866106, 0.9182815999956802, 1.0146352999727242, 1.1104325000196695]",1313.6557309000054,None,1313.6556629500003,None,s261,001,2023-12-12_15h58.56.585,test_typingtask_norepeats,2020.2.10,59.97120182602823,
cheer,cheer,,,,,,,,,0,107,107,107,,,,,,,,,,,,,,,1319.1557718999684,None,"['c', 'h', 'e', 'e', 'r']",1,"[0.8344624000019394, 0.9223976000212133, 1.0502786000142805, 1.178268100018613, 1.3543858000193723]",1319.1557718999684,None,1319.1556489500101,None,s261,001,2023-12-12_15h58.56.585,test_typingtask_norepeats,2020.2.10,59.97120182602823,
pykka,pykka,,,,,,,,,0,108,108,108,,,,,,,,,,,,,,,1324.6557997000054,None,"['p', 'k', 'k', 'a']",0,"[0.8702556000207551, 1.4542878000065684, 1.5902266000048257, 1.7023457000032067]",1324.6557997000054,None,1324.6556353499648,1324.755808499991,s261,001,2023-12-12_15h58.56.585,test_typingtask_norepeats,2020.2.10,59.97120182602823,
tithe,tithe,,,,,,,,,0,109,109,109,,,,,,,,,,,,,,,1330.1558404999669,None,"['t', 'i', 't', 'h', 'e']",1,"[0.7062115999870002, 0.8182033999473788, 0.8984891999862157, 0.9781851999578066, 1.0901523999636993]",1330.1558404999669,None,1330.1556967499666,None,s261,001,2023-12-12_15h58.56.585,test_typingtask_norepeats,2020.2.10,59.97120182602823,
faqir,faqir,,,,,,,,,0,110,110,110,,,,,,,,,,,,,,,1335.6558758000028,None,"['f', 'a', 'q', 'i', 'r']",1,"[0.782186999975238, 0.8222951000207104, 1.1182426000013947, 1.1741501999786124, 1.3021786999888718]",1335.6558758000028,None,1335.6557216499816,1335.7558771999902,s261,001,2023-12-12_15h58.56.585,test_typingtask_norepeats,2020.2.10,59.97120182602823,
lucky,lucky,,,,,,,,,0,111,111,111,,,,,,,,,,,,,,,1341.1559075000114,None,"['l', 'u', 'c', 'k', 'y']",1,"[0.778148700017482, 1.002109399996698, 1.1302907000062987, 1.2342498999787495, 1.458105199970305]",1341.1559075000114,None,1341.1558058499825,None,s261,001,2023-12-12_15h58.56.585,test_typingtask_norepeats,2020.2.10,59.97120182602823,
druze,druze,,,,,,,,,0,112,112,112,,,,,,,,,,,,,,,1346.6559457000112,None,"['d', 'r', 'u', 'z', 'e']",1,"[0.6380999999819323, 0.8781991999712773, 0.9422039999626577, 1.1501990999677218, 1.3260871999664232]",1346.6559457000112,None,1346.6558050499764,1346.7559451999841,s261,001,2023-12-12_15h58.56.585,test_typingtask_norepeats,2020.2.10,59.97120182602823,
tithe,tithe,,,,,,,,,0,113,113,113,,,,,,,,,,,,,,,1352.1559733999893,None,"['t', 'i', 't', 'h', 'e']",1,"[0.6581199000356719, 0.7381968999980018, 0.8501836000359617, 0.9142531999968924, 1.02623560000211]",1352.1559733999893,None,1352.1559011500096,1352.2560072999913,s261,001,2023-12-12_15h58.56.585,test_typingtask_norepeats,2020.2.10,59.97120182602823,
buddy,buddy,,,,,,,,,0,114,114,114,,,,,,,,,,,,,,,1357.6559719999786,None,"['b', 'u', 'd', 'd', 'y']",1,"[0.6540760000352748, 0.8460645000450313, 0.9421069000381976, 1.1020605000085197, 1.1101098000071943]",1357.6559719999786,None,1357.6558515499812,None,s261,001,2023-12-12_15h58.56.585,test_typingtask_norepeats,2020.2.10,59.97120182602823,
champ,champ,,,,,,,,,0,115,115,115,,,,,,,,,,,,,,,1363.1560577999917,None,"['c', 'h', 'a', 'm', 'p']",1,"[0.7460469999932684, 0.8340050000115298, 0.9460745999822393, 1.0741043000016361, 1.2420897000120021]",1363.1560577999917,None,1363.1558928500046,1363.2560918999952,s261,001,2023-12-12_15h58.56.585,test_typingtask_norepeats,2020.2.10,59.97120182602823,
edthe,edthe,,,,,,,,,0,116,116,116,,,,,,,,,,,,,,,1368.6560805999907,None,"['e', 'd', 'h', 't', 'e']",0,"[0.7339603999862447, 0.9340276999864727, 1.0300487999920733, 1.158063500013668, 1.3420687000034377]",1368.6560805999907,None,1368.655961550004,1368.756079899962,s261,001,2023-12-12_15h58.56.585,test_typingtask_norepeats,2020.2.10,59.97120182602823,
heond,heond,,,,,,,,,0,117,117,117,,,,,,,,,,,,,,,1374.156120300002,None,"['h', 'e', 'o', 'n', 'd']",1,"[0.7059051999822259, 0.7859989000135101, 0.93802980001783, 1.1298917999956757, 1.22600229998352]",1374.156120300002,None,1374.15597765001,1374.2561161000049,s261,001,2023-12-12_15h58.56.585,test_typingtask_norepeats,2020.2.10,59.97120182602823,
cheer,cheer,,,,,,,,,0,118,118,118,,,,,,,,,,,,,,,1379.6561512000044,None,"['c', 'h', 'e', 'e', 'r']",1,"[0.669876599975396, 0.7578565999865532, 0.8858485000091605, 1.045963499986101, 1.1659981000120752]",1379.6561512000044,None,1379.6560462500086,1379.7561455999967,s261,001,2023-12-12_15h58.56.585,test_typingtask_norepeats,2020.2.10,59.97120182602823,
heond,heond,,,,,,,,,0,119,119,119,,,,,,,,,,,,,,,1385.1561924999696,None,"['h', 'e', 'o', 'n', 'd']",1,"[0.6578289000317454, 0.7378183000255376, 0.9298328000004403, 1.113932600012049, 1.201786500052549]",1385.1561924999696,None,1385.1560700500152,1385.2561847000034,s261,001,2023-12-12_15h58.56.585,test_typingtask_norepeats,2020.2.10,59.97120182602823,
