string,corrAns,practice_trials.thisRepN,practice_trials.thisTrialN,practice_trials.thisN,practice_trials.thisIndex,trials_1.thisRepN,trials_1.thisTrialN,trials_1.thisN,trials_1.thisIndex,trials_2.thisRepN,trials_2.thisTrialN,trials_2.thisN,trials_2.thisIndex,key_resp_0.keys,key_resp_0.corr,key_resp_0.rt,text_1.started,text_1.stopped,key_resp_1.keys,key_resp_1.corr,key_resp_1.rt,key_resp_1.started,key_resp_1.stopped,sound_1A_1.started,sound_1A_1.stopped,break_time.started,break_time.stopped,text_2.started,text_2.stopped,key_resp_2.keys,key_resp_2.corr,key_resp_2.rt,key_resp_2.started,key_resp_2.stopped,sound_1A_2.started,sound_1A_2.stopped,participant,session,date,expName,psychopyVersion,frameRate,
fresh,fresh,0,0,0,0,,,,,,,,,"['f', 'r', 'e', 's', 'h']",1,"[1.3986121000000367, 1.5746291999998903, 1.6626134999999067, 1.8467395000000124, 1.9346204000000853]",,,,,,,,,,,,,,,,,,,,,s262,001,2024-01-23_09h23.24.580,test_typingtask_norepeats,2020.2.10,59.94592877231574,
dream,dream,0,1,1,1,,,,,,,,,"['d', 'r', 'e', 'a', 'm']",1,"[1.1306013000000803, 1.2905737999999474, 1.3707816000001003, 1.4266807999999855, 1.5147036999999273]",,,,,,,,,,,,,,,,,,,,,s262,001,2024-01-23_09h23.24.580,test_typingtask_norepeats,2020.2.10,59.94592877231574,
slime,slime,0,2,2,2,,,,,,,,,"['s', 'k', 'l', 'i', 'm', 'e']",0,"[1.0625997000001917, 1.2064874000000145, 2.046581500000002, 2.2706889000000956, 2.3346918000002006, 2.414697500000102]",,,,,,,,,,,,,,,,,,,,,s262,001,2024-01-23_09h23.24.580,test_typingtask_norepeats,2020.2.10,59.94592877231574,
haole,haole,,,,,0,0,0,0,,,,,,,,142.45538880000004,None,"['h', 'a', 'o', 'l', 'e']",1,"[1.1745160000000396, 1.310678899999857, 1.502486699999963, 1.7024260999999115, 1.7744619999998577]",142.45538880000004,None,142.45454743000005,142.55466980000006,,,,,,,,,,,,s262,001,2024-01-23_09h23.24.580,test_typingtask_norepeats,2020.2.10,59.94592877231574,
edthe,edthe,,,,,0,1,1,1,,,,,,,,147.95468989999995,None,"['e', 'd', 't', 'h', 'e']",1,"[0.9872064000001046, 1.139181199999939, 1.3471440999999231, 1.4591525999999249, 1.5631676999998945]",147.95468989999995,None,147.9545641300001,None,,,,,,,,,,,,s262,001,2024-01-23_09h23.24.580,test_typingtask_norepeats,2020.2.10,59.94592877231574,
would,would,,,,,0,2,2,2,,,,,,,,153.4547047000001,None,"['w', 'o', 'u', 'l', 'd']",1,"[0.8231757000000925, 1.055151300000034, 1.1191488000001755, 1.3431717000000845, 1.431160600000112]",153.4547047000001,None,153.45459202999996,None,,,,,,,,,,,,s262,001,2024-01-23_09h23.24.580,test_typingtask_norepeats,2020.2.10,59.94592877231574,
heond,heond,,,,,0,3,3,3,,,,,,,,158.9547192,None,"['h', 'e', 'o', 'n', 'd']",1,"[1.4990688000000318, 1.6512445000000753, 1.7711134999999558, 1.8674009999999726, 1.9871090999999979]",158.9547192,None,158.95456762999993,None,,,,,,,,,,,,s262,001,2024-01-23_09h23.24.580,test_typingtask_norepeats,2020.2.10,59.94592877231574,
druze,druze,,,,,0,4,4,4,,,,,,,,164.4547242000001,None,"['d', 'r', 'u', 'z', 'e']",1,"[0.6471228999998857, 0.8392809999998008, 0.959090999999944, 1.1271002999999382, 1.271092899999985]",164.4547242000001,None,164.45458482999993,None,,,,,,,,,,,,s262,001,2024-01-23_09h23.24.580,test_typingtask_norepeats,2020.2.10,59.94592877231574,
kremp,kremp,,,,,0,5,5,5,,,,,,,,169.95546549999995,None,"['k', 'r', 'e', 'm', 'p']",1,"[1.1543699000001197, 1.2823016000002099, 1.346365300000116, 1.458355900000015, 1.658381800000143]",169.95546549999995,None,169.9545896300001,None,,,,,,,,,,,,s262,001,2024-01-23_09h23.24.580,test_typingtask_norepeats,2020.2.10,59.94592877231574,
tithe,tithe,,,,,0,6,6,6,,,,,,,,175.45475520000014,None,"['t', 'i', 't', 'h', 'e']",1,"[0.735060699999849, 0.8551354999999603, 0.9830764999999246, 1.079067699999996, 1.1991408999999749]",175.45475520000014,None,175.45463762999998,None,,,,,,,,,,,,s262,001,2024-01-23_09h23.24.580,test_typingtask_norepeats,2020.2.10,59.94592877231574,
haole,haole,,,,,0,7,7,7,,,,,,,,180.9547795000001,None,"['h', 'a', 'o', 'l', 'e']",1,"[0.8750287000000299, 0.9550194000000829, 1.1471289999999499, 1.3310578999999052, 1.387032500000032]",180.9547795000001,None,180.95463633000008,None,,,,,,,,,,,,s262,001,2024-01-23_09h23.24.580,test_typingtask_norepeats,2020.2.10,59.94592877231574,
would,would,,,,,0,8,8,8,,,,,,,,186.45478350000008,None,"['w', 'o', 'u', 'l', 'd']",1,"[0.5429500000000189, 0.7350229999999556, 0.7829755000000205, 1.0310730999999578, 1.0950851000000057]",186.45478350000008,None,186.45459963000008,None,,,,,,,,,,,,s262,001,2024-01-23_09h23.24.580,test_typingtask_norepeats,2020.2.10,59.94592877231574,
puppy,puppy,,,,,0,9,9,9,,,,,,,,191.95478079999998,None,"['p', 'u', 'p', 'p', 'y']",1,"[0.8352092000000084, 1.0910185000000183, 1.2589792000001125, 1.38709259999996, 1.5950333000000683]",191.95478079999998,None,191.95462883000005,None,,,,,,,,,,,,s262,001,2024-01-23_09h23.24.580,test_typingtask_norepeats,2020.2.10,59.94592877231574,
pykka,pykka,,,,,0,10,10,10,,,,,,,,197.45477410000012,None,"['p', 'y', 'l', 'k']",0,"[1.1351366999999755, 1.390972500000089, 2.2230160000001433, 2.7749749000001884]",197.45477410000012,None,197.4546624300001,None,,,,,,,,,,,,s262,001,2024-01-23_09h23.24.580,test_typingtask_norepeats,2020.2.10,59.94592877231574,
buddy,buddy,,,,,0,11,11,11,,,,,,,,202.95481259999997,None,"['b', 'u', 'd', 'd', 'y']",1,"[0.762979100000166, 0.9149159000000964, 1.0670076999999765, 1.2029473000000053, 1.2908962000001338]",202.95481259999997,None,202.95462533,None,,,,,,,,,,,,s262,001,2024-01-23_09h23.24.580,test_typingtask_norepeats,2020.2.10,59.94592877231574,
theme,theme,,,,,0,12,12,12,,,,,,,,208.45479560000012,None,"['t', 'h', 'e', 'm', 'e']",1,"[0.6550078000000212, 0.7831032999999934, 0.9109946999999465, 1.007002600000078, 1.0952657000000272]",208.45479560000012,None,208.45464502999994,None,,,,,,,,,,,,s262,001,2024-01-23_09h23.24.580,test_typingtask_norepeats,2020.2.10,59.94592877231574,
buddy,buddy,,,,,0,13,13,13,,,,,,,,213.95484030000011,None,"['b', 'u', 'd', 'd', 'y']",1,"[0.698932700000114, 0.851023400000031, 1.0028522000000066, 1.1469046000001981, 1.2189029000001028]",213.95484030000011,None,213.9546816300001,None,,,,,,,,,,,,s262,001,2024-01-23_09h23.24.580,test_typingtask_norepeats,2020.2.10,59.94592877231574,
would,would,,,,,0,14,14,14,,,,,,,,219.4548244,None,"['w', 'o', 'u', 'l', 'd']",1,"[0.6549329999998008, 0.8550387999998748, 0.9351686999998492, 1.182973999999831, 1.294958299999962]",219.4548244,None,219.45466633,None,,,,,,,,,,,,s262,001,2024-01-23_09h23.24.580,test_typingtask_norepeats,2020.2.10,59.94592877231574,
pykka,pykka,,,,,0,15,15,15,,,,,,,,224.95483390000004,None,"['p', 'y', 'k', 'k', 'a']",1,"[1.0349201999999877, 1.3068855999999869, 1.8589238000001842, 2.0270750000001954, 2.514901400000099]",224.95483390000004,None,224.95465482999998,None,,,,,,,,,,,,s262,001,2024-01-23_09h23.24.580,test_typingtask_norepeats,2020.2.10,59.94592877231574,
zibja,zibja,,,,,0,16,16,16,,,,,,,,230.4548155,None,"['z', 'i', 'b', 'j', 'a']",1,"[1.1109175999999934, 1.2629784999999174, 1.4789513999999144, 1.6869054999999662, 1.77490019999982]",230.4548155,None,230.4547309300001,None,,,,,,,,,,,,s262,001,2024-01-23_09h23.24.580,test_typingtask_norepeats,2020.2.10,59.94592877231574,
theme,theme,,,,,0,17,17,17,,,,,,,,235.9548102000001,None,"['t', 'h', 'e', 'm', 'e']",1,"[0.5789113999999245, 0.6991108999998232, 0.8349237999998422, 0.9470057999999426, 1.0268800999999712]",235.9548102000001,None,235.95471982999993,None,,,,,,,,,,,,s262,001,2024-01-23_09h23.24.580,test_typingtask_norepeats,2020.2.10,59.94592877231574,
druze,druze,,,,,0,18,18,18,,,,,,,,241.45486830000004,None,"['d', 'r', 'u', 'z', 'e']",1,"[0.7588685999999143, 0.9348565000000235, 1.0628394999998818, 1.1828302999999778, 1.3350235999998858]",241.45486830000004,None,241.45471733,None,,,,,,,,,,,,s262,001,2024-01-23_09h23.24.580,test_typingtask_norepeats,2020.2.10,59.94592877231574,
tithe,tithe,,,,,0,19,19,19,,,,,,,,246.95485239999994,None,"['t', 'i', 't', 'h', 'e']",1,"[0.6828579000000445, 0.9708067999999912, 1.1150579000000107, 1.2349047000000155, 1.3228057999999692]",246.95485239999994,None,246.95473233000007,None,,,,,,,,,,,,s262,001,2024-01-23_09h23.24.580,test_typingtask_norepeats,2020.2.10,59.94592877231574,
therm,therm,,,,,0,20,20,20,,,,,,,,252.45486890000006,None,"['t', 'h', 'e', 'r', 'm']",1,"[0.8708349000000908, 0.9908030999999937, 1.0388920999998845, 1.1188085999999657, 1.334760899999992]",252.45486890000006,None,252.45474543,None,,,,,,,,,,,,s262,001,2024-01-23_09h23.24.580,test_typingtask_norepeats,2020.2.10,59.94592877231574,
zibja,zibja,,,,,0,21,21,21,,,,,,,,257.9548324,None,"['z', 'i', 'b', 'j', 'a']",1,"[0.6348301999998966, 0.770889200000056, 0.9548451999999088, 1.1468394999999418, 1.227009100000032]",257.9548324,None,257.95474283,None,,,,,,,,,,,,s262,001,2024-01-23_09h23.24.580,test_typingtask_norepeats,2020.2.10,59.94592877231574,
cheer,cheer,,,,,0,22,22,22,,,,,,,,263.4548434999999,None,"['c', 'h', 'e', 'e', 'r']",1,"[0.5428460000000541, 0.7268327000001591, 0.7909309000001485, 0.958938900000021, 1.0628203000001122]",263.4548434999999,None,263.45475863,None,,,,,,,,,,,,s262,001,2024-01-23_09h23.24.580,test_typingtask_norepeats,2020.2.10,59.94592877231574,
there,there,,,,,0,23,23,23,,,,,,,,268.9548652000001,None,"['t', 'h', 'e', 'r', 'e']",1,"[0.5868272000000161, 0.7150222000000213, 0.786931500000037, 0.8587604000001647, 0.9549099000000751]",268.9548652000001,None,268.95476323,None,,,,,,,,,,,,s262,001,2024-01-23_09h23.24.580,test_typingtask_norepeats,2020.2.10,59.94592877231574,
therm,therm,,,,,0,24,24,24,,,,,,,,274.45487649999995,None,"['t', 'h', 'e', 'r', 'm']",1,"[0.6307901999998649, 0.8467512999998235, 0.9027102000000014, 0.9828739999998106, 1.2469552000000022]",274.45487649999995,None,274.4547768300001,274.55489149999994,,,,,,,,,,,,s262,001,2024-01-23_09h23.24.580,test_typingtask_norepeats,2020.2.10,59.94592877231574,
theme,theme,,,,,0,25,25,25,,,,,,,,279.9548794,None,"['t', 'h', 'e', 'm', 'e']",1,"[0.530791200000067, 0.6267688000000362, 0.7388733000000229, 0.867013199999974, 0.9067585000000236]",279.9548794,None,279.95476883000015,280.0548642000001,,,,,,,,,,,,s262,001,2024-01-23_09h23.24.580,test_typingtask_norepeats,2020.2.10,59.94592877231574,
would,would,,,,,0,26,26,26,,,,,,,,285.45492719999993,None,"['w', 'o', 'u', 'l', 'd']",1,"[0.6627104000001509, 0.8787119000000985, 0.9348337000001266, 1.182706600000074, 1.2947024000000056]",285.45492719999993,None,285.45473543,285.55484580000007,,,,,,,,,,,,s262,001,2024-01-23_09h23.24.580,test_typingtask_norepeats,2020.2.10,59.94592877231574,
kremp,kremp,,,,,0,27,27,27,,,,,,,,290.9549036000001,None,"['k', 'r', 'e', 'm', 'p']",1,"[0.7547374999999192, 0.8587423999999828, 0.9468179000000418, 1.0586905000000115, 1.1788033000000269]",290.9549036000001,None,290.95473762999995,291.05491640000014,,,,,,,,,,,,s262,001,2024-01-23_09h23.24.580,test_typingtask_norepeats,2020.2.10,59.94592877231574,
think,think,,,,,0,28,28,28,,,,,,,,296.4549055,None,"['t', 'h', 'i', 'n', 'k']",1,"[0.6946781000001465, 0.7828635000000759, 0.8549198000000615, 0.9986689000002116, 1.0947405000001709]",296.4549055,None,296.45479903,None,,,,,,,,,,,,s262,001,2024-01-23_09h23.24.580,test_typingtask_norepeats,2020.2.10,59.94592877231574,
puppy,puppy,,,,,0,29,29,29,,,,,,,,301.9549178,None,"['p', 'u', 'p', 'p', 'y']",1,"[0.8426961000000119, 1.0746796000000813, 1.2667791999999736, 1.4028505999999652, 1.61071179999999]",301.9549178,None,301.95479133000003,302.0548731000001,,,,,,,,,,,,s262,001,2024-01-23_09h23.24.580,test_typingtask_norepeats,2020.2.10,59.94592877231574,
lucky,lucky,,,,,0,30,30,30,,,,,,,,307.4549572000001,None,"['l', 'u', 'c', 'k', 'y']",1,"[0.7026855999999952, 0.9186568000000079, 1.062815799999953, 1.1426065000000563, 1.318726100000049]",307.4549572000001,None,307.45478292999996,None,,,,,,,,,,,,s262,001,2024-01-23_09h23.24.580,test_typingtask_norepeats,2020.2.10,59.94592877231574,
haole,haole,,,,,0,31,31,31,,,,,,,,312.9549208000001,None,"['h', 'a', 'o', 'l', 'e']",1,"[0.6746725999998944, 0.8508830000000671, 0.9466623000000709, 1.122605799999974, 1.218865600000072]",312.9549208000001,None,312.9547882300001,None,,,,,,,,,,,,s262,001,2024-01-23_09h23.24.580,test_typingtask_norepeats,2020.2.10,59.94592877231574,
think,think,,,,,0,32,32,32,,,,,,,,318.4549426000001,None,"['t', 'h', 'i', 'n', 'k', 'f']",0,"[0.694640500000105, 0.790628100000049, 0.8786089000000175, 0.9906367000000955, 1.1026435999999649, 1.3588039000001118]",318.4549426000001,None,318.45480043,None,,,,,,,,,,,,s262,001,2024-01-23_09h23.24.580,test_typingtask_norepeats,2020.2.10,59.94592877231574,
puppy,puppy,,,,,0,33,33,33,,,,,,,,323.9549340000001,None,"['p', 'u', 'p', 'p', 'y']",1,"[0.7786516999999549, 0.9946304999998574, 1.1387591999998676, 1.282617000000073, 1.4027476999999635]",323.9549340000001,None,323.9547971300001,None,,,,,,,,,,,,s262,001,2024-01-23_09h23.24.580,test_typingtask_norepeats,2020.2.10,59.94592877231574,
lucky,lucky,,,,,0,34,34,34,,,,,,,,329.4549581000001,None,"['l', 'u', 'c', 'k', 'y']",1,"[0.6386339999999109, 0.8705976000001101, 1.0306021999999757, 1.1105867999999646, 1.3106282000001102]",329.4549581000001,None,329.4549424300001,None,,,,,,,,,,,,s262,001,2024-01-23_09h23.24.580,test_typingtask_norepeats,2020.2.10,59.94592877231574,
think,think,,,,,0,35,35,35,,,,,,,,334.95496449999996,None,"['t', 'h', 'i', 'n', 'k', 'f']",0,"[0.5785941000001458, 0.6585943000000043, 0.738564100000076, 0.8746852000001581, 0.9786859000000732, 1.1945717000000968]",334.95496449999996,None,334.95477843000003,None,,,,,,,,,,,,s262,001,2024-01-23_09h23.24.580,test_typingtask_norepeats,2020.2.10,59.94592877231574,
faqir,faqir,,,,,0,36,36,36,,,,,,,,340.45496500000013,None,"['f', 'a', 'q', 'u', 'i', 'r']",0,"[0.9185835000000679, 1.5587511999999606, 1.790590100000145, 1.9265990999999758, 2.766617799999949, 2.774460500000032]",340.45496500000013,None,340.45481793,None,,,,,,,,,,,,s262,001,2024-01-23_09h23.24.580,test_typingtask_norepeats,2020.2.10,59.94592877231574,
belly,belly,,,,,0,37,37,37,,,,,,,,345.9549552000001,None,"['b', 'e', 'l', 'l', 'y']",1,"[0.6346619000000828, 0.7626528999999209, 0.8505635999999868, 0.9946153999999297, 1.1226802999999563]",345.9549552000001,None,345.95479003000014,None,,,,,,,,,,,,s262,001,2024-01-23_09h23.24.580,test_typingtask_norepeats,2020.2.10,59.94592877231574,
heond,heond,,,,,0,38,38,38,,,,,,,,351.45497090000003,None,"['h', 'e', 'o', 'n', 'd']",1,"[0.5985603999999967, 0.7025650000000496, 0.830643499999951, 0.9265728000000308, 1.0545666999998957]",351.45497090000003,None,351.4548031300001,None,,,,,,,,,,,,s262,001,2024-01-23_09h23.24.580,test_typingtask_norepeats,2020.2.10,59.94592877231574,
about,about,,,,,0,39,39,39,,,,,,,,356.9549167,None,"['a', 'b', 'o', 'u', 't']",1,"[0.4986134000000675, 0.7066148999999768, 0.8185565999999653, 0.9145963000000847, 1.026581300000089]",356.9549167,None,356.95479673,None,,,,,,,,,,,,s262,001,2024-01-23_09h23.24.580,test_typingtask_norepeats,2020.2.10,59.94592877231574,
cheer,cheer,,,,,0,40,40,40,,,,,,,,362.45498240000006,None,"['c', 'h', 'e', 'e', 'r']",1,"[0.5905046000000311, 0.7346107999999276, 0.8706463999999414, 1.0064956999999595, 1.102562300000045]",362.45498240000006,None,362.4548493300001,None,,,,,,,,,,,,s262,001,2024-01-23_09h23.24.580,test_typingtask_norepeats,2020.2.10,59.94592877231574,
champ,champ,,,,,0,41,41,41,,,,,,,,367.95497150000006,None,"['c', 'h', 'a', 'm', 'p']",1,"[0.5625267999998869, 0.6745250999999826, 0.7784833999999137, 0.9145136999998158, 1.0585186999999223]",367.95497150000006,None,367.95488163000005,None,,,,,,,,,,,,s262,001,2024-01-23_09h23.24.580,test_typingtask_norepeats,2020.2.10,59.94592877231574,
therm,therm,,,,,0,42,42,42,,,,,,,,373.4549879000001,None,"['t', 'h', 'e', 'r', 'm']",1,"[0.766478300000017, 0.8787130000000616, 0.9746483999999782, 1.0385933000000023, 1.2784986000001481]",373.4549879000001,None,373.45485282999994,None,,,,,,,,,,,,s262,001,2024-01-23_09h23.24.580,test_typingtask_norepeats,2020.2.10,59.94592877231574,
heond,heond,,,,,0,43,43,43,,,,,,,,378.95500659999993,None,"['h', 'e', 'o', 'n', 'd']",1,"[0.5944690000001174, 0.7223745000001145, 0.8264517000000069, 0.9065120000000206, 1.042434200000116]",378.95500659999993,None,378.95487163000007,None,,,,,,,,,,,,s262,001,2024-01-23_09h23.24.580,test_typingtask_norepeats,2020.2.10,59.94592877231574,
think,think,,,,,0,44,44,44,,,,,,,,384.45501179999997,None,"['t', 'h', 'i', 'n', 'k']",1,"[0.6384771000000455, 0.7423734999999851, 0.8304981000001135, 0.9425619000001006, 1.0465613999999732]",384.45501179999997,None,384.45487903000003,None,,,,,,,,,,,,s262,001,2024-01-23_09h23.24.580,test_typingtask_norepeats,2020.2.10,59.94592877231574,
lucky,lucky,,,,,0,45,45,45,,,,,,,,389.95503929999995,None,"['l', 'u', 'c', 'k', 'y']",1,"[0.6505630000001474, 0.8425901000000522, 0.9704515000000811, 1.0504825000000437, 1.234386699999959]",389.95503929999995,None,389.95489612999995,None,,,,,,,,,,,,s262,001,2024-01-23_09h23.24.580,test_typingtask_norepeats,2020.2.10,59.94592877231574,
buddy,buddy,,,,,0,46,46,46,,,,,,,,395.4550320000001,None,"['b', 'u', 'd', 'd', 'y']",1,"[0.6544182999998611, 0.774378299999853, 0.9264037999998891, 1.0544029000000137, 1.2464061000000584]",395.4550320000001,None,395.4549003300001,None,,,,,,,,,,,,s262,001,2024-01-23_09h23.24.580,test_typingtask_norepeats,2020.2.10,59.94592877231574,
vanru,vanru,,,,,0,47,47,47,,,,,,,,400.9550156,None,"['v', 'a', 'n', 'r', 'u']",1,"[0.7304242000000158, 0.8984206999998605, 0.9863947999999709, 1.1304058999999143, 1.242513899999949]",400.9550156,None,400.95490272999996,None,,,,,,,,,,,,s262,001,2024-01-23_09h23.24.580,test_typingtask_norepeats,2020.2.10,59.94592877231574,
about,about,,,,,0,48,48,48,,,,,,,,406.4550335000001,None,"['a', 'b', 'o', 'u', 't']",1,"[0.5344577000000754, 0.7343757999999525, 0.8383891000000858, 0.9103701999999885, 1.0304932999999892]",406.4550335000001,None,406.45493633,None,,,,,,,,,,,,s262,001,2024-01-23_09h23.24.580,test_typingtask_norepeats,2020.2.10,59.94592877231574,
champ,champ,,,,,0,49,49,49,,,,,,,,411.95503600000006,None,"['c', 'h', 'a', 'm', 'p']",1,"[0.5383822999999666, 0.6505503999999291, 0.7543433999999252, 0.89038759999994, 0.9863623999999618]",411.95503600000006,None,411.95488473,None,,,,,,,,,,,,s262,001,2024-01-23_09h23.24.580,test_typingtask_norepeats,2020.2.10,59.94592877231574,
lucky,lucky,,,,,0,50,50,50,,,,,,,,417.45501230000013,None,"['l', 'u', 'c', 'k', 'y']",1,"[0.5903524999998808, 0.7903790000000299, 0.9023678000000928, 0.9983978000000207, 1.1583565999999337]",417.45501230000013,None,417.45493403,None,,,,,,,,,,,,s262,001,2024-01-23_09h23.24.580,test_typingtask_norepeats,2020.2.10,59.94592877231574,
would,would,,,,,0,51,51,51,,,,,,,,422.9550263000001,None,"['w', 'o', 'u', 'l', 'd']",1,"[0.5303687999999056, 0.682352599999831, 0.7305266999999276, 1.002375499999971, 1.1143460999999206]",422.9550263000001,None,422.95493882999995,None,,,,,,,,,,,,s262,001,2024-01-23_09h23.24.580,test_typingtask_norepeats,2020.2.10,59.94592877231574,
belly,belly,,,,,0,52,52,52,,,,,,,,428.4550739000001,None,"['b', 'e', 'l', 'l', 'y']",1,"[0.622312299999976, 0.8142855999999483, 0.8623520999999528, 0.9982883999998649, 1.0942790999999943]",428.4550739000001,None,428.4549447300001,None,,,,,,,,,,,,s262,001,2024-01-23_09h23.24.580,test_typingtask_norepeats,2020.2.10,59.94592877231574,
heond,heond,,,,,0,53,53,53,,,,,,,,433.9550696000001,None,"['h', 'e', 'o', 'n', 'd']",1,"[0.586312899999939, 0.6743283999999221, 0.7943316000000777, 0.8903026999998929, 0.9943602999999257]",433.9550696000001,None,433.95495303000007,None,,,,,,,,,,,,s262,001,2024-01-23_09h23.24.580,test_typingtask_norepeats,2020.2.10,59.94592877231574,
cooed,cooed,,,,,0,54,54,54,,,,,,,,439.45513129999995,None,"['c', 'o', 'o', 'e', 'd']",1,"[0.6062455999999656, 0.7103501999999935, 0.8463371000000279, 0.9342206999999689, 1.014230600000019]",439.45513129999995,None,439.45498133,None,,,,,,,,,,,,s262,001,2024-01-23_09h23.24.580,test_typingtask_norepeats,2020.2.10,59.94592877231574,
zibja,zibja,,,,,0,55,55,55,,,,,,,,444.95506810000006,None,"['z', 'i', 'b', 'j', 'a']",1,"[0.6264535000000251, 0.7623115999999754, 1.0184421999999813, 1.1942822999999407, 1.3142588999999134]",444.95506810000006,None,444.95497303,None,,,,,,,,,,,,s262,001,2024-01-23_09h23.24.580,test_typingtask_norepeats,2020.2.10,59.94592877231574,
there,there,,,,,0,56,56,56,,,,,,,,450.45512150000013,None,"['t', 'h', 'e', 'r', 'e']",1,"[0.6222351999999773, 0.7583646999999019, 0.8382146999999804, 0.89432869999996, 0.990213199999971]",450.45512150000013,None,450.45499133,None,,,,,,,,,,,,s262,001,2024-01-23_09h23.24.580,test_typingtask_norepeats,2020.2.10,59.94592877231574,
cheer,cheer,,,,,0,57,57,57,,,,,,,,455.9550876999999,None,"['c', 'h', 'e', 'e', 'r']",1,"[0.5302537000000029, 0.6662959000000228, 0.7783412000001135, 0.914271699999972, 1.010311700000102]",455.9550876999999,None,455.95499383000015,None,,,,,,,,,,,,s262,001,2024-01-23_09h23.24.580,test_typingtask_norepeats,2020.2.10,59.94592877231574,
haole,haole,,,,,0,58,58,58,,,,,,,,461.45509259999994,None,"['h', 'a', 'o', 'l', 'e']",1,"[0.710244700000203, 0.8143475000001672, 0.9102139999999963, 1.0781789000000117, 1.1503500000001168]",461.45509259999994,None,461.45500102999995,None,,,,,,,,,,,,s262,001,2024-01-23_09h23.24.580,test_typingtask_norepeats,2020.2.10,59.94592877231574,
belly,belly,,,,,0,59,59,59,,,,,,,,466.9551334,None,"['b', 'e', 'l', 'l', 'y']",1,"[0.5623964000001251, 0.7062518000000182, 0.7782401000001755, 0.9221961000000647, 1.0342826000000969]",466.9551334,None,466.95505793000007,None,,,,,,,,,,,,s262,001,2024-01-23_09h23.24.580,test_typingtask_norepeats,2020.2.10,59.94592877231574,
champ,champ,,,,,0,60,60,60,,,,,,,,472.4551179,None,"['c', 'h', 'a', 'm', 'p']",1,"[0.6221983000000364, 0.7581896000001507, 0.8541612000001351, 0.9902426000001014, 1.0942786000000524]",472.4551179,None,472.45499502999996,None,,,,,,,,,,,,s262,001,2024-01-23_09h23.24.580,test_typingtask_norepeats,2020.2.10,59.94592877231574,
zibja,zibja,,,,,0,61,61,61,,,,,,,,477.9551584000001,None,"['z', 'i', 'b', 'j', 'a']",1,"[0.6023298000000068, 0.7302392000001419, 0.8983118000001014, 1.0101624000001266, 1.114067200000136]",477.9551584000001,None,477.9550098300001,None,,,,,,,,,,,,s262,001,2024-01-23_09h23.24.580,test_typingtask_norepeats,2020.2.10,59.94592877231574,
belly,belly,,,,,0,62,62,62,,,,,,,,483.45589330000007,None,"['b', 'e', 'l', 'l', 'y']",1,"[0.6134282999998959, 0.7893468999998277, 0.8774251999998341, 1.0293709999998555, 1.1413824999999633]",483.45589330000007,None,483.45504662999997,None,,,,,,,,,,,,s262,001,2024-01-23_09h23.24.580,test_typingtask_norepeats,2020.2.10,59.94592877231574,
pykka,pykka,,,,,0,63,63,63,,,,,,,,488.95519430000013,None,"['p', 'y', 'k', 'k', 'a']",1,"[1.0901221999999962, 1.266073100000085, 1.4421032000000196, 1.5860712999999578, 1.6421354999999949]",488.95519430000013,None,488.9550660300001,None,,,,,,,,,,,,s262,001,2024-01-23_09h23.24.580,test_typingtask_norepeats,2020.2.10,59.94592877231574,
faqir,faqir,,,,,0,64,64,64,,,,,,,,494.45519890000014,None,"['f', 'a', 'q', 'i', 'r']",1,"[0.6940790999999535, 0.8300787999999102, 1.118054599999823, 1.2141028999999435, 1.3820678999998108]",494.45519890000014,None,494.45507283000006,None,,,,,,,,,,,,s262,001,2024-01-23_09h23.24.580,test_typingtask_norepeats,2020.2.10,59.94592877231574,
edthe,edthe,,,,,0,65,65,65,,,,,,,,499.95524649999993,None,"['e', 'd', 't', 'h', 'e']",1,"[0.7940065000000232, 0.9780887000001712, 1.2019274000001587, 1.3140981000001375, 1.4179513000001407]",499.95524649999993,None,499.95507083000007,None,,,,,,,,,,,,s262,001,2024-01-23_09h23.24.580,test_typingtask_norepeats,2020.2.10,59.94592877231574,
vanru,vanru,,,,,0,66,66,66,,,,,,,,505.45523290000006,None,"['v', 'a', 'n', 'r', 'u']",1,"[0.6700263000000177, 0.7660210000001371, 0.9024673999999777, 1.0540066000000934, 1.1980003000001034]",505.45523290000006,None,505.45507382999995,None,,,,,,,,,,,,s262,001,2024-01-23_09h23.24.580,test_typingtask_norepeats,2020.2.10,59.94592877231574,
haole,haole,,,,,0,67,67,67,,,,,,,,510.9553125,None,"['h', 'a', 'o', 'l', 'e']",1,"[0.6099252000001343, 0.7059213, 0.8340806000001066, 1.0019555999999739, 1.0659496999999192]",510.9553125,None,510.95512603,None,,,,,,,,,,,,s262,001,2024-01-23_09h23.24.580,test_typingtask_norepeats,2020.2.10,59.94592877231574,
vanru,vanru,,,,,0,68,68,68,,,,,,,,516.4552268,None,"['v', 'a', 'n', 'r', 'u']",1,"[0.6780146000000968, 0.8299874000001637, 0.9179966000001514, 1.181988100000126, 1.31799860000001]",516.4552268,None,516.45512523,None,,,,,,,,,,,,s262,001,2024-01-23_09h23.24.580,test_typingtask_norepeats,2020.2.10,59.94592877231574,
kremp,kremp,,,,,0,69,69,69,,,,,,,,521.9553339000001,None,"['k', 'r', 'e', 'm', 'p']",1,"[0.6738875999999436, 0.7940227999999934, 0.889898599999924, 0.9623260000000755, 1.1220003999999335]",521.9553339000001,None,521.95516883,None,,,,,,,,,,,,s262,001,2024-01-23_09h23.24.580,test_typingtask_norepeats,2020.2.10,59.94592877231574,
pykka,pykka,,,,,0,70,70,70,,,,,,,,527.4552777000001,None,"['p', 'y', 'k', 'k', 'a']",1,"[0.7339650000001257, 0.9979501000000255, 1.1339686000001166, 1.269918299999972, 1.357917499999985]",527.4552777000001,None,527.4551895300001,None,,,,,,,,,,,,s262,001,2024-01-23_09h23.24.580,test_typingtask_norepeats,2020.2.10,59.94592877231574,
therm,therm,,,,,0,71,71,71,,,,,,,,532.9553187000001,None,"['t', 'h', 'e', 'r', 'm']",1,"[0.5778909999999087, 0.7060235999999804, 0.7858879999998862, 0.8499234000000797, 1.0258768999999575]",532.9553187000001,None,532.9551600300001,None,,,,,,,,,,,,s262,001,2024-01-23_09h23.24.580,test_typingtask_norepeats,2020.2.10,59.94592877231574,
vanru,vanru,,,,,0,72,72,72,,,,,,,,538.4553060000001,None,"['v', 'a', 'n', 'r', 'u']",1,"[0.6300959000000148, 0.7499450000000252, 0.8621120999998766, 0.9818569999999909, 1.0940479999999297]",538.4553060000001,None,538.45514763,None,,,,,,,,,,,,s262,001,2024-01-23_09h23.24.580,test_typingtask_norepeats,2020.2.10,59.94592877231574,
champ,champ,,,,,0,73,73,73,,,,,,,,543.9552960999999,None,"['c', 'h', 'a', 'm', 'p']",1,"[0.5218846999998732, 0.6419699999999011, 0.7458024000000023, 0.9138374999999996, 0.9938924999999017]",543.9552960999999,None,543.95518623,None,,,,,,,,,,,,s262,001,2024-01-23_09h23.24.580,test_typingtask_norepeats,2020.2.10,59.94592877231574,
vodka,vodka,,,,,0,74,74,74,,,,,,,,549.4553375,None,"['o', 'v', 'o', 'd', 'k', 'a']",0,"[0.7258774000001722, 1.3818658000000141, 1.5018549999999777, 1.6218519999999899, 1.7179347000001144, 1.813950900000009]",549.4553375,None,549.4552486300001,None,,,,,,,,,,,,s262,001,2024-01-23_09h23.24.580,test_typingtask_norepeats,2020.2.10,59.94592877231574,
about,about,,,,,0,75,75,75,,,,,,,,554.9553785,None,"['a', 'b', 'o', 'u', 't']",1,"[0.786025299999892, 0.969877600000018, 1.0817763999998533, 1.1537726999999904, 1.2577656999999363]",554.9553785,None,554.95521603,None,,,,,,,,,,,,s262,001,2024-01-23_09h23.24.580,test_typingtask_norepeats,2020.2.10,59.94592877231574,
tithe,tithe,,,,,0,76,76,76,,,,,,,,560.4553969000001,None,"['t', 'i', 't', 'h', 'e']",1,"[0.6218057999999473, 0.7578742999999122, 0.845759199999975, 0.97372079999991, 1.0616460999999617]",560.4553969000001,None,560.4552371300001,None,,,,,,,,,,,,s262,001,2024-01-23_09h23.24.580,test_typingtask_norepeats,2020.2.10,59.94592877231574,
cooed,cooed,,,,,0,77,77,77,,,,,,,,565.9553445000001,None,"['c', 'o', 'o', 'e', 'd']",1,"[0.6258406000001742, 0.7699898000000758, 0.905787700000019, 1.0099047000001065, 1.0978064000000813]",565.9553445000001,None,565.95524073,None,,,,,,,,,,,,s262,001,2024-01-23_09h23.24.580,test_typingtask_norepeats,2020.2.10,59.94592877231574,
tithe,tithe,,,,,0,78,78,78,,,,,,,,571.4553965,None,"['t', 'i', 't', 'h', 'e']",1,"[0.5257484999999633, 0.6537848000000395, 0.749680600000147, 0.8619026000001213, 0.9337480000001506]",571.4553965,None,571.4553085300001,None,,,,,,,,,,,,s262,001,2024-01-23_09h23.24.580,test_typingtask_norepeats,2020.2.10,59.94592877231574,
theme,theme,,,,,0,79,79,79,,,,,,,,576.9554157,None,"['t', 'h', 'e', 'm', 'e']",1,"[0.6417223999999351, 0.7537121999998817, 0.8737149999999474, 0.9696978999998009, 1.041715899999872]",576.9554157,None,576.9552806300001,None,,,,,,,,,,,,s262,001,2024-01-23_09h23.24.580,test_typingtask_norepeats,2020.2.10,59.94592877231574,
tithe,tithe,,,,,0,80,80,80,,,,,,,,582.4554362000001,None,"['t', 'i', 't', 'h', 'e']",1,"[0.6138816000000133, 0.7976822999999058, 0.9176681999999801, 1.037684200000058, 1.1496494999998959]",582.4554362000001,None,582.4553013300001,None,,,,,,,,,,,,s262,001,2024-01-23_09h23.24.580,test_typingtask_norepeats,2020.2.10,59.94592877231574,
think,think,,,,,0,81,81,81,,,,,,,,587.9554095999999,None,"['t', 'h', 'i', 'n', 'k']",1,"[0.6657098000000587, 0.7777075000001332, 0.849747200000138, 0.9776756000001114, 1.089856200000213]",587.9554095999999,None,587.95531033,None,,,,,,,,,,,,s262,001,2024-01-23_09h23.24.580,test_typingtask_norepeats,2020.2.10,59.94592877231574,
puppy,puppy,,,,,0,82,82,82,,,,,,,,593.4554271,None,"['p', 'u', 'p', 'p', 'y']",1,"[0.6776989999998477, 0.973701599999913, 1.1896884999998747, 1.3256834999999683, 1.4216432999999142]",593.4554271,None,593.45528883,None,,,,,,,,,,,,s262,001,2024-01-23_09h23.24.580,test_typingtask_norepeats,2020.2.10,59.94592877231574,
vodka,vodka,,,,,0,83,83,83,,,,,,,,598.9554287000001,None,"['v', 'o', 'd', 'k', 'a']",1,"[0.665669699999853, 0.7616725999998835, 0.8656553000000713, 0.9936018999999305, 1.0975886999999602]",598.9554287000001,None,598.95530203,None,,,,,,,,,,,,s262,001,2024-01-23_09h23.24.580,test_typingtask_norepeats,2020.2.10,59.94592877231574,
edthe,edthe,,,,,0,84,84,84,,,,,,,,604.4555067000001,None,"['e', 'd', 't', 'h', 'e']",1,"[0.6055913999998666, 0.8375811999999314, 1.0536041999998815, 1.1415461999999934, 1.221576099999993]",604.4555067000001,None,604.45537453,None,,,,,,,,,,,,s262,001,2024-01-23_09h23.24.580,test_typingtask_norepeats,2020.2.10,59.94592877231574,
lucky,lucky,,,,,0,85,85,85,,,,,,,,609.9555053000001,None,"['l', 'u', 'c', 'k', 'y']",1,"[0.6017087000000174, 0.865572800000109, 1.0416575000001558, 1.1535438000000795, 1.3535515000000942]",609.9555053000001,None,609.95539143,None,,,,,,,,,,,,s262,001,2024-01-23_09h23.24.580,test_typingtask_norepeats,2020.2.10,59.94592877231574,
there,there,,,,,0,86,86,86,,,,,,,,615.4555195,None,"['t', 'h', 'e', 'r', 'e']",1,"[0.6295506000001296, 0.7575781000000461, 0.8537003999999797, 0.901526800000056, 0.9976333000001887]",615.4555195,None,615.45538083,None,,,,,,,,,,,,s262,001,2024-01-23_09h23.24.580,test_typingtask_norepeats,2020.2.10,59.94592877231574,
buddy,buddy,,,,,0,87,87,87,,,,,,,,620.9555281,None,"['b', 'u', 'd', 'd', 'y']",1,"[0.6338733000000047, 0.7455271999999695, 0.8896511000000373, 1.0255311000000802, 1.2415322000001652]",620.9555281,None,620.9554131300001,None,,,,,,,,,,,,s262,001,2024-01-23_09h23.24.580,test_typingtask_norepeats,2020.2.10,59.94592877231574,
kremp,kremp,,,,,0,88,88,88,,,,,,,,626.4555578,None,"['k', 'r', 'e', 'm', 'p']",1,"[0.9175081999999293, 1.0375173999998424, 1.1414760000000115, 1.2054650999998557, 1.3338047999998253]",626.4555578,None,626.45543443,626.5555741000001,,,,,,,,,,,,s262,001,2024-01-23_09h23.24.580,test_typingtask_norepeats,2020.2.10,59.94592877231574,
faqir,faqir,,,,,0,89,89,89,,,,,,,,631.9555726000001,None,"['f', 'q', 'q', 'i', 'r']",0,"[0.5774641999998948, 0.8339336999999887, 1.6336929999999938, 2.0814726999999493, 2.145504800000026]",631.9555726000001,None,631.95544243,632.0555790999999,,,,,,,,,,,,s262,001,2024-01-23_09h23.24.580,test_typingtask_norepeats,2020.2.10,59.94592877231574,
cheer,cheer,,,,,0,90,90,90,,,,,,,,637.4556344,None,"['c', 'h', 'e', 'e', 'r']",1,"[0.7334104999999909, 0.8454490999999962, 0.9335704999998597, 1.0693427999999585, 1.1335483000000295]",637.4556344,None,637.45545943,637.5556271,,,,,,,,,,,,s262,001,2024-01-23_09h23.24.580,test_typingtask_norepeats,2020.2.10,59.94592877231574,
kremp,kremp,,,,,0,91,91,91,,,,,,,,642.9556061999999,None,"['k', 'r', 'e', 'm', 'p']",1,"[0.8654169999999795, 0.969453299999941, 1.0415737000000718, 1.137400800000023, 1.2494335999999748]",642.9556061999999,None,642.9554349300001,643.0556005999999,,,,,,,,,,,,s262,001,2024-01-23_09h23.24.580,test_typingtask_norepeats,2020.2.10,59.94592877231574,
vodka,vodka,,,,,0,92,92,92,,,,,,,,648.4556196000001,None,"['v', 'o', 'd', 'k', 'a']",1,"[0.7573964000000615, 0.8455710999999155, 0.9495475999999599, 1.069500699999935, 1.1334928999999647]",648.4556196000001,None,648.4555005300001,648.5556256,,,,,,,,,,,,s262,001,2024-01-23_09h23.24.580,test_typingtask_norepeats,2020.2.10,59.94592877231574,
buddy,buddy,,,,,0,93,93,93,,,,,,,,653.9556381,None,"['b', 'u', 'd', 'd', 'y']",1,"[0.5933794999998554, 0.761486399999967, 0.8735663999998451, 1.0175391999998737, 1.2253731999999218]",653.9556381,None,653.9555168300001,654.0556452999999,,,,,,,,,,,,s262,001,2024-01-23_09h23.24.580,test_typingtask_norepeats,2020.2.10,59.94592877231574,
belly,belly,,,,,0,94,94,94,,,,,,,,659.4556735000001,None,"['b', 'e', 'l', 'l', 'y']",1,"[0.5893278000000919, 0.7333062000000155, 0.8693052000000989, 1.0054308000001129, 1.0938513999999486]",659.4556735000001,None,659.4554891299999,None,,,,,,,,,,,,s262,001,2024-01-23_09h23.24.580,test_typingtask_norepeats,2020.2.10,59.94592877231574,
theme,theme,,,,,0,95,95,95,,,,,,,,664.955694,None,"['t', 'h', 'e', 'm', 'e']",1,"[0.6012862000000041, 0.7372751000000335, 0.8412713000000167, 0.9373038000001088, 1.0173357000001033]",664.955694,None,664.9555031300001,None,,,,,,,,,,,,s262,001,2024-01-23_09h23.24.580,test_typingtask_norepeats,2020.2.10,59.94592877231574,
pykka,pykka,,,,,0,96,96,96,,,,,,,,670.4556637000001,None,"['p', 'y', 'k', 'k', 'a']",1,"[0.6533359000000019, 0.9093686000001071, 1.0615219000001161, 1.1813816000001225, 1.2293125000001055]",670.4556637000001,None,670.4555595300001,None,,,,,,,,,,,,s262,001,2024-01-23_09h23.24.580,test_typingtask_norepeats,2020.2.10,59.94592877231574,
zibja,zibja,,,,,0,97,97,97,,,,,,,,675.9557226,None,"['z', 'i', 'b', 'j', 'a']",1,"[0.6972628999999415, 0.8492378999999346, 2.2414208999998664, 2.3452178000000004, 2.473209099999849]",675.9557226,None,675.95557983,None,,,,,,,,,,,,s262,001,2024-01-23_09h23.24.580,test_typingtask_norepeats,2020.2.10,59.94592877231574,
cooed,cooed,,,,,0,98,98,98,,,,,,,,681.4557092,None,"['c', 'o', 'o', 'e', 'd']",1,"[0.7492475000001377, 0.9012743000000683, 1.029307400000107, 1.1653412000000571, 1.2294317000000774]",681.4557092,None,681.4556770300001,None,,,,,,,,,,,,s262,001,2024-01-23_09h23.24.580,test_typingtask_norepeats,2020.2.10,59.94592877231574,
about,about,,,,,0,99,99,99,,,,,,,,686.9557434999999,None,"['a', 'b', 'o', 'u', 't']",1,"[0.569223200000124, 0.7931735000001936, 0.8973209000000679, 0.9372861000001649, 1.0571896000001288]",686.9557434999999,None,686.9556149300001,None,,,,,,,,,,,,s262,001,2024-01-23_09h23.24.580,test_typingtask_norepeats,2020.2.10,59.94592877231574,
druze,druze,,,,,0,100,100,100,,,,,,,,692.455762,None,"['d', 'r', 'u', 'z', 'e']",1,"[0.6772032999999738, 0.8691959000000224, 0.9572983999998996, 1.0851427000000058, 1.2371610999998666]",692.455762,None,692.4556338300001,None,,,,,,,,,,,,s262,001,2024-01-23_09h23.24.580,test_typingtask_norepeats,2020.2.10,59.94592877231574,
there,there,,,,,0,101,101,101,,,,,,,,697.9558016000001,None,"['t', 'h', 'e', 'r', 'e']",1,"[0.6091787000000295, 0.7051177000000735, 0.8010684999999285, 0.8410922999999002, 0.9372591999999713]",697.9558016000001,None,697.9556573300001,None,,,,,,,,,,,,s262,001,2024-01-23_09h23.24.580,test_typingtask_norepeats,2020.2.10,59.94592877231574,
faqir,faqir,,,,,0,102,102,102,,,,,,,,703.4557810000001,None,"['f', 'a', 'q', 'i', 'r']",1,"[0.6211617999999817, 0.7811203999999634, 1.0611367000001337, 1.2051241000001482, 1.333115300000145]",703.4557810000001,None,703.45567723,None,,,,,,,,,,,,s262,001,2024-01-23_09h23.24.580,test_typingtask_norepeats,2020.2.10,59.94592877231574,
edthe,edthe,,,,,0,103,103,103,,,,,,,,708.9557978,None,"['e', 'd', 't', 'h', 'e']",1,"[0.5930950000001758, 0.7531161000001703, 0.9610499000000345, 1.0652014000002055, 1.1610646000001452]",708.9557978,None,708.95569443,None,,,,,,,,,,,,s262,001,2024-01-23_09h23.24.580,test_typingtask_norepeats,2020.2.10,59.94592877231574,
therm,therm,,,,,0,104,104,104,,,,,,,,714.4558322,None,"['t', 'h', 'e', 'r', 'm']",1,"[0.5730708000000959, 0.6931160000001455, 0.7892006000001857, 0.8371257000001151, 1.013068100000055]",714.4558322,None,714.45573633,None,,,,,,,,,,,,s262,001,2024-01-23_09h23.24.580,test_typingtask_norepeats,2020.2.10,59.94592877231574,
cheer,cheer,,,,,0,105,105,105,,,,,,,,719.9558571,None,"['c', 'h', 'e', 'e', 'r']",1,"[0.6650509999999485, 0.8010191999999279, 0.8970334000000548, 1.0491326999999728, 1.145051199999898]",719.9558571,None,719.9557527300001,None,,,,,,,,,,,,s262,001,2024-01-23_09h23.24.580,test_typingtask_norepeats,2020.2.10,59.94592877231574,
faqir,faqir,,,,,0,106,106,106,,,,,,,,725.4558824000001,None,"['f', 'a', 'q', 'i', 'r']",1,"[0.5730822999998963, 0.7329279000000497, 0.9730466999999408, 1.1169721999999638, 1.245073199999979]",725.4558824000001,None,725.45573223,None,,,,,,,,,,,,s262,001,2024-01-23_09h23.24.580,test_typingtask_norepeats,2020.2.10,59.94592877231574,
about,about,,,,,0,107,107,107,,,,,,,,730.9559045999999,None,"['a', 'b', 'o', 'u', 't']",1,"[0.5529493999999886, 0.768960399999969, 0.8569423000001279, 0.9290293000001384, 1.040956000000051]",730.9559045999999,None,730.95576663,None,,,,,,,,,,,,s262,001,2024-01-23_09h23.24.580,test_typingtask_norepeats,2020.2.10,59.94592877231574,
vodka,vodka,,,,,0,108,108,108,,,,,,,,736.4561428,None,"['v', 'o', 'd', 'k', 'a']",1,"[0.612726500000008, 0.7246850000001359, 0.812676300000021, 0.924755100000084, 0.9968685999999707]",736.4561428,None,736.4560732300001,None,,,,,,,,,,,,s262,001,2024-01-23_09h23.24.580,test_typingtask_norepeats,2020.2.10,59.94592877231574,
there,there,,,,,0,109,109,109,,,,,,,,741.9559296,None,"['t', 'h', 'e', 'r', 'e']",1,"[0.601004200000034, 0.7289777000000868, 0.7850488999999925, 0.8570230999998785, 0.9529896999999892]",741.9559296,None,741.95581023,None,,,,,,,,,,,,s262,001,2024-01-23_09h23.24.580,test_typingtask_norepeats,2020.2.10,59.94592877231574,
cooed,cooed,,,,,0,110,110,110,,,,,,,,747.4559497,None,"['c', 'o', 'o', 'e', 'd']",1,"[0.5329675999998926, 0.6530914999998458, 0.7808612999999696, 0.8929869999999482, 0.9649795000000267]",747.4559497,None,747.45585663,None,,,,,,,,,,,,s262,001,2024-01-23_09h23.24.580,test_typingtask_norepeats,2020.2.10,59.94592877231574,
druze,druze,,,,,0,111,111,111,,,,,,,,752.9559651,None,"['d', 'r', 'u', 'z', 'e']",1,"[0.6088968000001387, 0.8008489999999711, 0.9048369000001912, 1.0408458000001701, 1.2088982000000215]",752.9559651,None,752.9558252300001,None,,,,,,,,,,,,s262,001,2024-01-23_09h23.24.580,test_typingtask_norepeats,2020.2.10,59.94592877231574,
edthe,edthe,,,,,0,112,112,112,,,,,,,,758.4559846,None,"['e', 'd', 't', 'h', 'e']",1,"[0.5968476000000464, 0.7809638999999606, 0.9648587000001498, 1.0930845000000318, 1.1568858000000546]",758.4559846,None,758.45582433,None,,,,,,,,,,,,s262,001,2024-01-23_09h23.24.580,test_typingtask_norepeats,2020.2.10,59.94592877231574,
vodka,vodka,,,,,0,113,113,113,,,,,,,,763.9560174000001,None,"['v', 'o', 'd', 'k', 'a']",1,"[0.6887810999999147, 0.7849457999998322, 0.8967773999997917, 1.0089932999999291, 1.0968566999999894]",763.9560174000001,None,763.95585123,None,,,,,,,,,,,,s262,001,2024-01-23_09h23.24.580,test_typingtask_norepeats,2020.2.10,59.94592877231574,
cooed,cooed,,,,,0,114,114,114,,,,,,,,769.4560759000001,None,"['c', 'o', 'o', 'e', 'd']",1,"[0.596804099999872, 0.7007306000000426, 0.8288741999999729, 0.9247523999999885, 0.9888363000000027]",769.4560759000001,None,769.45589713,None,,,,,,,,,,,,s262,001,2024-01-23_09h23.24.580,test_typingtask_norepeats,2020.2.10,59.94592877231574,
champ,champ,,,,,0,115,115,115,,,,,,,,774.9560232000001,None,"['c', 'h', 'a', 'm', 'p']",1,"[0.5207713000002059, 0.6490297000000282, 0.736898900000142, 0.8727420000000166, 0.9767959000000701]",774.9560232000001,None,774.95592313,None,,,,,,,,,,,,s262,001,2024-01-23_09h23.24.580,test_typingtask_norepeats,2020.2.10,59.94592877231574,
druze,druze,,,,,0,116,116,116,,,,,,,,780.456066,None,"['d', 'r', 'u', 'z', 'e']",1,"[0.5727217999999539, 0.7566710999999486, 0.8686766000000716, 0.9886957000001075, 1.1567469000001438]",780.456066,None,780.45595703,None,,,,,,,,,,,,s262,001,2024-01-23_09h23.24.580,test_typingtask_norepeats,2020.2.10,59.94592877231574,
vanru,vanru,,,,,0,117,117,117,,,,,,,,785.9561237,None,"['v', 'a', 'n', 'r', 'u']",1,"[0.616606499999989, 0.728721299999961, 0.8246649000000161, 1.0086407999999665, 1.12065419999999]",785.9561237,None,785.9559278300001,None,,,,,,,,,,,,s262,001,2024-01-23_09h23.24.580,test_typingtask_norepeats,2020.2.10,59.94592877231574,
heond,heond,,,,,0,118,118,118,,,,,,,,791.4561252999999,None,"['h', 'e', 'o', 'n', 'd']",1,"[0.6126490999999987, 0.6926574999999957, 0.8127557999998771, 0.9006267999998272, 0.9888048999998773]",791.4561252999999,None,791.4559465300001,None,,,,,,,,,,,,s262,001,2024-01-23_09h23.24.580,test_typingtask_norepeats,2020.2.10,59.94592877231574,
puppy,puppy,,,,,0,119,119,119,,,,,,,,796.95613,None,"['p', 'u', 'p', 'p', 'y']",1,"[0.6406707999999526, 1.1766402999999173, 1.3926486999998815, 1.5207277999998041, 1.6406486999999288]",796.95613,None,796.9560138300001,None,,,,,,,,,,,,s262,001,2024-01-23_09h23.24.580,test_typingtask_norepeats,2020.2.10,59.94592877231574,
kremp,kremp,,,,,,,,,0,0,0,0,,,,,,,,,,,,,802.4561299,None,829.7568934999999,None,"['k', 'r', 'e', 'm', 'p']",1,"[0.9838156999999228, 1.0800363000000743, 1.1598423999998886, 1.231772299999875, 1.327929999999924]",829.7568934999999,None,829.75613103,829.85629,s262,001,2024-01-23_09h23.24.580,test_typingtask_norepeats,2020.2.10,59.94592877231574,
there,there,,,,,,,,,0,1,1,1,,,,,,,,,,,,,,,835.2565992,None,"['t', 'h', 'e', 'r', 'e']",1,"[0.5802289000000656, 0.7083748999998534, 0.7960626999999931, 0.844128499999897, 0.940149799999972]",835.2565992,None,835.2561581300001,None,s262,001,2024-01-23_09h23.24.580,test_typingtask_norepeats,2020.2.10,59.94592877231574,
cooed,cooed,,,,,,,,,0,2,2,2,,,,,,,,,,,,,,,840.7563081999999,None,"['c', 'o', 'o', 'e', 'd']",1,"[0.5284483999998884, 0.6724168999999165, 0.8003305999998247, 0.896350099999836, 0.9844522999999299]",840.7563081999999,None,840.75618203,None,s262,001,2024-01-23_09h23.24.580,test_typingtask_norepeats,2020.2.10,59.94592877231574,
buddy,buddy,,,,,,,,,0,3,3,3,,,,,,,,,,,,,,,846.2566681000001,None,"['b', 'u', 'd', 'd', 'y']",1,"[0.5719900999999936, 0.7080196000001706, 0.8360397000001285, 0.980156500000021, 1.204003000000057]",846.2566681000001,None,846.2569411300001,None,s262,001,2024-01-23_09h23.24.580,test_typingtask_norepeats,2020.2.10,59.94592877231574,
theme,theme,,,,,,,,,0,4,4,4,,,,,,,,,,,,,,,851.7563566000001,None,"['t', 'h', 'e', 'm', 'e']",1,"[0.6083184999999958, 0.7043575000000146, 0.8243035000000418, 0.928293100000019, 0.9842854999999417]",851.7563566000001,None,851.75618463,None,s262,001,2024-01-23_09h23.24.580,test_typingtask_norepeats,2020.2.10,59.94592877231574,
zibja,zibja,,,,,,,,,0,5,5,5,,,,,,,,,,,,,,,857.2565671,None,"['z', 'i', 'g', 'j', 'a']",0,"[0.8841055000000324, 1.036093899999969, 1.172200200000134, 1.3161982000001444, 1.4360974999999598]",857.2565671,None,857.25635233,None,s262,001,2024-01-23_09h23.24.580,test_typingtask_norepeats,2020.2.10,59.94592877231574,
cheer,cheer,,,,,,,,,0,6,6,6,,,,,,,,,,,,,,,862.7564021000001,None,"['c', 'h', 'e', 'e', 'r']",1,"[0.6642345000000205, 0.8082240000001093, 0.9042318000001615, 1.0483002000000852, 1.1282161999999971]",862.7564021000001,None,862.7562576299999,None,s262,001,2024-01-23_09h23.24.580,test_typingtask_norepeats,2020.2.10,59.94592877231574,
tithe,tithe,,,,,,,,,0,7,7,7,,,,,,,,,,,,,,,868.2564201,None,"['t', 'i', 't', 'h', 'e']",1,"[0.7242433999999776, 0.8362033000000793, 0.9162456000001384, 1.0523807000001852, 1.1481838000001972]",868.2564201,None,868.2562831299999,None,s262,001,2024-01-23_09h23.24.580,test_typingtask_norepeats,2020.2.10,59.94592877231574,
would,would,,,,,,,,,0,8,8,8,,,,,,,,,,,,,,,873.7564324,None,"['w', 'o', 'u', 'l', 'd']",1,"[0.6561933999996654, 0.8082890999999108, 0.8642732999996952, 1.112335599999824, 1.2002786999996715]",873.7564324,None,873.7563121300002,None,s262,001,2024-01-23_09h23.24.580,test_typingtask_norepeats,2020.2.10,59.94592877231574,
therm,therm,,,,,,,,,0,9,9,9,,,,,,,,,,,,,,,879.2564176999999,None,"['t', 'h', 'e', 'r', 'm']",1,"[0.5881293000002188, 0.7002102000001287, 0.7961841999999706, 0.8522941999999603, 0.9963161000000582]",879.2564176999999,None,879.2563268300003,None,s262,001,2024-01-23_09h23.24.580,test_typingtask_norepeats,2020.2.10,59.94592877231574,
vodka,vodka,,,,,,,,,0,10,10,10,,,,,,,,,,,,,,,884.7564849,None,"['v', 'o', 'd', 'k', 'a']",1,"[0.7121428999998898, 0.7841887999998107, 0.9280979000000116, 1.040266900000006, 1.0882022000000688]",884.7564849,None,884.7563566300003,None,s262,001,2024-01-23_09h23.24.580,test_typingtask_norepeats,2020.2.10,59.94592877231574,
think,think,,,,,,,,,0,11,11,11,,,,,,,,,,,,,,,890.2564882000001,None,"['t', 'h', 'i', 'n', 'k']",1,"[0.6201144000001477, 0.7241279999998369, 0.7960892000000968, 0.9322013999999399, 1.0361250999999356]",890.2564882000001,None,890.2563790299998,None,s262,001,2024-01-23_09h23.24.580,test_typingtask_norepeats,2020.2.10,59.94592877231574,
buddy,buddy,,,,,,,,,0,12,12,12,,,,,,,,,,,,,,,895.7564851000002,None,"['b', 'u', 'd', 'd', 'y']",1,"[0.5601897000001372, 0.6801108999998178, 0.8082174999999552, 0.9282340999998269, 1.152126699999826]",895.7564851000002,None,895.7564040300001,None,s262,001,2024-01-23_09h23.24.580,test_typingtask_norepeats,2020.2.10,59.94592877231574,
cheer,cheer,,,,,,,,,0,13,13,13,,,,,,,,,,,,,,,901.2565688,None,"['c', 'h', 'e', 'e', 'r']",1,"[0.6840188999999555, 0.803994800000055, 0.9082776000000194, 1.0519444999999905, 1.1321451999997407]",901.2565688,None,901.2564245300002,None,s262,001,2024-01-23_09h23.24.580,test_typingtask_norepeats,2020.2.10,59.94592877231574,
therm,therm,,,,,,,,,0,14,14,14,,,,,,,,,,,,,,,906.7565502000002,None,"['t', 'h', 'e', 'r', 'm']",1,"[0.568072900000061, 0.7040175000001909, 0.768056400000205, 0.832092300000113, 0.9999668999998903]",906.7565502000002,None,906.7564104300002,None,s262,001,2024-01-23_09h23.24.580,test_typingtask_norepeats,2020.2.10,59.94592877231574,
puppy,puppy,,,,,,,,,0,15,15,15,,,,,,,,,,,,,,,912.2565749,None,"['p', 'u', 'p', 'p', 'y']",1,"[0.6920018999999229, 0.8999822999999196, 1.0600798000000395, 1.204084800000146, 1.4359721000000718]",912.2565749,None,912.2564232299999,None,s262,001,2024-01-23_09h23.24.580,test_typingtask_norepeats,2020.2.10,59.94592877231574,
there,there,,,,,,,,,0,16,16,16,,,,,,,,,,,,,,,917.7566102999999,None,"['t', 'h', 'e', 'r', 'e']",1,"[0.6639311000003545, 0.7839610000000903, 0.8639517000001433, 0.9279660000001968, 1.007919800000309]",917.7566102999999,None,917.7565575300002,None,s262,001,2024-01-23_09h23.24.580,test_typingtask_norepeats,2020.2.10,59.94592877231574,
heond,heond,,,,,,,,,0,17,17,17,,,,,,,,,,,,,,,923.2565957000002,None,"['h', 'e', 'o', 'n', 'd']",1,"[0.6600466999998389, 0.7719720999998572, 0.8601211000000148, 0.9479579999997441, 1.0523580999997648]",923.2565957000002,None,923.25651253,None,s262,001,2024-01-23_09h23.24.580,test_typingtask_norepeats,2020.2.10,59.94592877231574,
cheer,cheer,,,,,,,,,0,18,18,18,,,,,,,,,,,,,,,928.7566984,None,"['c', 'h', 'e', 'e', 'r']",1,"[0.6078591000000415, 0.7199196999999913, 0.8477775000001202, 0.9758347000001777, 1.0398706999999376]",928.7566984,None,928.7565310299999,None,s262,001,2024-01-23_09h23.24.580,test_typingtask_norepeats,2020.2.10,59.94592877231574,
there,there,,,,,,,,,0,19,19,19,,,,,,,,,,,,,,,934.2566824999999,None,"['t', 'h', 'e', 'r', 'e']",1,"[0.6678694000001997, 0.7878593000000365, 0.8758407000000261, 0.9158977000001869, 1.0118271999999706]",934.2566824999999,None,934.2565363300002,None,s262,001,2024-01-23_09h23.24.580,test_typingtask_norepeats,2020.2.10,59.94592877231574,
theme,theme,,,,,,,,,0,20,20,20,,,,,,,,,,,,,,,939.7566984,None,"['t', 'h', 'e', 'm', 'e']",1,"[0.5998807000000852, 0.687985099999878, 0.8239087000001746, 0.9198935999997957, 0.9838165000001027]",939.7566984,None,939.75656843,None,s262,001,2024-01-23_09h23.24.580,test_typingtask_norepeats,2020.2.10,59.94592877231574,
tithe,tithe,,,,,,,,,0,21,21,21,,,,,,,,,,,,,,,945.2567485,None,"['t', 'i', 't', 'h', 'e']",1,"[0.6917567000000417, 0.8197135999998864, 0.9079376999998203, 1.0197534999997515, 1.1077195999996547]",945.2567485,None,945.2565610300001,None,s262,001,2024-01-23_09h23.24.580,test_typingtask_norepeats,2020.2.10,59.94592877231574,
vodka,vodka,,,,,,,,,0,22,22,22,,,,,,,,,,,,,,,950.7568277,None,"['v', 'o', 'd', 'k', 'a']",1,"[0.647899999999936, 0.7437957999995888, 0.863619799999924, 0.9676571999998487, 1.0316854999996394]",950.7568277,None,950.7566094300003,None,s262,001,2024-01-23_09h23.24.580,test_typingtask_norepeats,2020.2.10,59.94592877231574,
think,think,,,,,,,,,0,23,23,23,,,,,,,,,,,,,,,956.2567859999999,None,"['t', 'h', 'i', 'n', 'k']",1,"[0.6357004000001325, 0.7317004999999881, 0.8037285999998858, 0.9322747999999592, 1.0358221000001322]",956.2567859999999,None,956.2566049300001,None,s262,001,2024-01-23_09h23.24.580,test_typingtask_norepeats,2020.2.10,59.94592877231574,
kremp,kremp,,,,,,,,,0,24,24,24,,,,,,,,,,,,,,,961.7567743999998,None,"['k', 'r', 'e', 'm', 'p']",1,"[0.6077021999999488, 0.7518740000000435, 0.8397460999999566, 0.8797912999998516, 0.9838299999996707]",961.7567743999998,None,961.75663633,None,s262,001,2024-01-23_09h23.24.580,test_typingtask_norepeats,2020.2.10,59.94592877231574,
pykka,pykka,,,,,,,,,0,25,25,25,,,,,,,,,,,,,,,967.2568154999999,None,"['p', 'y', 'k', 'k', 'a']",1,"[0.6517721999998685, 0.859599899999921, 1.019644900000003, 1.1476128999997854, 1.219610399999965]",967.2568154999999,None,967.2567043299998,None,s262,001,2024-01-23_09h23.24.580,test_typingtask_norepeats,2020.2.10,59.94592877231574,
puppy,puppy,,,,,,,,,0,26,26,26,,,,,,,,,,,,,,,972.7569158000001,None,"['p', 'u', 'p', 'p', 'y']",1,"[0.7036731000002874, 0.8955310000001191, 1.055541500000345, 1.191631099999995, 1.2635033000001386]",972.7569158000001,None,972.7567012299999,None,s262,001,2024-01-23_09h23.24.580,test_typingtask_norepeats,2020.2.10,59.94592877231574,
druze,druze,,,,,,,,,0,27,27,27,,,,,,,,,,,,,,,978.2568698999999,None,"['d', 'r', 'u', 'z', 'e']",1,"[0.5796024000001125, 0.7636041999999179, 0.8756971000002522, 0.9875810000003185, 1.131604100000004]",978.2568698999999,None,978.2567026300001,None,s262,001,2024-01-23_09h23.24.580,test_typingtask_norepeats,2020.2.10,59.94592877231574,
zibja,zibja,,,,,,,,,0,28,28,28,,,,,,,,,,,,,,,983.7568626000002,None,"['z', 'i', 'g', 'j', 'a']",0,"[0.6235940999999912, 0.783726800000295, 0.8955578999998579, 1.503581700000268, 1.5755729000002248]",983.7568626000002,None,983.7567836300002,None,s262,001,2024-01-23_09h23.24.580,test_typingtask_norepeats,2020.2.10,59.94592877231574,
about,about,,,,,,,,,0,29,29,29,,,,,,,,,,,,,,,989.2568894999999,None,"['a', 'b', 'o', 'u', 't']",1,"[0.6435246999999436, 0.8355284999997821, 0.9318341999996846, 0.9796096000000034, 1.091531600000053]",989.2568894999999,None,989.25677913,None,s262,001,2024-01-23_09h23.24.580,test_typingtask_norepeats,2020.2.10,59.94592877231574,
vanru,vanru,,,,,,,,,0,30,30,30,,,,,,,,,,,,,,,994.7569282,None,"['v', 'a', 'n', 'r', 'u']",1,"[0.6154935999998088, 0.7435946999999032, 0.807450499999959, 0.9596025999999256, 1.0714232999998785]",994.7569282,None,994.7568085300002,None,s262,001,2024-01-23_09h23.24.580,test_typingtask_norepeats,2020.2.10,59.94592877231574,
therm,therm,,,,,,,,,0,31,31,31,,,,,,,,,,,,,,,1000.2569684999999,None,"['t', 'h', 'e', 'r', 'm']",1,"[0.5634477999997216, 0.6837474999997539, 0.7634330999999293, 0.8354113000000325, 0.9474374999999782]",1000.2569684999999,None,1000.2568663300001,None,s262,001,2024-01-23_09h23.24.580,test_typingtask_norepeats,2020.2.10,59.94592877231574,
buddy,buddy,,,,,,,,,0,32,32,32,,,,,,,,,,,,,,,1005.7569840000001,None,"['b', 'u', 'd', 'd', 'y']",1,"[0.5594015000001491, 0.7195364000003792, 0.7993893000002572, 0.9354542000000947, 1.1434105000003]",1005.7569840000001,None,1005.7568561300002,None,s262,001,2024-01-23_09h23.24.580,test_typingtask_norepeats,2020.2.10,59.94592877231574,
tithe,tithe,,,,,,,,,0,33,33,33,,,,,,,,,,,,,,,1011.2570016,None,"['t', 'i', 't', 'h', 'e']",1,"[0.6753867999996146, 0.7874887999996645, 0.8513746999997238, 0.9713164999998298, 1.0594171999996433]",1011.2570016,None,1011.2568967300001,None,s262,001,2024-01-23_09h23.24.580,test_typingtask_norepeats,2020.2.10,59.94592877231574,
belly,belly,,,,,,,,,0,34,34,34,,,,,,,,,,,,,,,1016.7570383000002,None,"['b', 'e', 'l', 'l', 'y']",1,"[0.5993634999999813, 0.7353143999998792, 0.8314606999997523, 0.9673502999999073, 1.0395353999997496]",1016.7570383000002,None,1016.7569064299998,None,s262,001,2024-01-23_09h23.24.580,test_typingtask_norepeats,2020.2.10,59.94592877231574,
lucky,lucky,,,,,,,,,0,35,35,35,,,,,,,,,,,,,,,1022.2570571000001,None,"['l', 'u', 'c', 'k', 'y']",1,"[0.5313393999999789, 0.7394095999998171, 0.907310999999936, 0.9953565999999228, 1.2193198999998458]",1022.2570571000001,None,1022.25698713,None,s262,001,2024-01-23_09h23.24.580,test_typingtask_norepeats,2020.2.10,59.94592877231574,
haole,haole,,,,,,,,,0,36,36,36,,,,,,,,,,,,,,,1027.7571002999998,None,"['h', 'a', 'o', 'l', 'e']",1,"[0.8632599999996273, 0.9832625999997617, 1.1433554000000186, 1.3273020999999972, 1.4072565999999824]",1027.7571002999998,None,1027.7569580299999,None,s262,001,2024-01-23_09h23.24.580,test_typingtask_norepeats,2020.2.10,59.94592877231574,
would,would,,,,,,,,,0,37,37,37,,,,,,,,,,,,,,,1033.2571007000001,None,"['w', 'o', 'u', 'l', 'd']",1,"[0.6352566000000479, 0.7475518999999622, 0.827252199999748, 1.035270699999728, 1.1392820999999458]",1033.2571007000001,None,1033.2569823300003,None,s262,001,2024-01-23_09h23.24.580,test_typingtask_norepeats,2020.2.10,59.94592877231574,
about,about,,,,,,,,,0,38,38,38,,,,,,,,,,,,,,,1038.7571293,None,"['a', 'b', 'o', 'u', 't']",1,"[0.5272343999999975, 0.7832106000000749, 0.8712236999999732, 0.9351584000000912, 1.0792607000003045]",1038.7571293,None,1038.75697703,1038.8571478,s262,001,2024-01-23_09h23.24.580,test_typingtask_norepeats,2020.2.10,59.94592877231574,
think,think,,,,,,,,,0,39,39,39,,,,,,,,,,,,,,,1044.2571188000002,None,"['t', 'h', 'i', 'n', 'k']",1,"[0.5632919999998194, 0.6514671999998427, 0.7393921999996564, 0.859245799999826, 0.9472257999996145]",1044.2571188000002,None,1044.2570475300001,None,s262,001,2024-01-23_09h23.24.580,test_typingtask_norepeats,2020.2.10,59.94592877231574,
champ,champ,,,,,,,,,0,40,40,40,,,,,,,,,,,,,,,1049.7571756000002,None,"['c', 'h', 'a', 'm', 'p', 'o']",0,"[0.5591248999999152, 0.6632196000000476, 0.7594151000002967, 0.8711269000000357, 1.0231677000001582, 1.0313919999998689]",1049.7571756000002,None,1049.75705933,1049.8571397,s262,001,2024-01-23_09h23.24.580,test_typingtask_norepeats,2020.2.10,59.94592877231574,
vanru,vanru,,,,,,,,,0,41,41,41,,,,,,,,,,,,,,,1055.2572062,None,"['v', 'a', 'n', 'r', 'u']",1,"[0.7071104000001469, 1.1391272000000754, 1.259120300000177, 1.5711032000003797, 1.659217400000216]",1055.2572062,None,1055.2570794300002,1055.3571918000002,s262,001,2024-01-23_09h23.24.580,test_typingtask_norepeats,2020.2.10,59.94592877231574,
druze,druze,,,,,,,,,0,42,42,42,,,,,,,,,,,,,,,1060.7573826000003,None,"['d', 'r', 'u', 'z', 'e']",1,"[0.6949381999997968, 0.8628924999998162, 0.9748946999998225, 1.0948880999999346, 1.222887499999615]",1060.7573826000003,None,1060.7570923300002,1060.8572417,s262,001,2024-01-23_09h23.24.580,test_typingtask_norepeats,2020.2.10,59.94592877231574,
zibja,zibja,,,,,,,,,0,43,43,43,,,,,,,,,,,,,,,1066.2572470999999,None,"['z', 'i', 'b', 'j', 'a']",1,"[0.6750710000001163, 0.8431230000001051, 1.051083700000163, 1.2030343000001267, 1.2910682000001543]",1066.2572470999999,None,1066.2571294299998,1066.3572546,s262,001,2024-01-23_09h23.24.580,test_typingtask_norepeats,2020.2.10,59.94592877231574,
buddy,buddy,,,,,,,,,0,44,44,44,,,,,,,,,,,,,,,1071.7572737,None,"['b', 'u', 'd', 'd', 'y']",1,"[0.5831246000002466, 0.7191510000002381, 0.8310083000001214, 0.9671699999998964, 1.5030337000002874]",1071.7572737,None,1071.7571583300003,1071.8572825,s262,001,2024-01-23_09h23.24.580,test_typingtask_norepeats,2020.2.10,59.94592877231574,
haole,haole,,,,,,,,,0,45,45,45,,,,,,,,,,,,,,,1077.2573094,None,"['h', 'a', 'o', 'l', 'e']",1,"[0.6189242000000377, 0.7149424999997791, 0.8349344999996902, 0.9789422999997441, 1.0590523999999277]",1077.2573094,None,1077.25717503,1077.3572894,s262,001,2024-01-23_09h23.24.580,test_typingtask_norepeats,2020.2.10,59.94592877231574,
faqir,faqir,,,,,,,,,0,46,46,46,,,,,,,,,,,,,,,1082.7573169000002,None,"['f', 'a', 'q', 'i', 'r']",1,"[0.6069723000000522, 0.7669809999997597, 0.9911114000001362, 1.1190065999999206, 1.2709279000000606]",1082.7573169000002,None,1082.7571912300002,1082.8573192,s262,001,2024-01-23_09h23.24.580,test_typingtask_norepeats,2020.2.10,59.94592877231574,
vodka,vodka,,,,,,,,,0,47,47,47,,,,,,,,,,,,,,,1088.2573032,None,"['v', 'o', 'd', 'k', 'a']",1,"[0.6349936999999954, 0.7230085999999574, 0.8349345000001449, 0.9468839999999545, 1.0188889999999446]",1088.2573032,None,1088.25722233,None,s262,001,2024-01-23_09h23.24.580,test_typingtask_norepeats,2020.2.10,59.94592877231574,
faqir,faqir,,,,,,,,,0,48,48,48,,,,,,,,,,,,,,,1093.7573897000002,None,"['f', 'a', 'q', 'i', 'r']",1,"[0.566917900000135, 0.7749244999999974, 0.9989510000000337, 1.1428839000000153, 1.2629996999999094]",1093.7573897000002,None,1093.7572041300002,None,s262,001,2024-01-23_09h23.24.580,test_typingtask_norepeats,2020.2.10,59.94592877231574,
pykka,pykka,,,,,,,,,0,49,49,49,,,,,,,,,,,,,,,1099.2574108,None,"['p', 'y', 'k', 'k', 'a']",1,"[0.8109963000001699, 1.002897700000176, 1.170835000000352, 1.3069493000002694, 1.3628438000000642]",1099.2574108,None,1099.2572373300002,None,s262,001,2024-01-23_09h23.24.580,test_typingtask_norepeats,2020.2.10,59.94592877231574,
lucky,lucky,,,,,,,,,0,50,50,50,,,,,,,,,,,,,,,1104.7573820000002,None,"['l', 'u', 'c', 'k', 'y']",1,"[0.6788394000000153, 0.8868170999999165, 1.0068387999999686, 1.1188434000000598, 1.2949910000002092]",1104.7573820000002,None,1104.75729913,None,s262,001,2024-01-23_09h23.24.580,test_typingtask_norepeats,2020.2.10,59.94592877231574,
faqir,faqir,,,,,,,,,0,51,51,51,,,,,,,,,,,,,,,1110.2574321000002,None,"['f', 'a', 'q', 'i', 'r']",1,"[0.5708040999998047, 0.70680799999991, 0.9307483999996293, 1.0747604999996838, 1.2107638999996198]",1110.2574321000002,None,1110.2573135300001,None,s262,001,2024-01-23_09h23.24.580,test_typingtask_norepeats,2020.2.10,59.94592877231574,
edthe,edthe,,,,,,,,,0,52,52,52,,,,,,,,,,,,,,,1115.7575066,None,"['e', 'd', 't', 'h', 'e']",1,"[0.6467742999998336, 0.8228242000000137, 1.0227067999999235, 1.1106850999999551, 1.1907947999998214]",1115.7575066,None,1115.75735113,None,s262,001,2024-01-23_09h23.24.580,test_typingtask_norepeats,2020.2.10,59.94592877231574,
champ,champ,,,,,,,,,0,53,53,53,,,,,,,,,,,,,,,1121.257513,None,"['c', 'h', 'a', 'm', 'p']",1,"[0.5389098000000558, 0.690685300000041, 0.7947810000000572, 0.9386834000001727, 1.0507221000002573]",1121.257513,None,1121.25737203,None,s262,001,2024-01-23_09h23.24.580,test_typingtask_norepeats,2020.2.10,59.94592877231574,
puppy,puppy,,,,,,,,,0,54,54,54,,,,,,,,,,,,,,,1126.7575298000002,None,"['p', 'u', 'p', 'p', 'y']",1,"[0.6468641000001298, 0.8626758000000336, 1.0146647000001394, 1.1507787000000462, 1.2547199999999066]",1126.7575298000002,None,1126.7573949300001,None,s262,001,2024-01-23_09h23.24.580,test_typingtask_norepeats,2020.2.10,59.94592877231574,
cooed,cooed,,,,,,,,,0,55,55,55,,,,,,,,,,,,,,,1132.2575560999999,None,"['c', 'o', 'o', 'e', 'd']",1,"[0.6826277999998638, 0.7788058999999521, 0.9225986000001285, 1.0026985999998033, 1.0827510999997685]",1132.2575560999999,None,1132.25741563,None,s262,001,2024-01-23_09h23.24.580,test_typingtask_norepeats,2020.2.10,59.94592877231574,
zibja,zibja,,,,,,,,,0,56,56,56,,,,,,,,,,,,,,,1137.7575871,None,"['z', 'i', 'b', 'j', 'a']",1,"[0.7186040000001412, 0.8545695000002524, 0.9906779000002643, 1.1186897000002318, 1.2226227000001018]",1137.7575871,None,1137.75743983,None,s262,001,2024-01-23_09h23.24.580,test_typingtask_norepeats,2020.2.10,59.94592877231574,
edthe,edthe,,,,,,,,,0,57,57,57,,,,,,,,,,,,,,,1143.2575932999998,None,"['e', 'd', 't', 'h', 'e']",1,"[0.5386061999997764, 0.6825730999998996, 0.9066695999999865, 1.0266572000000451, 1.0745450999997956]",1143.2575932999998,None,1143.2574643300002,None,s262,001,2024-01-23_09h23.24.580,test_typingtask_norepeats,2020.2.10,59.94592877231574,
kremp,kremp,,,,,,,,,0,58,58,58,,,,,,,,,,,,,,,1148.7577254000003,None,"['k', 'r', 'e', 'm', 'p']",1,"[0.6943562999999813, 0.8303842999998778, 0.9184748000002401, 0.9584844999999405, 1.070406400000138]",1148.7577254000003,None,1148.75751243,None,s262,001,2024-01-23_09h23.24.580,test_typingtask_norepeats,2020.2.10,59.94592877231574,
there,there,,,,,,,,,0,59,59,59,,,,,,,,,,,,,,,1154.2576042,None,"['t', 'h', 'e', 'r', 'e']",1,"[0.5786878999997498, 0.6985301999998228, 0.7627010999999584, 0.8184474999998201, 0.9145297000000028]",1154.2576042,None,1154.25752993,None,s262,001,2024-01-23_09h23.24.580,test_typingtask_norepeats,2020.2.10,59.94592877231574,
lucky,lucky,,,,,,,,,0,60,60,60,,,,,,,,,,,,,,,1159.7576643000002,None,"['l', 'u', 'c', 'k', 'y']",1,"[0.7665640000000167, 0.9904711999997744, 1.1665926000000582, 1.2705729999997857, 1.4545795999997608]",1159.7576643000002,None,1159.7582559300001,None,s262,001,2024-01-23_09h23.24.580,test_typingtask_norepeats,2020.2.10,59.94592877231574,
tithe,tithe,,,,,,,,,0,61,61,61,,,,,,,,,,,,,,,1165.2576944000002,None,"['t', 'i', 't', 'h', 'e']",1,"[0.5383722999999918, 0.6423838000000615, 0.7465436000002228, 0.8506779000003917, 0.9465404000002309]",1165.2576944000002,None,1165.2575490299998,None,s262,001,2024-01-23_09h23.24.580,test_typingtask_norepeats,2020.2.10,59.94592877231574,
druze,druze,,,,,,,,,0,62,62,62,,,,,,,,,,,,,,,1170.7576567,None,"['d', 'r', 'u', 'z', 'e']",1,"[0.5744552999999541, 0.7744642000002386, 0.8785477000001265, 1.0144654999999148, 1.1666018999999324]",1170.7576567,None,1170.75758853,None,s262,001,2024-01-23_09h23.24.580,test_typingtask_norepeats,2020.2.10,59.94592877231574,
belly,belly,,,,,,,,,0,63,63,63,,,,,,,,,,,,,,,1176.2577477999998,None,"['b', 'e', 'l', 'l', 'y']",1,"[0.6583871000002546, 0.8024857000000338, 0.8745782999999392, 1.0103431000002274, 1.0662999999999556]",1176.2577477999998,None,1176.25761613,None,s262,001,2024-01-23_09h23.24.580,test_typingtask_norepeats,2020.2.10,59.94592877231574,
haole,haole,,,,,,,,,0,64,64,64,,,,,,,,,,,,,,,1181.7577767000002,None,"['h', 'a', 'o', 'l', 'e']",1,"[0.7185027999998965, 0.8063885999999911, 0.918257100000119, 1.0862867999999253, 1.1344401999999718]",1181.7577767000002,None,1181.75764323,None,s262,001,2024-01-23_09h23.24.580,test_typingtask_norepeats,2020.2.10,59.94592877231574,
puppy,puppy,,,,,,,,,0,65,65,65,,,,,,,,,,,,,,,1187.2578325,None,"['p', 'u', 'p', 'p', 'y']",1,"[0.5782894999997552, 0.810314500000004, 0.9465371999999661, 1.0822384999996757, 1.178349999999682]",1187.2578325,None,1187.25766873,None,s262,001,2024-01-23_09h23.24.580,test_typingtask_norepeats,2020.2.10,59.94592877231574,
heond,heond,,,,,,,,,0,66,66,66,,,,,,,,,,,,,,,1192.7578411,None,"['h', 'e', 'o', 'n', 'd']",1,"[0.686255699999947, 0.7902436999997917, 0.9022672999999486, 0.9902554000000237, 1.1022331999997732]",1192.7578411,None,1192.7577250299998,None,s262,001,2024-01-23_09h23.24.580,test_typingtask_norepeats,2020.2.10,59.94592877231574,
would,would,,,,,,,,,0,67,67,67,,,,,,,,,,,,,,,1198.2578594000001,None,"['w', 'o', 'u', 'l', 'd']",1,"[0.5862176000000545, 0.7221961000000192, 0.7781620999999177, 1.0183586000002833, 1.1381913000000168]",1198.2578594000001,None,1198.25772333,None,s262,001,2024-01-23_09h23.24.580,test_typingtask_norepeats,2020.2.10,59.94592877231574,
druze,druze,,,,,,,,,0,68,68,68,,,,,,,,,,,,,,,1203.7581516,None,"['d', 'r', 'u', 'z', 'e']",1,"[0.629895999999917, 0.7819260000001123, 0.9181221000003461, 1.0139744000002793, 1.1500411000001804]",1203.7581516,None,1203.7577659300002,None,s262,001,2024-01-23_09h23.24.580,test_typingtask_norepeats,2020.2.10,59.94592877231574,
vodka,vodka,,,,,,,,,0,69,69,69,,,,,,,,,,,,,,,1209.2578996000002,None,"['v', 'o', 'd', 'k', 'a']",1,"[0.5941396000002896, 0.6902049000000261, 0.7862334000001283, 0.8902030000003833, 0.9781942000004165]",1209.2578996000002,None,1209.25778113,None,s262,001,2024-01-23_09h23.24.580,test_typingtask_norepeats,2020.2.10,59.94592877231574,
champ,champ,,,,,,,,,0,70,70,70,,,,,,,,,,,,,,,1214.7578824000002,None,"['c', 'h', 'a', 'm', 'p']",1,"[0.5741720999999416, 0.7021572999997261, 0.7981636999998045, 0.9581711999999243, 1.0142101999999795]",1214.7578824000002,None,1214.75784313,None,s262,001,2024-01-23_09h23.24.580,test_typingtask_norepeats,2020.2.10,59.94592877231574,
edthe,edthe,,,,,,,,,0,71,71,71,,,,,,,,,,,,,,,1220.2579225,None,"['e', 'd', 't', 'h', 'e']",1,"[0.5541172999996888, 0.7382188999999926, 0.9301406999998107, 1.0502498000000742, 1.114134699999795]",1220.2579225,None,1220.2578258300002,None,s262,001,2024-01-23_09h23.24.580,test_typingtask_norepeats,2020.2.10,59.94592877231574,
druze,druze,,,,,,,,,0,72,72,72,,,,,,,,,,,,,,,1225.7579775,None,"['d', 'r', 'u', 'z', 'e']",1,"[0.5660103000000163, 0.7501333000000159, 0.8623483999999735, 0.982149699999809, 1.1421222999997553]",1225.7579775,None,1225.7578145300001,None,s262,001,2024-01-23_09h23.24.580,test_typingtask_norepeats,2020.2.10,59.94592877231574,
would,would,,,,,,,,,0,73,73,73,,,,,,,,,,,,,,,1231.2579922999998,None,"['w', 'o', 'u', 'l', 'd']",1,"[0.5780620000000454, 0.7540948999999273, 0.8100952999998299, 1.0661229000002095, 1.114006100000097]",1231.2579922999998,None,1231.2578801299999,None,s262,001,2024-01-23_09h23.24.580,test_typingtask_norepeats,2020.2.10,59.94592877231574,
therm,therm,,,,,,,,,0,74,74,74,,,,,,,,,,,,,,,1236.7580232999999,None,"['t', 'h', 'e', 'r', 'm']",1,"[0.7259888999997202, 0.8460180999995828, 0.9100122999998348, 0.9659529999998995, 1.1179859999997461]",1236.7580232999999,None,1236.75792023,None,s262,001,2024-01-23_09h23.24.580,test_typingtask_norepeats,2020.2.10,59.94592877231574,
cheer,cheer,,,,,,,,,0,75,75,75,,,,,,,,,,,,,,,1242.2580621000002,None,"['c', 'h', 'e', 'e', 'r']",1,"[0.5459588999997322, 0.6899805999996715, 0.7939063999997416, 0.9220080000000053, 1.01786919999995]",1242.2580621000002,None,1242.25794493,None,s262,001,2024-01-23_09h23.24.580,test_typingtask_norepeats,2020.2.10,59.94592877231574,
heond,heond,,,,,,,,,0,76,76,76,,,,,,,,,,,,,,,1247.7580670000002,None,"['h', 'e', 'o', 'd']",0,"[0.7339517000000342, 0.8058893000002172, 0.9339137000001756, 1.1339962000001833]",1247.7580670000002,None,1247.7579530300002,None,s262,001,2024-01-23_09h23.24.580,test_typingtask_norepeats,2020.2.10,59.94592877231574,
cooed,cooed,,,,,,,,,0,77,77,77,,,,,,,,,,,,,,,1253.2581137000002,None,"['c', 'o', 'o', 'e', 'd']",1,"[0.7379361000002973, 0.857814800000142, 0.9858856000000742, 1.0898590000001604, 1.1618094999998902]",1253.2581137000002,None,1253.2579862300001,None,s262,001,2024-01-23_09h23.24.580,test_typingtask_norepeats,2020.2.10,59.94592877231574,
cheer,cheer,,,,,,,,,0,78,78,78,,,,,,,,,,,,,,,1258.7581324000002,None,"['c', 'h', 'e', 'e', 'r']",1,"[0.5658313999997517, 0.7017777999999453, 0.8059233999997559, 0.9417695000001913, 1.005855899999915]",1258.7581324000002,None,1258.75798973,None,s262,001,2024-01-23_09h23.24.580,test_typingtask_norepeats,2020.2.10,59.94592877231574,
about,about,,,,,,,,,0,79,79,79,,,,,,,,,,,,,,,1264.2581899000002,None,"['a', 'b', 'o', 'u', 't']",1,"[0.465887500000008, 0.6738327000002755, 0.7776880000001256, 0.8258374000001822, 0.9377643000002536]",1264.2581899000002,None,1264.2580721299998,None,s262,001,2024-01-23_09h23.24.580,test_typingtask_norepeats,2020.2.10,59.94592877231574,
belly,belly,,,,,,,,,0,80,80,80,,,,,,,,,,,,,,,1269.7582240000002,None,"['b', 'e', 'l', 'l', 'y']",1,"[0.6217105999999148, 0.7576788999999735, 0.8376944999999978, 0.9658122000000731, 1.0616746000000603]",1269.7582240000002,None,1269.7580608300002,None,s262,001,2024-01-23_09h23.24.580,test_typingtask_norepeats,2020.2.10,59.94592877231574,
pykka,pykka,,,,,,,,,0,81,81,81,,,,,,,,,,,,,,,1275.2582367,None,"['p', 'y', 'k', 'k', 'a']",1,"[0.5457519999999931, 0.7696986999999353, 0.9136834000000817, 1.0339170000002014, 1.0976321000002827]",1275.2582367,None,1275.25808833,None,s262,001,2024-01-23_09h23.24.580,test_typingtask_norepeats,2020.2.10,59.94592877231574,
kremp,kremp,,,,,,,,,0,82,82,82,,,,,,,,,,,,,,,1280.7582378000002,None,"['k', 'r', 'e', 'm', 'p']",1,"[0.7657014999999774, 0.9018997999996827, 0.9897079999996095, 1.0296652999995786, 1.1416800999995758]",1280.7582378000002,None,1280.75810793,None,s262,001,2024-01-23_09h23.24.580,test_typingtask_norepeats,2020.2.10,59.94592877231574,
belly,belly,,,,,,,,,0,83,83,83,,,,,,,,,,,,,,,1286.2582613999998,None,"['b', 'e', 'l', 'l', 'y']",1,"[0.7857238000001416, 0.9056335999998737, 0.985645900000236, 1.1216180999999779, 1.2176389999999628]",1286.2582613999998,None,1286.25809383,None,s262,001,2024-01-23_09h23.24.580,test_typingtask_norepeats,2020.2.10,59.94592877231574,
faqir,faqir,,,,,,,,,0,84,84,84,,,,,,,,,,,,,,,1291.7582859,None,"['f', 'a', 'q', 'i', 'r']",1,"[0.7736323999997694, 0.9416304000001219, 1.149634800000058, 1.2937449999999444, 1.4057084000000941]",1291.7582859,None,1291.7581530300001,None,s262,001,2024-01-23_09h23.24.580,test_typingtask_norepeats,2020.2.10,59.94592877231574,
champ,champ,,,,,,,,,0,85,85,85,,,,,,,,,,,,,,,1297.2583039,None,"['c', 'a', 'h', 'm', 'p']",0,"[0.5216559999998935, 0.6095280999998067, 0.7055620000000999, 1.3056821000000127, 1.3936131999998906]",1297.2583039,None,1297.2582186299999,None,s262,001,2024-01-23_09h23.24.580,test_typingtask_norepeats,2020.2.10,59.94592877231574,
theme,theme,,,,,,,,,0,86,86,86,,,,,,,,,,,,,,,1302.7584133999999,None,"['t', 'h', 'e', 'm', 'e']",1,"[0.6215726999998878, 0.693583100000069, 0.8294528999999784, 0.9334810000000289, 0.9894306000001052]",1302.7584133999999,None,1302.7582503300002,None,s262,001,2024-01-23_09h23.24.580,test_typingtask_norepeats,2020.2.10,59.94592877231574,
lucky,lucky,,,,,,,,,0,87,87,87,,,,,,,,,,,,,,,1308.2583857,None,"['l', 'u', 'c', 'k', 'y']",1,"[0.5455534000002444, 0.7295250000001943, 0.8894371000001229, 0.9694094999999834, 1.145629000000099]",1308.2583857,None,1308.2582534300002,None,s262,001,2024-01-23_09h23.24.580,test_typingtask_norepeats,2020.2.10,59.94592877231574,
about,about,,,,,,,,,0,88,88,88,,,,,,,,,,,,,,,1313.7584849999998,None,"['a', 'b', 'o', 'u', 't']",1,"[0.4613036999999167, 0.6613443000001098, 0.7814167999999881, 0.8453935000002275, 0.941348900000321]",1313.7584849999998,None,1313.75831093,None,s262,001,2024-01-23_09h23.24.580,test_typingtask_norepeats,2020.2.10,59.94592877231574,
cooed,cooed,,,,,,,,,0,89,89,89,,,,,,,,,,,,,,,1319.2584780000002,None,"['c', 'o', 'o', 'e', 'd']",1,"[0.5053601999998136, 0.6495497999999316, 0.7533287999999629, 0.8415042999999969, 0.9373860999999124]",1319.2584780000002,None,1319.25830763,None,s262,001,2024-01-23_09h23.24.580,test_typingtask_norepeats,2020.2.10,59.94592877231574,
puppy,puppy,,,,,,,,,0,90,90,90,,,,,,,,,,,,,,,1324.7585012999998,None,"['p', 'u', 'p', 'p', 'y']",1,"[0.8132990999997673, 1.0374348999998801, 1.1973745999998755, 1.3252674999998817, 1.4372907999995732]",1324.7585012999998,None,1324.7583722299998,None,s262,001,2024-01-23_09h23.24.580,test_typingtask_norepeats,2020.2.10,59.94592877231574,
think,think,,,,,,,,,0,91,91,91,,,,,,,,,,,,,,,1330.2584447,None,"['t', 'h', 'i', 'n', 'k']",1,"[0.6014905000001818, 0.6894075999998677, 0.7534614999999576, 0.8893877999998949, 0.9774053000001004]",1330.2584447,None,1330.2583461299998,None,s262,001,2024-01-23_09h23.24.580,test_typingtask_norepeats,2020.2.10,59.94592877231574,
haole,haole,,,,,,,,,0,92,92,92,,,,,,,,,,,,,,,1335.7584997,None,"['h', 'a', 'o', 'l', 'e']",1,"[0.5492766000002121, 0.6692793000001984, 0.7734480000003714, 0.9333796000000802, 1.0052687000002152]",1335.7584997,None,1335.7584030300002,None,s262,001,2024-01-23_09h23.24.580,test_typingtask_norepeats,2020.2.10,59.94592877231574,
there,there,,,,,,,,,0,93,93,93,,,,,,,,,,,,,,,1341.2585666999998,None,"['t', 'h', 'e', 'r', 'e']",1,"[0.7533561000000191, 0.8412309000000278, 0.9132174000001214, 0.9852393999999549, 1.0892361000001074]",1341.2585666999998,None,1341.2584364299998,None,s262,001,2024-01-23_09h23.24.580,test_typingtask_norepeats,2020.2.10,59.94592877231574,
edthe,edthe,,,,,,,,,0,94,94,94,,,,,,,,,,,,,,,1346.7585255,None,"['e', 'd', 't', 'h', 'e']",1,"[0.5093456999998125, 0.6852442999997947, 0.9093426999997973, 1.0372592999997323, 1.101370699999734]",1346.7585255,None,1346.7584026299999,None,s262,001,2024-01-23_09h23.24.580,test_typingtask_norepeats,2020.2.10,59.94592877231574,
lucky,lucky,,,,,,,,,0,95,95,95,,,,,,,,,,,,,,,1352.2585511000002,None,"['l', 'u', 'c', 'k', 'y']",1,"[0.6333143000001655, 0.8173851999999897, 0.977276300000085, 1.04933630000005, 1.2412609000002703]",1352.2585511000002,None,1352.25843693,None,s262,001,2024-01-23_09h23.24.580,test_typingtask_norepeats,2020.2.10,59.94592877231574,
kremp,kremp,,,,,,,,,0,96,96,96,,,,,,,,,,,,,,,1357.75857,None,"['k', 'r', 'e', 'm', 'p']",1,"[0.9572430999996868, 1.0612562999999682, 1.1492063000000599, 1.2212486999997054, 1.3332072999996853]",1357.75857,None,1357.7584703300001,None,s262,001,2024-01-23_09h23.24.580,test_typingtask_norepeats,2020.2.10,59.94592877231574,
vodka,vodka,,,,,,,,,0,97,97,97,,,,,,,,,,,,,,,1363.2588627,None,"['v', 'o', 'd', 'k', 'a']",1,"[0.6171736999999666, 0.7289608999999473, 0.8248520000001918, 0.9369836999999279, 1.0249656999999388]",1363.2588627,None,1363.25854293,None,s262,001,2024-01-23_09h23.24.580,test_typingtask_norepeats,2020.2.10,59.94592877231574,
would,would,,,,,,,,,0,98,98,98,,,,,,,,,,,,,,,1368.7587211999999,None,"['w', 'o', 'u', 'l', 'd']",1,"[0.5810391999998501, 0.7010718000001361, 0.7650352999999086, 1.0050433999999768, 1.0450707999998485]",1368.7587211999999,None,1368.75853703,None,s262,001,2024-01-23_09h23.24.580,test_typingtask_norepeats,2020.2.10,59.94592877231574,
theme,theme,,,,,,,,,0,99,99,99,,,,,,,,,,,,,,,1374.2586802,None,"['t', 'h', 'e', 'm', 'e']",1,"[0.5530913000002329, 0.6411025000002155, 0.7690761000003477, 0.8491382000001977, 0.9212317000001349]",1374.2586802,None,1374.25855433,None,s262,001,2024-01-23_09h23.24.580,test_typingtask_norepeats,2020.2.10,59.94592877231574,
faqir,faqir,,,,,,,,,0,100,100,100,,,,,,,,,,,,,,,1379.7587027999998,None,"['f', 'a', 'q', 'i', 'r']",1,"[0.8132385999997496, 0.9091878999997789, 1.1250680999996803, 1.2370716000000357, 1.3650886000000355]",1379.7587027999998,None,1379.7585747300002,None,s262,001,2024-01-23_09h23.24.580,test_typingtask_norepeats,2020.2.10,59.94592877231574,
vanru,vanru,,,,,,,,,0,101,101,101,,,,,,,,,,,,,,,1385.2587336000001,None,"['v', 'a', 'n', 'r', 'u']",1,"[0.7450323999996726, 0.889086899999711, 0.9850374999996347, 1.1289875999996184, 1.2411652999999205]",1385.2587336000001,None,1385.2585959300002,None,s262,001,2024-01-23_09h23.24.580,test_typingtask_norepeats,2020.2.10,59.94592877231574,
theme,theme,,,,,,,,,0,102,102,102,,,,,,,,,,,,,,,1390.7587591000001,None,"['t', 'h', 'e', 'm', 'e']",1,"[0.829004299999724, 0.9330135000000155, 1.0529668999997739, 1.1410754999997152, 1.2130828999997902]",1390.7587591000001,None,1390.75863103,None,s262,001,2024-01-23_09h23.24.580,test_typingtask_norepeats,2020.2.10,59.94592877231574,
belly,belly,,,,,,,,,0,103,103,103,,,,,,,,,,,,,,,1396.2587758,None,"['b', 'e', 'l', 'l', 'y']",1,"[0.6489639999999781, 0.7929981000002044, 0.8569681000003584, 1.000938700000006, 1.0968824000001405]",1396.2587758,None,1396.25865723,None,s262,001,2024-01-23_09h23.24.580,test_typingtask_norepeats,2020.2.10,59.94592877231574,
think,think,,,,,,,,,0,104,104,104,,,,,,,,,,,,,,,1401.758773,None,"['t', 'h', 'i', 'n', 'k']",1,"[0.6530240000001868, 0.7890009000002465, 0.9009463000002143, 1.0049902999999176, 1.0928947000002154]",1401.758773,None,1401.7586975299998,1401.8588018,s262,001,2024-01-23_09h23.24.580,test_typingtask_norepeats,2020.2.10,59.94592877231574,
vanru,vanru,,,,,,,,,0,105,105,105,,,,,,,,,,,,,,,1407.2588224,None,"['v', 'a', 'n', 'r', 'u']",1,"[0.5849371999997857, 0.7288668999999572, 0.8169757999999092, 0.9690590000000157, 1.0729763999997886]",1407.2588224,None,1407.2586588299998,1407.358788,s262,001,2024-01-23_09h23.24.580,test_typingtask_norepeats,2020.2.10,59.94592877231574,
pykka,pykka,,,,,,,,,0,106,106,106,,,,,,,,,,,,,,,1412.7588621,None,"['p', 'y', 'k', 'k', 'a']",1,"[0.6368658000001233, 0.8689499000001888, 0.9968191000002662, 1.1249434999999721, 1.2128464000002168]",1412.7588621,None,1412.7586944299999,1412.8588697,s262,001,2024-01-23_09h23.24.580,test_typingtask_norepeats,2020.2.10,59.94592877231574,
edthe,edthe,,,,,,,,,0,107,107,107,,,,,,,,,,,,,,,1418.2588414000002,None,"['e', 'd', 't', 'h', 'e']",1,"[0.5928843000001507, 0.7529193000000305, 1.0172017999998388, 1.1208587999999509, 1.2009913000001688]",1418.2588414000002,None,1418.2587559300002,1418.3588952,s262,001,2024-01-23_09h23.24.580,test_typingtask_norepeats,2020.2.10,59.94592877231574,
vanru,vanru,,,,,,,,,0,108,108,108,,,,,,,,,,,,,,,1423.7588784999998,None,"['v', 'a', 'n', 'r', 'u']",1,"[0.5170673999996325, 0.6448980999998639, 0.7489182999997865, 0.8928756999998768, 1.03686289999996]",1423.7588784999998,None,1423.7587844299999,1423.8588666,s262,001,2024-01-23_09h23.24.580,test_typingtask_norepeats,2020.2.10,59.94592877231574,
heond,heond,,,,,,,,,0,109,109,109,,,,,,,,,,,,,,,1429.2589220999998,None,"['h', 'e', 'o', 'n', 'd']",1,"[0.6087539999998626, 0.6887991999997212, 0.8010111999997207, 0.8647399999999834, 0.9928608000000168]",1429.2589220999998,None,1429.2588093299998,None,s262,001,2024-01-23_09h23.24.580,test_typingtask_norepeats,2020.2.10,59.94592877231574,
about,about,,,,,,,,,0,110,110,110,,,,,,,,,,,,,,,1434.7589532000002,None,"['a', 'b', 'o', 'u', 't']",1,"[0.46874479999996765, 0.6687772999998742, 0.7647173999998813, 0.8446544999997059, 0.9327518999998574]",1434.7589532000002,None,1434.7588168300001,None,s262,001,2024-01-23_09h23.24.580,test_typingtask_norepeats,2020.2.10,59.94592877231574,
pykka,pykka,,,,,,,,,0,111,111,111,,,,,,,,,,,,,,,1440.2590015,None,"['p', 'y', 'k', 'k', 'a']",1,"[0.577078100000108, 0.7767438999999285, 0.8966279999999642, 1.0407586000001174, 1.216667199999847]",1440.2590015,None,1440.25885903,1440.3590090000002,s262,001,2024-01-23_09h23.24.580,test_typingtask_norepeats,2020.2.10,59.94592877231574,
buddy,buddy,,,,,,,,,0,112,112,112,,,,,,,,,,,,,,,1445.7590086,None,"['b', 'u', 'd', 'd', 'y']",1,"[0.5646477000000232, 0.6847259999999551, 0.8046888999997464, 0.9486105999999381, 1.1486924999999246]",1445.7590086,None,1445.7588988300001,None,s262,001,2024-01-23_09h23.24.580,test_typingtask_norepeats,2020.2.10,59.94592877231574,
zibja,zibja,,,,,,,,,0,113,113,113,,,,,,,,,,,,,,,1451.2590315000002,None,"['z', 'i', 'b', 'j', 'a']",1,"[0.5606349000004229, 0.6965761000001294, 1.1206161000000066, 1.3045875000002525, 1.3766930000001594]",1451.2590315000002,None,1451.2589473300002,None,s262,001,2024-01-23_09h23.24.580,test_typingtask_norepeats,2020.2.10,59.94592877231574,
therm,therm,,,,,,,,,0,114,114,114,,,,,,,,,,,,,,,1456.7590432000002,None,"['t', 'h', 'e', 'r', 'm']",1,"[0.5966088999998647, 0.6927003999999215, 0.8046823999998196, 0.8606337999999596, 0.9727370999999039]",1456.7590432000002,None,1456.7589215300002,None,s262,001,2024-01-23_09h23.24.580,test_typingtask_norepeats,2020.2.10,59.94592877231574,
cooed,cooed,,,,,,,,,0,115,115,115,,,,,,,,,,,,,,,1462.2590807000001,None,"['c', 'o', 'o', 'e', 'd']",1,"[0.5445395000001554, 0.6645505000001322, 0.7685808999999608, 0.8966218000000481, 0.9685517000002619]",1462.2590807000001,None,1462.2589534300002,None,s262,001,2024-01-23_09h23.24.580,test_typingtask_norepeats,2020.2.10,59.94592877231574,
heond,heond,,,,,,,,,0,116,116,116,,,,,,,,,,,,,,,1467.7590779000002,None,"['h', 'e', 'o', 'n', 'd']",1,"[0.6125280999999632, 0.7405266999999185, 0.8525349999999889, 0.916509700000006, 1.004500999999891]",1467.7590779000002,None,1467.75898273,None,s262,001,2024-01-23_09h23.24.580,test_typingtask_norepeats,2020.2.10,59.94592877231574,
champ,champ,,,,,,,,,0,117,117,117,,,,,,,,,,,,,,,1473.2591398999998,None,"['c', 'h', 'a', 'm', 'p']",1,"[0.6007786000000124, 0.7124770999998873, 0.8324336999999105, 0.9286269999997785, 1.0405676999998832]",1473.2591398999998,None,1473.25897723,None,s262,001,2024-01-23_09h23.24.580,test_typingtask_norepeats,2020.2.10,59.94592877231574,
tithe,tithe,,,,,,,,,0,118,118,118,,,,,,,,,,,,,,,1478.7591256,None,"['t', 'i', 't', 'h', 'e']",1,"[0.5084726000000046, 0.6763897000000725, 0.8045494000002691, 0.8924387000001843, 0.9964509999999791]",1478.7591256,None,1478.75900023,None,s262,001,2024-01-23_09h23.24.580,test_typingtask_norepeats,2020.2.10,59.94592877231574,
haole,haole,,,,,,,,,0,119,119,119,,,,,,,,,,,,,,,1484.2591523,None,"['h', 'a', 'o', 'l', 'e']",1,"[0.6724263999999494, 0.824421099999654, 0.9524163999999473, 1.1204413000000386, 1.1683705999998892]",1484.2591523,None,1484.25915083,None,s262,001,2024-01-23_09h23.24.580,test_typingtask_norepeats,2020.2.10,59.94592877231574,
