string,corrAns,practice_trials.thisRepN,practice_trials.thisTrialN,practice_trials.thisN,practice_trials.thisIndex,trials_1.thisRepN,trials_1.thisTrialN,trials_1.thisN,trials_1.thisIndex,trials_2.thisRepN,trials_2.thisTrialN,trials_2.thisN,trials_2.thisIndex,key_resp_0.keys,key_resp_0.corr,key_resp_0.rt,text_1.started,text_1.stopped,key_resp_1.keys,key_resp_1.corr,key_resp_1.rt,key_resp_1.started,key_resp_1.stopped,sound_1A_1.started,sound_1A_1.stopped,break_time.started,break_time.stopped,text_2.started,text_2.stopped,key_resp_2.keys,key_resp_2.corr,key_resp_2.rt,key_resp_2.started,key_resp_2.stopped,sound_1A_2.started,sound_1A_2.stopped,participant,session,date,expName,psychopyVersion,frameRate,
fresh,fresh,0,0,0,0,,,,,,,,,"['f', 'r', 'e', 's', 'h']",1,"[1.774211399955675, 1.9262877999572083, 2.2461526000406593, 2.5421364000067115, 2.6943686000304297]",,,,,,,,,,,,,,,,,,,,,s263_01312024,001,2024-01-31_13h06.15.082,test_typingtask_norepeats,2020.2.10,59.99426453257514,
dream,dream,0,1,1,1,,,,,,,,,"['d', 'r', 'e', 'a', 'm']",1,"[1.026160000008531, 1.3703461000695825, 1.5222276999847963, 1.8503787000663579, 2.0901291000191122]",,,,,,,,,,,,,,,,,,,,,s263_01312024,001,2024-01-31_13h06.15.082,test_typingtask_norepeats,2020.2.10,59.99426453257514,
slime,slime,0,2,2,2,,,,,,,,,"['s', 'l', 'i', 'm', 'e']",1,"[0.9340750999981537, 1.1582171999616548, 1.3580952000338584, 1.5422451000194997, 1.6862231000559404]",,,,,,,,,,,,,,,,,,,,,s263_01312024,001,2024-01-31_13h06.15.082,test_typingtask_norepeats,2020.2.10,59.99426453257514,
champ,champ,,,,,0,0,0,0,,,,,,,,2222.1870167999296,None,"['c', 'h', 'a', 'm', 'p']",1,"[0.8985046999296173, 1.0182622999418527, 1.1782839000225067, 1.346375499968417, 1.562373899971135]",2222.1870167999296,None,2222.185901329969,2222.285975400009,,,,,,,,,,,,s263_01312024,001,2024-01-31_13h06.15.082,test_typingtask_norepeats,2020.2.10,59.99426453257514,
there,there,,,,,0,1,1,1,,,,,,,,2227.7026153999614,None,"['t', 'h', 'e', 'r', 'e']",1,"[0.84673190000467, 0.9827225001063198, 1.0947351000504568, 1.2226232000393793, 1.366703400039114]",2227.7026153999614,None,2227.702584629995,None,,,,,,,,,,,,s263_01312024,001,2024-01-31_13h06.15.082,test_typingtask_norepeats,2020.2.10,59.99426453257514,
champ,champ,,,,,0,2,2,2,,,,,,,,2233.2025982999476,None,"['c', 'h', 'a', 'm', 'p']",1,"[0.7947509998921305, 0.9067102998960763, 1.2987208999693394, 1.4588033999316394, 1.9867618998978287]",2233.2025982999476,None,2233.2026487300172,None,,,,,,,,,,,,s263_01312024,001,2024-01-31_13h06.15.082,test_typingtask_norepeats,2020.2.10,59.99426453257514,
tithe,tithe,,,,,0,3,3,3,,,,,,,,2238.702949499944,None,"['t', 'i', 't', 'h', 'e']",1,"[0.8303584000095725, 1.2225040000630543, 1.3344828999834135, 1.4143338000867516, 1.5823217000579461]",2238.702949499944,None,2238.7026376299327,None,,,,,,,,,,,,s263_01312024,001,2024-01-31_13h06.15.082,test_typingtask_norepeats,2020.2.10,59.99426453257514,
lucky,lucky,,,,,0,4,4,4,,,,,,,,2244.202644199948,None,"['l', 'u', 'c', 'k', 'y']",1,"[0.9628100000554696, 1.1546567000914365, 1.266606600023806, 1.4027465000981465, 1.714749800041318]",2244.202644199948,None,2244.2026613299968,None,,,,,,,,,,,,s263_01312024,001,2024-01-31_13h06.15.082,test_typingtask_norepeats,2020.2.10,59.99426453257514,
theme,theme,,,,,0,5,5,5,,,,,,,,2249.702627999941,None,"['t', 'h', 'e', 'm', 'e']",1,"[0.6946595999179408, 0.8145803998922929, 0.9587013999698684, 1.094609099905938, 1.2146505999844521]",2249.702627999941,None,2249.7026452299906,None,,,,,,,,,,,,s263_01312024,001,2024-01-31_13h06.15.082,test_typingtask_norepeats,2020.2.10,59.99426453257514,
therm,therm,,,,,0,6,6,6,,,,,,,,2255.2028206000105,None,"['t', 'h', 'e', 'r', 'm']",1,"[0.6664401999441907, 0.770422299974598, 0.9545151999918744, 1.1224587999749929, 1.3144988999702036]",2255.2028206000105,None,2255.202615229995,None,,,,,,,,,,,,s263_01312024,001,2024-01-31_13h06.15.082,test_typingtask_norepeats,2020.2.10,59.99426453257514,
tithe,tithe,,,,,0,7,7,7,,,,,,,,2260.702905599959,None,"['t', 'i', 't', 'h', 'e']",1,"[0.7023387000663206, 0.8865058000665158, 1.022476900019683, 1.054395499988459, 1.2543180000502616]",2260.702905599959,None,2260.70261723001,None,,,,,,,,,,,,s263_01312024,001,2024-01-31_13h06.15.082,test_typingtask_norepeats,2020.2.10,59.99426453257514,
druze,druze,,,,,0,8,8,8,,,,,,,,2266.2030310999835,None,"['d', 'r', 'u', 'z', 'e']",1,"[0.9541753999656066, 1.13021720002871, 1.2662649999838322, 1.762369200005196, 2.074367900029756]",2266.2030310999835,None,2266.2026934300084,None,,,,,,,,,,,,s263_01312024,001,2024-01-31_13h06.15.082,test_typingtask_norepeats,2020.2.10,59.99426453257514,
faqir,faqir,,,,,0,9,9,9,,,,,,,,2271.7029671999626,None,"['f', 'a', 'q', 'i', 'r']",1,"[1.1422839000588283, 1.758442800026387, 2.0623290999792516, 2.9504285999573767, 3.21428770001512]",2271.7029671999626,None,2271.7027100300184,None,,,,,,,,,,,,s263_01312024,001,2024-01-31_13h06.15.082,test_typingtask_norepeats,2020.2.10,59.99426453257514,
therm,therm,,,,,0,10,10,10,,,,,,,,2277.2026987000136,None,"['t', 'h', 'e', 'r', 'm']",1,"[0.7066252999939024, 0.8106419999385253, 0.9864770999411121, 1.2105037999572232, 1.338893000036478]",2277.2026987000136,None,2277.202701429953,None,,,,,,,,,,,,s263_01312024,001,2024-01-31_13h06.15.082,test_typingtask_norepeats,2020.2.10,59.99426453257514,
cooed,cooed,,,,,0,11,11,11,,,,,,,,2282.702663299977,None,"['c', 'o', 'o', 'e', 'd']",1,"[0.9508994000498205, 1.2305513999890536, 1.366559399990365, 1.5106140000279993, 1.678557200008072]",2282.702663299977,None,2282.7027578299167,None,,,,,,,,,,,,s263_01312024,001,2024-01-31_13h06.15.082,test_typingtask_norepeats,2020.2.10,59.99426453257514,
about,about,,,,,0,12,12,12,,,,,,,,2288.2027277000016,None,"['a', 'b', 'u', 't']",0,"[0.7705024000024423, 0.898462799959816, 1.1466628999914974, 1.314435699954629]",2288.2027277000016,None,2288.2027111299103,None,,,,,,,,,,,,s263_01312024,001,2024-01-31_13h06.15.082,test_typingtask_norepeats,2020.2.10,59.99426453257514,
puppy,puppy,,,,,0,13,13,13,,,,,,,,2293.7026953999884,None,"['p', 'u', 'p', 'p', 'y']",1,"[0.9749085999792442, 1.174742899951525, 1.4546256000176072, 1.5905515999766067, 1.6787328000646085]",2293.7026953999884,None,2293.702821629937,None,,,,,,,,,,,,s263_01312024,001,2024-01-31_13h06.15.082,test_typingtask_norepeats,2020.2.10,59.99426453257514,
cheer,cheer,,,,,0,14,14,14,,,,,,,,2299.2027830999577,None,"['c', 'h', 'e', 'e', 'r']",1,"[0.8343909999821335, 0.962398900068365, 1.1864557000808418, 1.3224110000301152, 1.4503888000035658]",2299.2027830999577,None,2299.2027575299144,None,,,,,,,,,,,,s263_01312024,001,2024-01-31_13h06.15.082,test_typingtask_norepeats,2020.2.10,59.99426453257514,
haole,haole,,,,,0,15,15,15,,,,,,,,2304.7029569000006,None,"['h', 'a', 'o', 'l', 'e']",1,"[0.9101902000838891, 1.1262363999849185, 1.350527200032957, 1.5102744000032544, 1.6145399999804795]",2304.7029569000006,None,2304.7028355299262,None,,,,,,,,,,,,s263_01312024,001,2024-01-31_13h06.15.082,test_typingtask_norepeats,2020.2.10,59.99426453257514,
edthe,edthe,,,,,0,16,16,16,,,,,,,,2310.202792399912,None,"['e', 'd', 't', 'h', 'e']",1,"[0.9383535999804735, 1.1303917999612167, 1.3304212000221014, 1.4264036000240594, 1.5144918999867514]",2310.202792399912,None,2310.2027878299123,None,,,,,,,,,,,,s263_01312024,001,2024-01-31_13h06.15.082,test_typingtask_norepeats,2020.2.10,59.99426453257514,
pykka,pykka,,,,,0,17,17,17,,,,,,,,2315.7027887000004,None,"['p', 'y', 'k', 'k', 'a']",1,"[1.1345649999566376, 1.3984440000494942, 1.7263456999789923, 1.8463563000550494, 2.0784606999950483]",2315.7027887000004,None,2315.7028023300227,None,,,,,,,,,,,,s263_01312024,001,2024-01-31_13h06.15.082,test_typingtask_norepeats,2020.2.10,59.99426453257514,
lucky,lucky,,,,,0,18,18,18,,,,,,,,2321.202774300007,None,"['l', 'u', 'k', 'y']",0,"[0.9863628000020981, 1.2184294000035152, 1.4904253999702632, 2.9625866999849677]",2321.202774300007,None,2321.202823729953,None,,,,,,,,,,,,s263_01312024,001,2024-01-31_13h06.15.082,test_typingtask_norepeats,2020.2.10,59.99426453257514,
zibja,zibja,,,,,0,19,19,19,,,,,,,,2326.702871999936,None,"['z', 'i', 'b', 'j', 'a']",1,"[1.1662574999500066, 1.326423899969086, 1.5424703999888152, 1.8703888000454754, 2.006391800008714]",2326.702871999936,None,2326.7028235299513,None,,,,,,,,,,,,s263_01312024,001,2024-01-31_13h06.15.082,test_typingtask_norepeats,2020.2.10,59.99426453257514,
haole,haole,,,,,0,20,20,20,,,,,,,,2332.202867300017,None,"['h', 'a', 'o', 'l', 'e']",1,"[1.0104324000421911, 1.2342592999339104, 1.4824209000216797, 1.6584532000124454, 1.826270499965176]",2332.202867300017,None,2332.20285132993,None,,,,,,,,,,,,s263_01312024,001,2024-01-31_13h06.15.082,test_typingtask_norepeats,2020.2.10,59.99426453257514,
cheer,cheer,,,,,0,21,21,21,,,,,,,,2337.7031529999804,None,"['c', 'h', 'e', 'e', 'r']",1,"[0.8779713999247178, 1.0060077999951318, 1.1660359998932108, 1.5180529999779537, 1.66196850000415]",2337.7031529999804,None,2337.7028617300093,None,,,,,,,,,,,,s263_01312024,001,2024-01-31_13h06.15.082,test_typingtask_norepeats,2020.2.10,59.99426453257514,
vanru,vanru,,,,,0,22,22,22,,,,,,,,2343.2028764999704,None,"['v', 'a', 'n', 'r', 'u']",1,"[1.0422755000181496, 1.1704483000794426, 1.3703906000591815, 1.8663888000883162, 1.9862393999937922]",2343.2028764999704,None,2343.2028818299295,None,,,,,,,,,,,,s263_01312024,001,2024-01-31_13h06.15.082,test_typingtask_norepeats,2020.2.10,59.99426453257514,
about,about,,,,,0,23,23,23,,,,,,,,2348.7029229999753,None,"['a', 'b', 'o', 'u', 't']",1,"[0.9182629999704659, 1.086147699970752, 1.2941760999383405, 1.4622707999078557, 1.5741843999130651]",2348.7029229999753,None,2348.7028404299635,None,,,,,,,,,,,,s263_01312024,001,2024-01-31_13h06.15.082,test_typingtask_norepeats,2020.2.10,59.99426453257514,
zibja,zibja,,,,,0,24,24,24,,,,,,,,2354.202826399938,None,"['z', 'i', 'b', 'j', 'a']",1,"[1.1382547999965027, 1.354257999919355, 1.5704923999728635, 1.7382636999245733, 1.8822636998957023]",2354.202826399938,None,2354.202859429992,None,,,,,,,,,,,,s263_01312024,001,2024-01-31_13h06.15.082,test_typingtask_norepeats,2020.2.10,59.99426453257514,
kremp,kremp,,,,,0,25,25,25,,,,,,,,2359.7029344999464,None,"['k', 'r', 'e', 'm', 'p']",1,"[1.1981716000009328, 1.3742694000247866, 1.534110500011593, 2.0702495999867097, 2.2541670000646263]",2359.7029344999464,None,2359.7029308299534,None,,,,,,,,,,,,s263_01312024,001,2024-01-31_13h06.15.082,test_typingtask_norepeats,2020.2.10,59.99426453257514,
belly,belly,,,,,0,26,26,26,,,,,,,,2365.202906499966,None,"['b', 'e', 'l', 'l', 'y']",1,"[0.9703177000628784, 1.130356500041671, 1.4421786000020802, 1.5701836000662297, 1.7381484999787062]",2365.202906499966,None,2365.202904929989,None,,,,,,,,,,,,s263_01312024,001,2024-01-31_13h06.15.082,test_typingtask_norepeats,2020.2.10,59.99426453257514,
tithe,tithe,,,,,0,27,27,27,,,,,,,,2370.702916499926,None,"['t', 'i', 't', 'h', 'e']",1,"[0.9821661999449134, 1.1021437000017613, 1.2142376999836415, 1.3021425999468192, 1.4463372000027448]",2370.702916499926,None,2370.7029336299747,None,,,,,,,,,,,,s263_01312024,001,2024-01-31_13h06.15.082,test_typingtask_norepeats,2020.2.10,59.99426453257514,
theme,theme,,,,,0,28,28,28,,,,,,,,2376.2029643999413,None,"['t', 'h', 'e', 'm', 'e']",1,"[0.658177400007844, 0.7541420001070946, 0.8980454000411555, 1.0180815000785515, 1.1221598000265658]",2376.2029643999413,None,2376.202959229937,None,,,,,,,,,,,,s263_01312024,001,2024-01-31_13h06.15.082,test_typingtask_norepeats,2020.2.10,59.99426453257514,
lucky,lucky,,,,,0,29,29,29,,,,,,,,2381.702977799927,None,"['l', 'u', 'c', 'k', 'y']",1,"[0.8380901999771595, 1.062247599940747, 1.2700207999441773, 1.3660366999683902, 1.5580893999431282]",2381.702977799927,None,2381.7029607299482,None,,,,,,,,,,,,s263_01312024,001,2024-01-31_13h06.15.082,test_typingtask_norepeats,2020.2.10,59.99426453257514,
cooed,cooed,,,,,0,30,30,30,,,,,,,,2387.2029625999276,None,"['c', 'o', 'o', 'e', 'd']",1,"[0.8980690999887884, 1.1140992000000551, 1.2501798999728635, 1.3860256999032572, 1.5383473999099806]",2387.2029625999276,None,2387.2029891299317,None,,,,,,,,,,,,s263_01312024,001,2024-01-31_13h06.15.082,test_typingtask_norepeats,2020.2.10,59.99426453257514,
edthe,edthe,,,,,0,31,31,31,,,,,,,,2392.7030753999716,None,"['e', 'd', 't', 'h', 'e']",1,"[0.8701003000605851, 1.0380355999805033, 1.2299962000688538, 1.3100379999959841, 1.4299984000390396]",2392.7030753999716,None,2392.7029499299824,None,,,,,,,,,,,,s263_01312024,001,2024-01-31_13h06.15.082,test_typingtask_norepeats,2020.2.10,59.99426453257514,
buddy,buddy,,,,,0,32,32,32,,,,,,,,2398.2029977999628,None,"['b', 'u', 'd', 'd', 'y']",1,"[0.8021778000984341, 0.9780568000860512, 1.105994600104168, 1.242018699995242, 1.3781293000793085]",2398.2029977999628,None,2398.203015630017,None,,,,,,,,,,,,s263_01312024,001,2024-01-31_13h06.15.082,test_typingtask_norepeats,2020.2.10,59.99426453257514,
puppy,puppy,,,,,0,33,33,33,,,,,,,,2403.7033829999855,None,"['p', 'u', 'p', 'p', 'y']",1,"[1.005630400031805, 1.2217733999714255, 1.501897000009194, 1.6536881999345496, 1.7656051999656484]",2403.7033829999855,None,2403.702964529977,None,,,,,,,,,,,,s263_01312024,001,2024-01-31_13h06.15.082,test_typingtask_norepeats,2020.2.10,59.99426453257514,
would,would,,,,,0,34,34,34,,,,,,,,2409.2030417999486,None,"['w', 'o', 'u', 'l', 'd']",1,"[0.9859299000818282, 1.1619453000603244, 1.2981692000757903, 1.482126299990341, 1.690116300014779]",2409.2030417999486,None,2409.203056529979,None,,,,,,,,,,,,s263_01312024,001,2024-01-31_13h06.15.082,test_typingtask_norepeats,2020.2.10,59.99426453257514,
zibja,zibja,,,,,0,35,35,35,,,,,,,,2414.7030719999457,None,"['z', 'i', 'b', 'j', 'a']",1,"[1.4459086999995634, 1.5738991999533027, 2.070026599918492, 2.245851399959065, 2.4139888999052346]",2414.7030719999457,None,2414.703017229913,None,,,,,,,,,,,,s263_01312024,001,2024-01-31_13h06.15.082,test_typingtask_norepeats,2020.2.10,59.99426453257514,
vodka,vodka,,,,,0,36,36,36,,,,,,,,2420.2030881999526,None,"['v', 'o', 'd', 'k', 'a']",1,"[0.9459074001060799, 1.089979900047183, 1.3539302001008764, 1.506071100011468, 1.6178942000260577]",2420.2030881999526,None,2420.2030709299725,None,,,,,,,,,,,,s263_01312024,001,2024-01-31_13h06.15.082,test_typingtask_norepeats,2020.2.10,59.99426453257514,
haole,haole,,,,,0,37,37,37,,,,,,,,2425.7030603999738,None,"['h', 'a', 'o', 'l', 'e']",1,"[0.9020126999821514, 1.0700574000366032, 1.5100675000576302, 1.709978900034912, 1.8058858000440523]",2425.7030603999738,None,2425.703127929941,None,,,,,,,,,,,,s263_01312024,001,2024-01-31_13h06.15.082,test_typingtask_norepeats,2020.2.10,59.99426453257514,
heond,heond,,,,,0,38,38,38,,,,,,,,2431.2031146999216,None,"['h', 'e', 'o', 'n', 'd']",1,"[0.8740134999388829, 1.362493499997072, 1.5058290999149904, 1.770035699941218, 1.9939878999721259]",2431.2031146999216,None,2431.203145329957,None,,,,,,,,,,,,s263_01312024,001,2024-01-31_13h06.15.082,test_typingtask_norepeats,2020.2.10,59.99426453257514,
vanru,vanru,,,,,0,39,39,39,,,,,,,,2436.7031282999087,None,"['v', 'a', 'n', 'r', 'u']",1,"[0.8380699999397621, 1.005929599981755, 1.1181529000168666, 1.2779806000180542, 1.405956899980083]",2436.7031282999087,None,2436.703109229915,None,,,,,,,,,,,,s263_01312024,001,2024-01-31_13h06.15.082,test_typingtask_norepeats,2020.2.10,59.99426453257514,
there,there,,,,,0,40,40,40,,,,,,,,2442.203138299985,None,"['t', 'h', 'e', 'r', 'e']",1,"[0.777828500024043, 0.8898759000003338, 0.9858623000327498, 1.1138428000267595, 1.2499628000659868]",2442.203138299985,None,2442.2038253300125,None,,,,,,,,,,,,s263_01312024,001,2024-01-31_13h06.15.082,test_typingtask_norepeats,2020.2.10,59.99426453257514,
would,would,,,,,0,41,41,41,,,,,,,,2447.7031345999567,None,"['w', 'o', 'u', 'l', 'd']",1,"[0.9739630999974906, 1.3343591000884771, 1.5417884000344202, 1.861815300071612, 1.9499069000594318]",2447.7031345999567,None,2447.7031309299637,None,,,,,,,,,,,,s263_01312024,001,2024-01-31_13h06.15.082,test_typingtask_norepeats,2020.2.10,59.99426453257514,
haole,haole,,,,,0,42,42,42,,,,,,,,2453.2031371999765,None,"['h', 'a', 'o', 'l', 'e']",1,"[0.8498318999772891, 0.937853500014171, 1.0979128000326455, 1.28174680005759, 1.3937983000651002]",2453.2031371999765,None,2453.2031753299525,None,,,,,,,,,,,,s263_01312024,001,2024-01-31_13h06.15.082,test_typingtask_norepeats,2020.2.10,59.99426453257514,
would,would,,,,,0,43,43,43,,,,,,,,2458.703171000001,None,"['w', 'o', 'u', 'l', 'd']",1,"[0.9259322000434622, 1.069757999968715, 1.1736905999714509, 1.3897954999702051, 1.4777194999624044]",2458.703171000001,None,2458.703182330006,2458.8032527000178,,,,,,,,,,,,s263_01312024,001,2024-01-31_13h06.15.082,test_typingtask_norepeats,2020.2.10,59.99426453257514,
puppy,puppy,,,,,0,44,44,44,,,,,,,,2464.2031922999304,None,"['p', 'u', 'p', 'p', 'y']",1,"[1.073842899990268, 1.289751600008458, 1.5456986000062898, 1.68972079991363, 1.7776329999323934]",2464.2031922999304,None,2464.2032069299603,None,,,,,,,,,,,,s263_01312024,001,2024-01-31_13h06.15.082,test_typingtask_norepeats,2020.2.10,59.99426453257514,
druze,druze,,,,,0,45,45,45,,,,,,,,2469.703224799945,None,"['d', 'd', 'r', 'r', 'u', 's', 'e']",0,"[0.9098781999200583, 1.0376752999145538, 1.061638499959372, 1.6938957999227569, 2.693702799966559, 2.781891099992208, 2.965785599895753]",2469.703224799945,None,2469.7032208299497,2469.8032098999247,,,,,,,,,,,,s263_01312024,001,2024-01-31_13h06.15.082,test_typingtask_norepeats,2020.2.10,59.99426453257514,
think,think,,,,,0,46,46,46,,,,,,,,2475.203197999974,None,"['t', 'h', 'i', 'n', 'k']",1,"[0.8736559000099078, 0.9697718999814242, 1.1217628000304103, 1.2818534999387339, 1.38578749995213]",2475.203197999974,None,2475.20325803,2475.3033066999633,,,,,,,,,,,,s263_01312024,001,2024-01-31_13h06.15.082,test_typingtask_norepeats,2020.2.10,59.99426453257514,
kremp,kremp,,,,,0,47,47,47,,,,,,,,2480.703239299939,None,"['k', 'r', 'e', 'm', 'p']",1,"[0.9417996999109164, 1.037726099952124, 1.1896291999146342, 1.325608899933286, 1.4458315999945626]",2480.703239299939,None,2480.703205429949,2480.8032682000194,,,,,,,,,,,,s263_01312024,001,2024-01-31_13h06.15.082,test_typingtask_norepeats,2020.2.10,59.99426453257514,
tithe,tithe,,,,,0,48,48,48,,,,,,,,2486.2032329000067,None,"['t', 'i', 'h', 't', 'e']",0,"[0.841838699998334, 1.0016514000017196, 1.105598199996166, 2.4016889999620616, 3.289701299974695]",2486.2032329000067,None,2486.2033602299634,2486.303254599916,,,,,,,,,,,,s263_01312024,001,2024-01-31_13h06.15.082,test_typingtask_norepeats,2020.2.10,59.99426453257514,
buddy,buddy,,,,,0,49,49,49,,,,,,,,2491.7032478000037,None,"['n', 'u', 'd', 'd', 'y']",0,"[1.365818400052376, 1.4855619999580085, 1.5976641000015661, 1.7417144000064582, 1.9097122000530362]",2491.7032478000037,None,2491.7032930299174,2491.8032226000214,,,,,,,,,,,,s263_01312024,001,2024-01-31_13h06.15.082,test_typingtask_norepeats,2020.2.10,59.99426453257514,
there,there,,,,,0,50,50,50,,,,,,,,2497.2033429999137,None,"['t', 'h', 'e', 'r', 'e']",1,"[0.8255218000849709, 0.9374738000333309, 1.0335867000976577, 1.1695342999882996, 1.2255352000938728]",2497.2033429999137,None,2497.203303229995,None,,,,,,,,,,,,s263_01312024,001,2024-01-31_13h06.15.082,test_typingtask_norepeats,2020.2.10,59.99426453257514,
druze,druze,,,,,0,51,51,51,,,,,,,,2502.7033250000095,None,"['d', 'r', 'u', 'z', 'e']",1,"[1.0297290000598878, 1.1896571000106633, 1.9575165000278503, 2.0135611000005156, 2.229450899991207]",2502.7033250000095,None,2502.7033300299663,2502.803340099985,,,,,,,,,,,,s263_01312024,001,2024-01-31_13h06.15.082,test_typingtask_norepeats,2020.2.10,59.99426453257514,
cooed,cooed,,,,,0,52,52,52,,,,,,,,2508.203316899948,None,"['c', 'o', 'o', 'e', 'd']",1,"[1.1615988000994548, 1.5694779000477865, 1.7135696000186726, 1.8574736000737175, 2.02549520006869]",2508.203316899948,None,2508.2033377299085,None,,,,,,,,,,,,s263_01312024,001,2024-01-31_13h06.15.082,test_typingtask_norepeats,2020.2.10,59.99426453257514,
druze,druze,,,,,0,53,53,53,,,,,,,,2513.7033705000067,None,"['d', 'r', 'u', 'z', 'e']",1,"[0.8055871999822557, 1.0615874000359327, 1.52560439996887, 1.6856149999657646, 1.9414614000124857]",2513.7033705000067,None,2513.7033892299514,None,,,,,,,,,,,,s263_01312024,001,2024-01-31_13h06.15.082,test_typingtask_norepeats,2020.2.10,59.99426453257514,
think,think,,,,,0,54,54,54,,,,,,,,2519.203387300018,None,"['t', 'h', 'i', 'n', 'k']",1,"[0.8336642000358552, 1.0013980999356136, 1.2337404999416322, 1.377406199928373, 1.5614954000338912]",2519.203387300018,None,2519.203343429952,None,,,,,,,,,,,,s263_01312024,001,2024-01-31_13h06.15.082,test_typingtask_norepeats,2020.2.10,59.99426453257514,
about,about,,,,,0,55,55,55,,,,,,,,2524.703459899989,None,"['a', 's', 'b', 'o', 'u', 't']",0,"[0.7895489999791607, 0.7895489999791607, 1.4454961000010371, 1.7493787000421435, 1.9334541000425816, 2.045255900011398]",2524.703459899989,None,2524.7033901299583,None,,,,,,,,,,,,s263_01312024,001,2024-01-31_13h06.15.082,test_typingtask_norepeats,2020.2.10,59.99426453257514,
faqir,faqir,,,,,0,56,56,56,,,,,,,,2530.2033878999064,None,"['f', 'a', 'q', 'i', 'r']",1,"[0.9536207999335602, 1.8815316000254825, 2.137494600028731, 2.745379599975422, 2.8654151000082493]",2530.2033878999064,None,2530.203417629935,None,,,,,,,,,,,,s263_01312024,001,2024-01-31_13h06.15.082,test_typingtask_norepeats,2020.2.10,59.99426453257514,
cheer,cheer,,,,,0,57,57,57,,,,,,,,2535.7033969999757,None,"['c', 'h', 'e', 'e', 'r']",1,"[1.005455799982883, 1.181442000088282, 1.5414053000276908, 1.8294298000400886, 1.9733512999955565]",2535.7033969999757,None,2535.7034199299524,None,,,,,,,,,,,,s263_01312024,001,2024-01-31_13h06.15.082,test_typingtask_norepeats,2020.2.10,59.99426453257514,
kremp,kremp,,,,,0,58,58,58,,,,,,,,2541.2034073999384,None,"['k', 'r', 'e', 'm', 'p']",1,"[1.0973929999163374, 1.2654784999322146, 1.4173865999327973, 1.5773742999881506, 1.7533267999533564]",2541.2034073999384,None,2541.2034004299203,None,,,,,,,,,,,,s263_01312024,001,2024-01-31_13h06.15.082,test_typingtask_norepeats,2020.2.10,59.99426453257514,
heond,heond,,,,,0,59,59,59,,,,,,,,2546.704181100009,None,"['h', 'e', 'o', 'u', 'n', 'd']",0,"[1.1007628999650478, 1.2126760999672115, 1.404513599933125, 1.5405707999598235, 2.7245580999879166, 2.852638299926184]",2546.704181100009,None,2546.703513729968,None,,,,,,,,,,,,s263_01312024,001,2024-01-31_13h06.15.082,test_typingtask_norepeats,2020.2.10,59.99426453257514,
would,would,,,,,0,60,60,60,,,,,,,,2552.203450199915,None,"['w', 'o', 'u', 'o', 'l', 'd']",0,"[0.8734477999387309, 1.08933570003137, 1.2333347999956459, 1.457291999948211, 1.4652481999946758, 1.7372979000210762]",2552.203450199915,None,2552.2034916299162,None,,,,,,,,,,,,s263_01312024,001,2024-01-31_13h06.15.082,test_typingtask_norepeats,2020.2.10,59.99426453257514,
faqir,faqir,,,,,0,61,61,61,,,,,,,,2557.70347399998,None,"['f', 'a', 'q', 'i', 'r']",1,"[0.8372927000746131, 1.1253977000014856, 1.6693512999918312, 1.9893271999899298, 2.165274200029671]",2557.70347399998,None,2557.703515029978,None,,,,,,,,,,,,s263_01312024,001,2024-01-31_13h06.15.082,test_typingtask_norepeats,2020.2.10,59.99426453257514,
edthe,edthe,,,,,0,62,62,62,,,,,,,,2563.20351199992,None,"['e', 'd', 't', 'h', 'e']",1,"[0.7931545999599621, 0.9773421999998391, 1.1453337999992073, 1.25713879999239, 1.3453414000105113]",2563.20351199992,None,2563.2034998299787,None,,,,,,,,,,,,s263_01312024,001,2024-01-31_13h06.15.082,test_typingtask_norepeats,2020.2.10,59.99426453257514,
cheer,cheer,,,,,0,63,63,63,,,,,,,,2568.7035423999187,None,"['c', 'h', 'e', 'e', 'r']",1,"[0.7732864000136033, 0.9252790999598801, 1.0531481999205425, 1.2052000999683514, 1.3331612999318168]",2568.7035423999187,None,2568.703553529922,None,,,,,,,,,,,,s263_01312024,001,2024-01-31_13h06.15.082,test_typingtask_norepeats,2020.2.10,59.99426453257514,
pykka,pykka,,,,,0,64,64,64,,,,,,,,2574.2035168999573,None,"['p', 'y', 'k', 'k', 'a']",1,"[1.3696265000617132, 1.633430500049144, 1.9372710000025108, 2.033257700037211, 2.489213600056246]",2574.2035168999573,None,2574.203582129907,None,,,,,,,,,,,,s263_01312024,001,2024-01-31_13h06.15.082,test_typingtask_norepeats,2020.2.10,59.99426453257514,
edthe,edthe,,,,,0,65,65,65,,,,,,,,2579.7035529999994,None,"['e', 'd', 't', 'h', 'a']",0,"[0.8691690999548882, 1.077310899971053, 1.2132771000033244, 1.3812422000337392, 1.477176700020209]",2579.7035529999994,None,2579.7035463299835,None,,,,,,,,,,,,s263_01312024,001,2024-01-31_13h06.15.082,test_typingtask_norepeats,2020.2.10,59.99426453257514,
champ,champ,,,,,0,66,66,66,,,,,,,,2585.203594499966,None,"['c', 'h', 'a', 'm', 'p']",1,"[0.8731092000380158, 1.0172454999992624, 1.1371352000860497, 1.2811769000254571, 1.4811976000200957]",2585.203594499966,None,2585.2035682299174,None,,,,,,,,,,,,s263_01312024,001,2024-01-31_13h06.15.082,test_typingtask_norepeats,2020.2.10,59.99426453257514,
druze,druze,,,,,0,67,67,67,,,,,,,,2590.703645600006,None,"['d', 'r', 'u', 'z', 'e']",1,"[0.8530482000205666, 1.3252235000254586, 1.5170293999835849, 1.9176213999744505, 2.141063499962911]",2590.703645600006,None,2590.7036159299314,None,,,,,,,,,,,,s263_01312024,001,2024-01-31_13h06.15.082,test_typingtask_norepeats,2020.2.10,59.99426453257514,
zibja,zibja,,,,,0,68,68,68,,,,,,,,2596.203621399938,None,"['z', 'i', 'b', 'j', 'a']",1,"[1.2490619999589399, 1.3932624999433756, 1.553221899899654, 1.71323189989198, 1.8329691999824718]",2596.203621399938,None,2596.203599529923,None,,,,,,,,,,,,s263_01312024,001,2024-01-31_13h06.15.082,test_typingtask_norepeats,2020.2.10,59.99426453257514,
there,there,,,,,0,69,69,69,,,,,,,,2601.7036586999893,None,"['t', 'h', 'e', 'r', 'e']",1,"[1.125082700047642, 1.2210310000227764, 1.3810701000038534, 1.5890218999702483, 1.7009519999846816]",2601.7036586999893,None,2601.703623229987,None,,,,,,,,,,,,s263_01312024,001,2024-01-31_13h06.15.082,test_typingtask_norepeats,2020.2.10,59.99426453257514,
cheer,cheer,,,,,0,70,70,70,,,,,,,,2607.2036505999276,None,"['c', 'h', 'e', 'e', 'r']",1,"[1.1529694999335334, 1.2809815999353305, 1.433061399962753, 1.5929891999112442, 1.721104500000365]",2607.2036505999276,None,2607.20368082996,None,,,,,,,,,,,,s263_01312024,001,2024-01-31_13h06.15.082,test_typingtask_norepeats,2020.2.10,59.99426453257514,
pykka,pykka,,,,,0,71,71,71,,,,,,,,2612.7036612000084,None,"['p', 'y', 'k', 'k', 'a']",1,"[1.477046399959363, 1.8371451999992132, 2.2770895999856293, 2.388994300039485, 2.5809889000374824]",2612.7036612000084,None,2612.70369872998,None,,,,,,,,,,,,s263_01312024,001,2024-01-31_13h06.15.082,test_typingtask_norepeats,2020.2.10,59.99426453257514,
faqir,faqir,,,,,0,72,72,72,,,,,,,,2618.2037322999677,None,"['f', 'a', 'q', 'i', 'r']",1,"[0.8568715000292286, 1.1449150000698864, 1.5609772000461817, 1.9848914000904188, 2.137042900081724]",2618.2037322999677,None,2618.2037120299647,None,,,,,,,,,,,,s263_01312024,001,2024-01-31_13h06.15.082,test_typingtask_norepeats,2020.2.10,59.99426453257514,
haole,haole,,,,,0,73,73,73,,,,,,,,2623.703736700001,None,"['h', 'a', 'o', 'l', 'e']",1,"[0.8770271999528632, 1.1089355000294745, 1.3411292999517173, 1.5249533000169322, 1.6369800999527797]",2623.703736700001,None,2623.7037399299443,None,,,,,,,,,,,,s263_01312024,001,2024-01-31_13h06.15.082,test_typingtask_norepeats,2020.2.10,59.99426453257514,
theme,theme,,,,,0,74,74,74,,,,,,,,2629.203714399948,None,"['t', 'h', 'e', 'm', 'e']",1,"[0.984913400025107, 1.081004000036046, 1.2330693000694737, 1.3369295001029968, 1.4328439000528306]",2629.203714399948,None,2629.203754929942,None,,,,,,,,,,,,s263_01312024,001,2024-01-31_13h06.15.082,test_typingtask_norepeats,2020.2.10,59.99426453257514,
therm,therm,,,,,0,75,75,75,,,,,,,,2634.7037554999115,None,"['t', 'h', 'e', 'r', 'm']",1,"[0.820862099993974, 0.9009883999824524, 1.0610285999719054, 1.1889684000052512, 1.2128976000240073]",2634.7037554999115,None,2634.7038079299964,None,,,,,,,,,,,,s263_01312024,001,2024-01-31_13h06.15.082,test_typingtask_norepeats,2020.2.10,59.99426453257514,
about,about,,,,,0,76,76,76,,,,,,,,2640.203772299923,None,"['a', 'b', 'o', 'u', 't']",1,"[0.8170011999318376, 0.9128237999975681, 1.0808346000267193, 1.1447965999832377, 1.256808599922806]",2640.203772299923,None,2640.203785629943,None,,,,,,,,,,,,s263_01312024,001,2024-01-31_13h06.15.082,test_typingtask_norepeats,2020.2.10,59.99426453257514,
faqir,faqir,,,,,0,77,77,77,,,,,,,,2645.70381169999,None,"['f', 'a', 'q', 'i', 'r']",1,"[0.7167859999462962, 0.9089748000260442, 1.508906599949114, 1.7889675999758765, 1.9247734999516979]",2645.70381169999,None,2645.7038003299385,None,,,,,,,,,,,,s263_01312024,001,2024-01-31_13h06.15.082,test_typingtask_norepeats,2020.2.10,59.99426453257514,
heond,heond,,,,,0,78,78,78,,,,,,,,2651.2037965999916,None,"['h', 'e', 'o', 'n', 'd']",1,"[0.8728214000584558, 1.016959400032647, 1.4409860000014305, 1.5927554999943823, 1.6810220000334084]",2651.2037965999916,None,2651.2037895299727,None,,,,,,,,,,,,s263_01312024,001,2024-01-31_13h06.15.082,test_typingtask_norepeats,2020.2.10,59.99426453257514,
theme,theme,,,,,0,79,79,79,,,,,,,,2656.703854799969,None,"['t', 'h', 'e', 'r', 'm', 'e']",0,"[0.6926854000193998, 0.7807120999787003, 0.9327221000567079, 0.9487070000031963, 1.0447114000562578, 1.1327231000177562]",2656.703854799969,None,2656.7038493299624,None,,,,,,,,,,,,s263_01312024,001,2024-01-31_13h06.15.082,test_typingtask_norepeats,2020.2.10,59.99426453257514,
lucky,lucky,,,,,0,80,80,80,,,,,,,,2662.2039087999146,None,"['l', 'u', 'c', 'k', 'y']",1,"[1.080668899929151, 1.24067530001048, 1.3448767999652773, 1.4566521999659017, 1.600648200022988]",2662.2039087999146,None,2662.203844529926,None,,,,,,,,,,,,s263_01312024,001,2024-01-31_13h06.15.082,test_typingtask_norepeats,2020.2.10,59.99426453257514,
vodka,vodka,,,,,0,81,81,81,,,,,,,,2667.7038729999913,None,"['v', 'o', 'd', 'k', 'a']",1,"[1.0608711000531912, 1.228821499971673, 1.6367000000318512, 1.7408556999871507, 1.9167340999701992]",2667.7038729999913,None,2667.7038555300096,None,,,,,,,,,,,,s263_01312024,001,2024-01-31_13h06.15.082,test_typingtask_norepeats,2020.2.10,59.99426453257514,
there,there,,,,,0,82,82,82,,,,,,,,2673.2038781999145,None,"['t', 'h', 'e', 'r', 'e']",1,"[0.8728289999999106, 0.9848686999175698, 1.0807710000080988, 1.1528474999358878, 1.2647727000294253]",2673.2038781999145,None,2673.203931630007,None,,,,,,,,,,,,s263_01312024,001,2024-01-31_13h06.15.082,test_typingtask_norepeats,2020.2.10,59.99426453257514,
heond,heond,,,,,0,83,83,83,,,,,,,,2678.7039465999696,None,"['h', 'e', 'o', 'n', 'd']",1,"[1.0526973999803886, 1.1486216000048444, 1.3085568000096828, 1.5246934000169858, 1.612679300014861]",2678.7039465999696,None,2678.7039309300017,None,,,,,,,,,,,,s263_01312024,001,2024-01-31_13h06.15.082,test_typingtask_norepeats,2020.2.10,59.99426453257514,
buddy,buddy,,,,,0,84,84,84,,,,,,,,2684.2039780999767,None,"['b', 'u', 'd', 'd', 'y']",1,"[0.8009885000064969, 0.9285360000794753, 0.9846537000266835, 1.1366734000621364, 1.3206526000285521]",2684.2039780999767,None,2684.203917530016,None,,,,,,,,,,,,s263_01312024,001,2024-01-31_13h06.15.082,test_typingtask_norepeats,2020.2.10,59.99426453257514,
belly,belly,,,,,0,85,85,85,,,,,,,,2689.7039938999806,None,"['b', 'e', 'l', 'l', 'y']",1,"[0.820536500075832, 1.0365211999742314, 1.356776800006628, 1.5085257000755519, 1.588480000034906]",2689.7039938999806,None,2689.7039928300073,None,,,,,,,,,,,,s263_01312024,001,2024-01-31_13h06.15.082,test_typingtask_norepeats,2020.2.10,59.99426453257514,
vanru,vanru,,,,,0,86,86,86,,,,,,,,2695.2040157999145,None,"['v', 'a', 'n', 'r', 'u']",1,"[0.8084979999111965, 1.0084599999245256, 1.144762699957937, 1.3684972999617457, 1.504654899938032]",2695.2040157999145,None,2695.2039935300127,None,,,,,,,,,,,,s263_01312024,001,2024-01-31_13h06.15.082,test_typingtask_norepeats,2020.2.10,59.99426453257514,
belly,belly,,,,,0,87,87,87,,,,,,,,2700.7040368999587,None,"['b', 'e', 'l', 'l', 'y']",1,"[0.8125991000561044, 1.0444451000075787, 1.3329414000036195, 1.46043550001923, 1.5804034000029787]",2700.7040368999587,None,2700.704057029914,None,,,,,,,,,,,,s263_01312024,001,2024-01-31_13h06.15.082,test_typingtask_norepeats,2020.2.10,59.99426453257514,
puppy,puppy,,,,,0,88,88,88,,,,,,,,2706.2040432000067,None,"['p', 'u', 'p', 'p', 'y']",1,"[1.0164486999856308, 1.2644537999294698, 1.5285726999863982, 1.6805245999712497, 1.7604507999494672]",2706.2040432000067,None,2706.2040469299536,None,,,,,,,,,,,,s263_01312024,001,2024-01-31_13h06.15.082,test_typingtask_norepeats,2020.2.10,59.99426453257514,
kremp,kremp,,,,,0,89,89,89,,,,,,,,2711.7040671999566,None,"['k', 'r', 'e', 'm', 'p']",1,"[0.8924397000810131, 1.0203778001014143, 1.1643789000809193, 1.3007109999889508, 1.4204998000059277]",2711.7040671999566,None,2711.70404033002,None,,,,,,,,,,,,s263_01312024,001,2024-01-31_13h06.15.082,test_typingtask_norepeats,2020.2.10,59.99426453257514,
theme,theme,,,,,0,90,90,90,,,,,,,,2717.2040617999155,None,"['t', 'h', 'e', 'm', 'e']",1,"[0.7365917999995872, 0.8404798998963088, 0.9925916999345645, 1.096531799994409, 1.2086455998942256]",2717.2040617999155,None,2717.204177330015,None,,,,,,,,,,,,s263_01312024,001,2024-01-31_13h06.15.082,test_typingtask_norepeats,2020.2.10,59.99426453257514,
buddy,buddy,,,,,0,91,91,91,,,,,,,,2722.704116499983,None,"['b', 'u', 'd', 'd', 'y']",1,"[0.764298899914138, 0.900376999983564, 1.0204384999815375, 1.148503299918957, 1.3323425999842584]",2722.704116499983,None,2722.7040725299157,None,,,,,,,,,,,,s263_01312024,001,2024-01-31_13h06.15.082,test_typingtask_norepeats,2020.2.10,59.99426453257514,
cooed,cooed,,,,,0,92,92,92,,,,,,,,2728.204104400007,None,"['c', 'o', 'o', 'e', 'd']",1,"[0.9045997998910025, 1.1525736999465153, 1.2883609998971224, 1.3843256999971345, 1.5362558999331668]",2728.204104400007,None,2728.204088229919,None,,,,,,,,,,,,s263_01312024,001,2024-01-31_13h06.15.082,test_typingtask_norepeats,2020.2.10,59.99426453257514,
therm,therm,,,,,0,93,93,93,,,,,,,,2733.7041293999646,None,"['t', 'h', 'e', 'r', 'm']",1,"[0.8364194000605494, 0.940421300008893, 1.0765296999597922, 1.1483634000178427, 1.252462700009346]",2733.7041293999646,None,2733.704143029987,None,,,,,,,,,,,,s263_01312024,001,2024-01-31_13h06.15.082,test_typingtask_norepeats,2020.2.10,59.99426453257514,
would,would,,,,,0,94,94,94,,,,,,,,2739.20423579996,None,"['w', 'o', 'u', 'l', 'd']",1,"[1.0164756999583915, 1.1763406000100076, 1.2882607999490574, 1.4883129999507219, 1.608270899974741]",2739.20423579996,None,2739.20420723001,None,,,,,,,,,,,,s263_01312024,001,2024-01-31_13h06.15.082,test_typingtask_norepeats,2020.2.10,59.99426453257514,
belly,belly,,,,,0,95,95,95,,,,,,,,2744.7042154999217,None,"['b', 'e', 'l', 'l', 'y']",1,"[0.9562038000440225, 1.164343300042674, 1.4442115999991074, 1.5722454000497237, 1.6603112000739202]",2744.7042154999217,None,2744.704212629935,None,,,,,,,,,,,,s263_01312024,001,2024-01-31_13h06.15.082,test_typingtask_norepeats,2020.2.10,59.99426453257514,
vodka,vodka,,,,,0,96,96,96,,,,,,,,2750.204204599955,None,"['v', 'o', 'a', 'k']",0,"[0.9123184999916703, 1.1123329000547528, 2.080393100040965, 2.1761956000700593]",2750.204204599955,None,2750.204249029979,None,,,,,,,,,,,,s263_01312024,001,2024-01-31_13h06.15.082,test_typingtask_norepeats,2020.2.10,59.99426453257514,
zibja,zibja,,,,,0,97,97,97,,,,,,,,2755.7042101999978,None,"['z', 'i', 'b', 'j', 'a']",1,"[1.5882739000953734, 1.7403244000161067, 1.9882745000068098, 2.1321328000631183, 2.2683508000336587]",2755.7042101999978,None,2755.7042604299495,None,,,,,,,,,,,,s263_01312024,001,2024-01-31_13h06.15.082,test_typingtask_norepeats,2020.2.10,59.99426453257514,
kremp,kremp,,,,,0,98,98,98,,,,,,,,2761.2042043999536,None,"['k', 'r', 'e', 'm', 'p']",1,"[0.976186600048095, 1.0802531000226736, 1.2003258999902755, 1.2404703999636695, 1.4003434999613091]",2761.2042043999536,None,2761.204289229936,None,,,,,,,,,,,,s263_01312024,001,2024-01-31_13h06.15.082,test_typingtask_norepeats,2020.2.10,59.99426453257514,
cooed,cooed,,,,,0,99,99,99,,,,,,,,2766.7042427000124,None,"['c', 'o', 'o', 'd']",0,"[0.8602339999051765, 1.1003469999413937, 1.2841895999154076, 1.5561566998949274]",2766.7042427000124,None,2766.7043052299414,None,,,,,,,,,,,,s263_01312024,001,2024-01-31_13h06.15.082,test_typingtask_norepeats,2020.2.10,59.99426453257514,
pykka,pykka,,,,,0,100,100,100,,,,,,,,2772.204285999993,None,"['p', 'y', 'k', 'k', 'a']",1,"[1.280098699964583, 1.5281944000162184, 1.8240804999368265, 1.952155299950391, 2.08008909993805]",2772.204285999993,None,2772.204306629952,None,,,,,,,,,,,,s263_01312024,001,2024-01-31_13h06.15.082,test_typingtask_norepeats,2020.2.10,59.99426453257514,
tithe,tithe,,,,,0,101,101,101,,,,,,,,2777.704288900015,None,"['t', 'i', 'h', 't', 'e']",0,"[0.7319954999256879, 0.9082424999214709, 1.044017200008966, 1.0841352000134066, 1.8842744999565184]",2777.704288900015,None,2777.7043247299735,None,,,,,,,,,,,,s263_01312024,001,2024-01-31_13h06.15.082,test_typingtask_norepeats,2020.2.10,59.99426453257514,
puppy,puppy,,,,,0,102,102,102,,,,,,,,2783.204596299911,None,"['p', 'u', 'p', 'p', 'y']",1,"[1.1679210000438616, 1.4078898000298068, 1.6557821000460535, 1.7999249000567943, 1.9519279000815004]",2783.204596299911,None,2783.2043350299355,None,,,,,,,,,,,,s263_01312024,001,2024-01-31_13h06.15.082,test_typingtask_norepeats,2020.2.10,59.99426453257514,
buddy,buddy,,,,,0,103,103,103,,,,,,,,2788.7043760999804,None,"['b', 'u', 'd', 'd', 'y']",1,"[0.9959213000256568, 1.1642426999751478, 1.332098999992013, 1.4839302999898791, 1.5959491999819875]",2788.7043760999804,None,2788.7043902300065,None,,,,,,,,,,,,s263_01312024,001,2024-01-31_13h06.15.082,test_typingtask_norepeats,2020.2.10,59.99426453257514,
vodka,vodka,,,,,0,104,104,104,,,,,,,,2794.204354999936,None,"['v', 'o', 'd', 'k', 'a']",1,"[1.0480407000286505, 1.6001507000764832, 1.9841379000572488, 2.0882161000045016, 2.1998876000288874]",2794.204354999936,None,2794.204353829962,None,,,,,,,,,,,,s263_01312024,001,2024-01-31_13h06.15.082,test_typingtask_norepeats,2020.2.10,59.99426453257514,
edthe,edthe,,,,,0,105,105,105,,,,,,,,2799.7043816999067,None,"['e', 't', 'h', 'a', 's']",0,"[0.9240838999394327, 1.2119585999753326, 1.3320640999590978, 1.4439824000000954, 1.4600993999047205]",2799.7043816999067,None,2799.7044967300026,None,,,,,,,,,,,,s263_01312024,001,2024-01-31_13h06.15.082,test_typingtask_norepeats,2020.2.10,59.99426453257514,
therm,therm,,,,,0,106,106,106,,,,,,,,2805.2047142999945,None,"['t', 'h', 'e', 'r', 'm']",1,"[0.7197824999457225, 0.7756079999962822, 0.9437697000103071, 0.9996689999243245, 1.11956239992287]",2805.2047142999945,None,2805.2044697299134,2805.30439830001,,,,,,,,,,,,s263_01312024,001,2024-01-31_13h06.15.082,test_typingtask_norepeats,2020.2.10,59.99426453257514,
champ,champ,,,,,0,107,107,107,,,,,,,,2810.7044241999974,None,"['c', 'h', 'a', 'm', 'p']",1,"[0.7160179000347853, 0.8358165000099689, 0.9238380999304354, 1.059826200013049, 1.236020499956794]",2810.7044241999974,None,2810.704435129999,2810.80450009997,,,,,,,,,,,,s263_01312024,001,2024-01-31_13h06.15.082,test_typingtask_norepeats,2020.2.10,59.99426453257514,
think,think,,,,,0,108,108,108,,,,,,,,2816.20444329991,None,"['t', 'h', 'i', 'n', 'k']",1,"[0.7518854999216273, 0.880022699944675, 1.047799599939026, 1.1681949999183416, 1.3358342999126762]",2816.20444329991,None,2816.2044378300197,2816.3044645999325,,,,,,,,,,,,s263_01312024,001,2024-01-31_13h06.15.082,test_typingtask_norepeats,2020.2.10,59.99426453257514,
vanru,vanru,,,,,0,109,109,109,,,,,,,,2821.704507999937,None,"['v', 'a', 'n', 'r', 'u']",1,"[1.0279320999979973, 1.1958968000253662, 1.3557608000701293, 1.5239248999860138, 1.6358184000710025]",2821.704507999937,None,2821.7044722299324,2821.804489800008,,,,,,,,,,,,s263_01312024,001,2024-01-31_13h06.15.082,test_typingtask_norepeats,2020.2.10,59.99426453257514,
vodka,vodka,,,,,0,110,110,110,,,,,,,,2827.20450969995,None,"['v', 'o', 'd', 'k', 'a']",1,"[0.9037185000488535, 1.1917358000064269, 1.3278024999890476, 1.4318509000586346, 1.5758538000518456]",2827.20450969995,None,2827.2045124300057,2827.3045527999057,,,,,,,,,,,,s263_01312024,001,2024-01-31_13h06.15.082,test_typingtask_norepeats,2020.2.10,59.99426453257514,
think,think,,,,,0,111,111,111,,,,,,,,2832.7045089999447,None,"['t', 'h', 'i', 'n', 'k']",1,"[0.723854299983941, 0.8437405000440776, 0.9958702999865636, 1.1077692999970168, 1.259881000034511]",2832.7045089999447,None,2832.7045436300104,2832.804546499974,,,,,,,,,,,,s263_01312024,001,2024-01-31_13h06.15.082,test_typingtask_norepeats,2020.2.10,59.99426453257514,
belly,belly,,,,,0,112,112,112,,,,,,,,2838.204581699916,None,"['b', 'e', 'l', 'l', 'y']",1,"[0.7277177000651136, 0.9116384000517428, 1.1996513000922278, 1.3437411000486463, 1.4396352000767365]",2838.204581699916,None,2838.2045734300045,2838.30459840002,,,,,,,,,,,,s263_01312024,001,2024-01-31_13h06.15.082,test_typingtask_norepeats,2020.2.10,59.99426453257514,
heond,heond,,,,,0,113,113,113,,,,,,,,2843.704598299926,None,"['h', 'e', 'o', 'n', 'd']",1,"[0.8196542999939993, 0.9157033999217674, 1.1156820999458432, 1.3477021999424323, 1.4356337999925017]",2843.704598299926,None,2843.704605230014,2843.804550400004,,,,,,,,,,,,s263_01312024,001,2024-01-31_13h06.15.082,test_typingtask_norepeats,2020.2.10,59.99426453257514,
think,think,,,,,0,114,114,114,,,,,,,,2849.20460930001,None,"['t', 'h', 'i', 'n', 'k']",1,"[0.823725999915041, 0.9355663999449462, 1.079597899923101, 1.2556703999871388, 1.3915983999613672]",2849.20460930001,None,2849.2045932299225,None,,,,,,,,,,,,s263_01312024,001,2024-01-31_13h06.15.082,test_typingtask_norepeats,2020.2.10,59.99426453257514,
champ,champ,,,,,0,115,115,115,,,,,,,,2854.704600799945,None,"['c', 'h', 'a', 'm', 'o']",0,"[0.851597800035961, 0.9557346999645233, 1.1236160999396816, 1.6996640999568626, 1.8515762999886647]",2854.704600799945,None,2854.704630729975,None,,,,,,,,,,,,s263_01312024,001,2024-01-31_13h06.15.082,test_typingtask_norepeats,2020.2.10,59.99426453257514,
pykka,pykka,,,,,0,116,116,116,,,,,,,,2860.2053895000136,None,"['p', 'y', 'k', 'k', 'a']",1,"[1.3829280999489129, 1.7349224999779835, 2.126799099962227, 2.238812599913217, 2.4468592999037355]",2860.2053895000136,None,2860.2046587299556,None,,,,,,,,,,,,s263_01312024,001,2024-01-31_13h06.15.082,test_typingtask_norepeats,2020.2.10,59.99426453257514,
lucky,lucky,,,,,0,117,117,117,,,,,,,,2865.704694999964,None,"['l', 'u', 'c', 'k', 'y']",1,"[1.027556899935007, 1.2996964999474585, 1.4197372000198811, 1.5554663999937475, 1.771528200013563]",2865.704694999964,None,2865.704634230002,None,,,,,,,,,,,,s263_01312024,001,2024-01-31_13h06.15.082,test_typingtask_norepeats,2020.2.10,59.99426453257514,
vanru,vanru,,,,,0,118,118,118,,,,,,,,2871.2046992999967,None,"['v', 'c', 'n', 'r', 'u']",0,"[1.0715384000213817, 1.0794857000000775, 1.2875133999623358, 1.4554577000671998, 1.4634896999923512]",2871.2046992999967,None,2871.20471392991,None,,,,,,,,,,,,s263_01312024,001,2024-01-31_13h06.15.082,test_typingtask_norepeats,2020.2.10,59.99426453257514,
about,about,,,,,0,119,119,119,,,,,,,,2876.704752499936,None,"['a', 'b', 'o', 'u', 't']",1,"[1.1795041000004858, 1.3394357000943273, 1.5555858000880107, 1.6195318000391126, 1.7713928000302985]",2876.704752499936,None,2876.7046605299693,None,,,,,,,,,,,,s263_01312024,001,2024-01-31_13h06.15.082,test_typingtask_norepeats,2020.2.10,59.99426453257514,
champ,champ,,,,,,,,,0,0,0,0,,,,,,,,,,,,,2882.2047553999582,None,2914.5715712999227,None,"['c', 'h', 'a', 'm', 'p']",1,"[1.1685698999790475, 1.248801299952902, 1.92059429991059, 1.992524999892339, 2.1686137999640778]",2914.5715712999227,None,2914.571557760006,None,s263_01312024,001,2024-01-31_13h06.15.082,test_typingtask_norepeats,2020.2.10,59.99426453257514,
vodka,vodka,,,,,,,,,0,1,1,1,,,,,,,,,,,,,,,2920.0715924999677,None,"['v', 'o', 'd', 'k', 'a']",1,"[0.7326734000816941, 1.0765640999889001, 1.2207935000769794, 1.3246085999999195, 1.428506200085394]",2920.0715924999677,None,2920.071590429987,None,s263_01312024,001,2024-01-31_13h06.15.082,test_typingtask_norepeats,2020.2.10,59.99426453257514,
would,would,,,,,,,,,0,2,2,2,,,,,,,,,,,,,,,2925.571580799995,None,"['w', 'o', 'u', 'l', 'd']",1,"[0.8645610000239685, 1.064735500025563, 1.2245339000364766, 1.4087040000595152, 1.5446045000571758]",2925.571580799995,None,2925.571601829957,None,s263_01312024,001,2024-01-31_13h06.15.082,test_typingtask_norepeats,2020.2.10,59.99426453257514,
tithe,tithe,,,,,,,,,0,3,3,3,,,,,,,,,,,,,,,2931.0715793999843,None,"['t', 'i', 'u', 't', 'h', 'e']",0,"[0.748558699968271, 0.8925328999757767, 0.9004551999969408, 0.9564952000509948, 1.060492799966596, 1.180604900000617]",2931.0715793999843,None,2931.07163142995,None,s263_01312024,001,2024-01-31_13h06.15.082,test_typingtask_norepeats,2020.2.10,59.99426453257514,
about,about,,,,,,,,,0,4,4,4,,,,,,,,,,,,,,,2936.5716218999587,None,"['a', 'b', 'o', 'u', 't']",1,"[0.7606686000945047, 0.9204212001059204, 1.0965867000631988, 1.1685932000400499, 1.3046115000033751]",2936.5716218999587,None,2936.571610230021,None,s263_01312024,001,2024-01-31_13h06.15.082,test_typingtask_norepeats,2020.2.10,59.99426453257514,
zibja,zibja,,,,,,,,,0,5,5,5,,,,,,,,,,,,,,,2942.0716590000084,None,"['z', 'i', 'b', 'a', 'j']",0,"[1.0604754999512807, 1.1804023999720812, 1.3564431000268087, 1.5165364999556914, 1.5885619999608025]",2942.0716590000084,None,2942.071684830007,None,s263_01312024,001,2024-01-31_13h06.15.082,test_typingtask_norepeats,2020.2.10,59.99426453257514,
druze,druze,,,,,,,,,0,6,6,6,,,,,,,,,,,,,,,2947.571710799937,None,"['d', 'r', 'u', 'z', 'e']",1,"[0.8243840999202803, 1.008414699928835, 1.4245208000065759, 1.5763920999597758, 1.7924329999368638]",2947.571710799937,None,2947.571687629912,None,s263_01312024,001,2024-01-31_13h06.15.082,test_typingtask_norepeats,2020.2.10,59.99426453257514,
cheer,cheer,,,,,,,,,0,7,7,7,,,,,,,,,,,,,,,2953.0716505999444,None,"['c', 'h', 'e', 'e', 'r']",1,"[0.7405785000883043, 0.916586900013499, 1.0203972000163049, 1.2045682000461966, 1.2524778000079095]",2953.0716505999444,None,2953.071694729966,None,s263_01312024,001,2024-01-31_13h06.15.082,test_typingtask_norepeats,2020.2.10,59.99426453257514,
vanru,vanru,,,,,,,,,0,8,8,8,,,,,,,,,,,,,,,2958.571765300003,None,"['v', 'a', 'n', 'r', 'u']",1,"[1.0004711999790743, 1.0963003999786451, 1.2642549000447616, 1.840324499993585, 1.9122986999573186]",2958.571765300003,None,2958.5717129299883,None,s263_01312024,001,2024-01-31_13h06.15.082,test_typingtask_norepeats,2020.2.10,59.99426453257514,
kremp,kremp,,,,,,,,,0,9,9,9,,,,,,,,,,,,,,,2964.0721225999296,None,"['k', 'r', 'e', 'm', 'p']",1,"[0.8599294999148697, 0.9799600999103859, 1.1400131999980658, 1.2439480000175536, 1.3799017999554053]",2964.0721225999296,None,2964.0717921300093,None,s263_01312024,001,2024-01-31_13h06.15.082,test_typingtask_norepeats,2020.2.10,59.99426453257514,
there,there,,,,,,,,,0,10,10,10,,,,,,,,,,,,,,,2969.5721520999214,None,"['t', 'h', 'e', 'r', 'e']",1,"[0.7520202999003232, 0.8480750999879092, 0.9918708999175578, 1.0958325999090448, 1.248213299899362]",2969.5721520999214,None,2969.5717866299674,None,s263_01312024,001,2024-01-31_13h06.15.082,test_typingtask_norepeats,2020.2.10,59.99426453257514,
pykka,pykka,,,,,,,,,0,11,11,11,,,,,,,,,,,,,,,2975.071932199993,None,"['p', 'y', 'k', 'k', 'a']",1,"[1.0682764999801293, 1.3402372000273317, 1.6681157000130042, 1.804111500037834, 1.9241278000408784]",2975.071932199993,None,2975.0717877299758,None,s263_01312024,001,2024-01-31_13h06.15.082,test_typingtask_norepeats,2020.2.10,59.99426453257514,
edthe,edthe,,,,,,,,,0,12,12,12,,,,,,,,,,,,,,,2980.5717781999847,None,"['e', 'd', 't', 'h', 'a', 's']",0,"[0.8562259000027552, 1.0402256000088528, 1.2003513000672683, 1.360358600039035, 1.4642292000353336, 1.4642292000353336]",2980.5717781999847,None,2980.5718312299578,None,s263_01312024,001,2024-01-31_13h06.15.082,test_typingtask_norepeats,2020.2.10,59.99426453257514,
think,think,,,,,,,,,0,13,13,13,,,,,,,,,,,,,,,2986.072063999949,None,"['t', 'h', 'i', 'n', 'k']",1,"[0.7240758000407368, 0.9002948000561446, 1.0439891000278294, 1.1959957000799477, 1.324284900096245]",2986.072063999949,None,2986.0718582299305,None,s263_01312024,001,2024-01-31_13h06.15.082,test_typingtask_norepeats,2020.2.10,59.99426453257514,
cooed,cooed,,,,,,,,,0,14,14,14,,,,,,,,,,,,,,,2991.5718737000134,None,"['c', 'o', 'o', 'e', 'd']",1,"[0.9522418000269681, 1.2321472000330687, 1.3601260000141338, 1.4960900000296533, 1.6561446000123397]",2991.5718737000134,None,2991.5718845300144,None,s263_01312024,001,2024-01-31_13h06.15.082,test_typingtask_norepeats,2020.2.10,59.99426453257514,
therm,therm,,,,,,,,,0,15,15,15,,,,,,,,,,,,,,,2997.072090999922,None,"['t', 'h', 'e', 'r', 'm']",1,"[0.6200338000198826, 0.7000671001151204, 0.8600293000927195, 1.1239193000365049, 1.2041291000787169]",2997.072090999922,None,2997.0718377300072,None,s263_01312024,001,2024-01-31_13h06.15.082,test_typingtask_norepeats,2020.2.10,59.99426453257514,
lucky,lucky,,,,,,,,,0,16,16,16,,,,,,,,,,,,,,,3002.5720617999323,None,"['l', 'u', 'c', 'k', 'y']",1,"[1.431946499971673, 1.6479722999501973, 1.8719004999147728, 2.039938599918969, 2.2079236999852583]",3002.5720617999323,None,3002.5719242299674,None,s263_01312024,001,2024-01-31_13h06.15.082,test_typingtask_norepeats,2020.2.10,59.99426453257514,
edthe,edthe,,,,,,,,,0,17,17,17,,,,,,,,,,,,,,,3008.0719460999826,None,"['e', 'd', 't', 'h', 'a', 's']",0,"[0.8280931999906898, 1.0040600000647828, 1.1481310999952257, 1.2841668000910431, 1.3640272000338882, 1.388024999992922]",3008.0719460999826,None,3008.071929030004,None,s263_01312024,001,2024-01-31_13h06.15.082,test_typingtask_norepeats,2020.2.10,59.99426453257514,
druze,druze,,,,,,,,,0,18,18,18,,,,,,,,,,,,,,,3013.5723342999117,None,"['d', 'r', 'u', 'z', 'e']",1,"[0.8397139000007883, 1.0236059000017121, 1.447819699998945, 1.5515956999734044, 1.759647099999711]",3013.5723342999117,None,3013.57193852996,3013.6719608999556,s263_01312024,001,2024-01-31_13h06.15.082,test_typingtask_norepeats,2020.2.10,59.99426453257514,
vodka,vodka,,,,,,,,,0,19,19,19,,,,,,,,,,,,,,,3019.0720143999206,None,"['v', 'o', 'd', 'k', 'a']",1,"[0.9240813999203965, 1.2120158999459818, 1.396108299959451, 1.4760863999836147, 1.63604419992771]",3019.0720143999206,None,3019.071982329944,3019.1720819999464,s263_01312024,001,2024-01-31_13h06.15.082,test_typingtask_norepeats,2020.2.10,59.99426453257514,
puppy,puppy,,,,,,,,,0,20,20,20,,,,,,,,,,,,,,,3024.572354499949,None,"['p', 'u', 'p', 'p', 'y']",1,"[1.4636241000844166, 1.727733200066723, 2.039626100100577, 2.1915798000991344, 2.4077339000068605]",3024.572354499949,None,3024.5720270299353,3024.6720150000183,s263_01312024,001,2024-01-31_13h06.15.082,test_typingtask_norepeats,2020.2.10,59.99426453257514,
cooed,cooed,,,,,,,,,0,21,21,21,,,,,,,,,,,,,,,3030.0723388999468,None,"['c', 'o', 'o', 'e', 'd']",1,"[1.0917274000821635, 1.3476047000149265, 1.5076684000669047, 1.5957533000037074, 1.7716587000759318]",3030.0723388999468,None,3030.0720401299186,3030.1720540999668,s263_01312024,001,2024-01-31_13h06.15.082,test_typingtask_norepeats,2020.2.10,59.99426453257514,
zibja,zibja,,,,,,,,,0,22,22,22,,,,,,,,,,,,,,,3035.5720787999453,None,"['z', 'i', 'b', 'j', 'a']",1,"[1.7198879999341443, 1.8878464999143034, 2.0318457999965176, 2.2318634999683127, 2.704058100003749]",3035.5720787999453,None,3035.572188129998,3035.672022499959,s263_01312024,001,2024-01-31_13h06.15.082,test_typingtask_norepeats,2020.2.10,59.99426453257514,
heond,heond,,,,,,,,,0,23,23,23,,,,,,,,,,,,,,,3041.0720936999423,None,"['h', 'e', 'n', 'd']",0,"[1.0679350999416783, 1.2277794999536127, 1.4997972999699414, 2.4597621998982504]",3041.0720936999423,None,3041.072093429975,3041.1721040999983,s263_01312024,001,2024-01-31_13h06.15.082,test_typingtask_norepeats,2020.2.10,59.99426453257514,
think,think,,,,,,,,,0,24,24,24,,,,,,,,,,,,,,,3046.5722711000126,None,"['t', 'h', 'i', 'n', 'k']",1,"[0.9198103999951854, 1.095752299996093, 1.1355874999426305, 1.3756360999541357, 1.4236730999546126]",3046.5722711000126,None,3046.5721211299533,3046.6721904999577,s263_01312024,001,2024-01-31_13h06.15.082,test_typingtask_norepeats,2020.2.10,59.99426453257514,
belly,belly,,,,,,,,,0,25,25,25,,,,,,,,,,,,,,,3052.0721185000148,None,"['b', 'e', 'l', 'l', 'y']",1,"[0.8677406000206247, 1.003730500000529, 1.3159702999982983, 1.4597798000322655, 1.5478307999437675]",3052.0721185000148,None,3052.0721546299756,3052.1721847999142,s263_01312024,001,2024-01-31_13h06.15.082,test_typingtask_norepeats,2020.2.10,59.99426453257514,
think,think,,,,,,,,,0,26,26,26,,,,,,,,,,,,,,,3057.5721217999235,None,"['t', 'h', 'i', 'n', 'k']",1,"[0.7118983999826014, 0.8637356999097392, 1.0158187999622896, 1.1358032999560237, 1.2879547999473289]",3057.5721217999235,None,3057.5721746300114,None,s263_01312024,001,2024-01-31_13h06.15.082,test_typingtask_norepeats,2020.2.10,59.99426453257514,
lucky,lucky,,,,,,,,,0,27,27,27,,,,,,,,,,,,,,,3063.07217900001,None,"['l', 'u', 'c', 'k', 'y']",1,"[1.0198383999522775, 1.227807900053449, 1.4117499999701977, 1.5876863000448793, 1.8037708000047132]",3063.07217900001,None,3063.0721593300113,None,s263_01312024,001,2024-01-31_13h06.15.082,test_typingtask_norepeats,2020.2.10,59.99426453257514,
zibja,zibja,,,,,,,,,0,28,28,28,,,,,,,,,,,,,,,3068.5721723999595,None,"['z', 'i', 'b', 'j', 'a']",1,"[1.231804299983196, 1.4316448000026867, 1.5997324000345543, 1.7917241000104696, 1.9198177000507712]",3068.5721723999595,None,3068.5722254299326,None,s263_01312024,001,2024-01-31_13h06.15.082,test_typingtask_norepeats,2020.2.10,59.99426453257514,
puppy,puppy,,,,,,,,,0,29,29,29,,,,,,,,,,,,,,,3074.0722369999858,None,"['p', 'u', 'p', 'p', 'y']",1,"[0.923656800063327, 1.155793400015682, 1.339588199974969, 1.4757076000096276, 1.5716018000384793]",3074.0722369999858,None,3074.0722371300217,None,s263_01312024,001,2024-01-31_13h06.15.082,test_typingtask_norepeats,2020.2.10,59.99426453257514,
buddy,buddy,,,,,,,,,0,30,30,30,,,,,,,,,,,,,,,3079.5722075999947,None,"['n', 'u', 'd', 'd', 'y']",0,"[1.1758394000353292, 1.567665099981241, 1.7836305999662727, 1.9357550999848172, 2.135636299964972]",3079.5722075999947,None,3079.5722283299547,None,s263_01312024,001,2024-01-31_13h06.15.082,test_typingtask_norepeats,2020.2.10,59.99426453257514,
pykka,pykka,,,,,,,,,0,31,31,31,,,,,,,,,,,,,,,3085.0722872000188,None,"['p', 'y', 'k', 'k', 'a']",1,"[1.443520599976182, 1.7235827000113204, 2.4915677999379113, 2.6515417000046, 2.8277736000018194]",3085.0722872000188,None,3085.0722608299693,None,s263_01312024,001,2024-01-31_13h06.15.082,test_typingtask_norepeats,2020.2.10,59.99426453257514,
cheer,cheer,,,,,,,,,0,32,32,32,,,,,,,,,,,,,,,3090.572278799955,None,"['c', 'h', 'e', 'e', 'r']",1,"[0.8797008000547066, 1.0396348000504076, 1.4475768000120297, 1.5997334000421688, 1.7596654000226408]",3090.572278799955,None,3090.57231942995,None,s263_01312024,001,2024-01-31_13h06.15.082,test_typingtask_norepeats,2020.2.10,59.99426453257514,
theme,theme,,,,,,,,,0,33,33,33,,,,,,,,,,,,,,,3096.072338399943,None,"['t', 'h', 'e', 'm', 'e']",1,"[0.76351719989907, 0.8839833999518305, 1.3556356999324635, 1.4114830999169499, 1.531569299986586]",3096.072338399943,None,3096.0723574300064,None,s263_01312024,001,2024-01-31_13h06.15.082,test_typingtask_norepeats,2020.2.10,59.99426453257514,
puppy,puppy,,,,,,,,,0,34,34,34,,,,,,,,,,,,,,,3101.5723772000056,None,"['p', 'u', 'p', 'p', 'y']",1,"[1.0158057999797165, 1.2315270999679342, 1.6716003000037745, 1.8074114000191912, 1.9354412000393495]",3101.5723772000056,None,3101.5723660299554,None,s263_01312024,001,2024-01-31_13h06.15.082,test_typingtask_norepeats,2020.2.10,59.99426453257514,
would,would,,,,,,,,,0,35,35,35,,,,,,,,,,,,,,,3107.0723899999866,None,"['w', 'o', 'u', 'l', 'd']",1,"[1.1634399000322446, 1.291436200030148, 1.475392400054261, 1.6753978000488132, 1.7553743000607938]",3107.0723899999866,None,3107.0724077299237,None,s263_01312024,001,2024-01-31_13h06.15.082,test_typingtask_norepeats,2020.2.10,59.99426453257514,
buddy,buddy,,,,,,,,,0,36,36,36,,,,,,,,,,,,,,,3112.5724151999457,None,"['b', 'u', 'd', 'd', 'y']",1,"[1.0633773999288678, 1.151499499916099, 1.2713554999791086, 1.4315716999117285, 1.5115788999246433]",3112.5724151999457,None,3112.572381129954,None,s263_01312024,001,2024-01-31_13h06.15.082,test_typingtask_norepeats,2020.2.10,59.99426453257514,
would,would,,,,,,,,,0,37,37,37,,,,,,,,,,,,,,,3118.0724446999375,None,"['w', 'o', 'u', 'l', 'd']",1,"[1.4195917999604717, 1.571566900005564, 1.7075080999638885, 1.9873451999155805, 2.1153715999098495]",3118.0724446999375,None,3118.0724373299163,None,s263_01312024,001,2024-01-31_13h06.15.082,test_typingtask_norepeats,2020.2.10,59.99426453257514,
champ,champ,,,,,,,,,0,38,38,38,,,,,,,,,,,,,,,3123.572473899927,None,"['c', 'h', 'a', 'm', 'o']",0,"[0.9193326999666169, 1.015315099968575, 1.1513011999195442, 1.6072395999217406, 1.8234871999593452]",3123.572473899927,None,3123.572419730015,None,s263_01312024,001,2024-01-31_13h06.15.082,test_typingtask_norepeats,2020.2.10,59.99426453257514,
puppy,puppy,,,,,,,,,0,39,39,39,,,,,,,,,,,,,,,3129.0725201999303,None,"['p', 'u', 'p', 'p', 'y']",1,"[1.2672795999096707, 1.603244199999608, 1.891252200002782, 2.0354168999474496, 2.1073644999414682]",3129.0725201999303,None,3129.0724933299934,None,s263_01312024,001,2024-01-31_13h06.15.082,test_typingtask_norepeats,2020.2.10,59.99426453257514,
druze,druze,,,,,,,,,0,40,40,40,,,,,,,,,,,,,,,3134.572537699947,None,"['d', 'r', 'u', 'z', 'e']",1,"[0.9592980000888929, 1.1437134000007063, 1.3112408000743017, 1.8473776000319049, 2.1832112000556663]",3134.572537699947,None,3134.572508829995,None,s263_01312024,001,2024-01-31_13h06.15.082,test_typingtask_norepeats,2020.2.10,59.99426453257514,
edthe,edthe,,,,,,,,,0,41,41,41,,,,,,,,,,,,,,,3140.0725340999197,None,"['e', 'd', 't', 'h', 'e']",1,"[0.8353633999358863, 1.035327299963683, 1.187243500025943, 1.3151684999465942, 1.4192998999496922]",3140.0725340999197,None,3140.072491329978,None,s263_01312024,001,2024-01-31_13h06.15.082,test_typingtask_norepeats,2020.2.10,59.99426453257514,
there,there,,,,,,,,,0,42,42,42,,,,,,,,,,,,,,,3145.572587599978,None,"['t', 'h', 'e', 'r', 'e', 'r']",0,"[0.7753318999893963, 0.863134799990803, 0.9835197000065818, 1.1351109000388533, 1.2071728999726474, 1.3112514000386]",3145.572587599978,None,3145.5725505299633,None,s263_01312024,001,2024-01-31_13h06.15.082,test_typingtask_norepeats,2020.2.10,59.99426453257514,
vodka,vodka,,,,,,,,,0,43,43,43,,,,,,,,,,,,,,,3151.072583699948,None,"['v', 'o', 'd', 'k', 'a']",1,"[1.555283599998802, 1.8754126999992877, 2.0031143999658525, 2.0991945998976007, 2.2112028999254107]",3151.072583699948,None,3151.0726002299925,None,s263_01312024,001,2024-01-31_13h06.15.082,test_typingtask_norepeats,2020.2.10,59.99426453257514,
pykka,pykka,,,,,,,,,0,44,44,44,,,,,,,,,,,,,,,3156.5726068000076,None,"['p', 'y', 'k', 'k', 'a']",1,"[1.0311192000517622, 1.4472883000271395, 1.8151249999646097, 1.9432526000309736, 2.071113600046374]",3156.5726068000076,None,3156.5726169300033,None,s263_01312024,001,2024-01-31_13h06.15.082,test_typingtask_norepeats,2020.2.10,59.99426453257514,
tithe,tithe,,,,,,,,,0,45,45,45,,,,,,,,,,,,,,,3162.0726383000147,None,"['t', 'i', 't', 'h', 'e']",1,"[0.7872268999926746, 0.9310144999762997, 1.0271818999899551, 1.059125200030394, 1.2350672000320628]",3162.0726383000147,None,3162.0726407299517,None,s263_01312024,001,2024-01-31_13h06.15.082,test_typingtask_norepeats,2020.2.10,59.99426453257514,
about,about,,,,,,,,,0,46,46,46,,,,,,,,,,,,,,,3167.5726589999394,None,"['a', 'b', 'o', 'u', 't']",1,"[0.7511316000018269, 0.8630109999794513, 1.0711869999067858, 1.151009599911049, 1.335013399948366]",3167.5726589999394,None,3167.5726511299144,None,s263_01312024,001,2024-01-31_13h06.15.082,test_typingtask_norepeats,2020.2.10,59.99426453257514,
heond,heond,,,,,,,,,0,47,47,47,,,,,,,,,,,,,,,3173.0726486999774,None,"['h', 'e', 'o', 'n', 'd']",1,"[1.4670445000519976, 1.6111513000214472, 1.7631073000375181, 1.9070301000028849, 2.0750681000063196]",3173.0726486999774,None,3173.0726789300097,None,s263_01312024,001,2024-01-31_13h06.15.082,test_typingtask_norepeats,2020.2.10,59.99426453257514,
champ,champ,,,,,,,,,0,48,48,48,,,,,,,,,,,,,,,3178.572736699949,None,"['c', 'h', 'a', 'm', 'o', 'p']",0,"[0.9829805000917986, 1.0791890000691637, 1.2790978000266477, 1.3830108999973163, 1.583172500017099, 1.583172500017099]",3178.572736699949,None,3178.5727457299363,None,s263_01312024,001,2024-01-31_13h06.15.082,test_typingtask_norepeats,2020.2.10,59.99426453257514,
vodka,vodka,,,,,,,,,0,49,49,49,,,,,,,,,,,,,,,3184.0727069999557,None,"['v', 'o', 'd', 'k', 'a']",1,"[0.987078299978748, 1.16296559991315, 1.3791746998904273, 1.5389349999604747, 1.682873799931258]",3184.0727069999557,None,3184.0727016299497,None,s263_01312024,001,2024-01-31_13h06.15.082,test_typingtask_norepeats,2020.2.10,59.99426453257514,
there,there,,,,,,,,,0,50,50,50,,,,,,,,,,,,,,,3189.572758299997,None,"['t', 'h', 'e', 'r', 'e']",1,"[0.7189516000216827, 0.8149137999862432, 0.9188713000621647, 1.022956300061196, 1.5190678000217304]",3189.572758299997,None,3189.5727656299714,None,s263_01312024,001,2024-01-31_13h06.15.082,test_typingtask_norepeats,2020.2.10,59.99426453257514,
zibja,zibja,,,,,,,,,0,51,51,51,,,,,,,,,,,,,,,3195.072790200007,None,"['z', 'i', 'b', 'j', 'a']",1,"[1.282943999976851, 1.6109771999763325, 2.186843500006944, 2.34686009993311, 2.466953699942678]",3195.072790200007,None,3195.072799729998,None,s263_01312024,001,2024-01-31_13h06.15.082,test_typingtask_norepeats,2020.2.10,59.99426453257514,
heond,heond,,,,,,,,,0,52,52,52,,,,,,,,,,,,,,,3200.5727924999082,None,"['h', 'e', 'o', 'n', 'd']",1,"[1.1668774000136182, 1.2629650000017136, 1.6309299999848008, 1.7588740999344736, 1.9108445999445394]",3200.5727924999082,None,3200.572818329907,None,s263_01312024,001,2024-01-31_13h06.15.082,test_typingtask_norepeats,2020.2.10,59.99426453257514,
tithe,tithe,,,,,,,,,0,53,53,53,,,,,,,,,,,,,,,3206.072858599946,None,"['t', 'i', 'h', 't', 'e']",0,"[1.0507521000690758, 1.1388455000706017, 1.2588525000028312, 1.266800600104034, 1.4587868000380695]",3206.072858599946,None,3206.0728193299146,None,s263_01312024,001,2024-01-31_13h06.15.082,test_typingtask_norepeats,2020.2.10,59.99426453257514,
kremp,kremp,,,,,,,,,0,54,54,54,,,,,,,,,,,,,,,3211.572833699989,None,"['k', 'r', 'e', 'm', 'p']",1,"[0.9988425000337884, 1.0947974000591785, 1.2469203000655398, 1.2948653000639752, 1.4708383000688627]",3211.572833699989,None,3211.572869329946,None,s263_01312024,001,2024-01-31_13h06.15.082,test_typingtask_norepeats,2020.2.10,59.99426453257514,
theme,theme,,,,,,,,,0,55,55,55,,,,,,,,,,,,,,,3217.0728961999994,None,"['t', 'h', 'e', 'm', 'e']",1,"[0.9067284000338987, 1.0028782000299543, 1.3947419000323862, 1.498765500029549, 1.5867041000165045]",3217.0728961999994,None,3217.072966929991,None,s263_01312024,001,2024-01-31_13h06.15.082,test_typingtask_norepeats,2020.2.10,59.99426453257514,
druze,druze,,,,,,,,,0,56,56,56,,,,,,,,,,,,,,,3222.5729094999842,None,"['d', 'r', 'u', 'z', 'e']",1,"[0.8227403999771923, 0.9908294000197202, 1.262945199967362, 1.4306143000721931, 1.6547434000531211]",3222.5729094999842,None,3222.572869329946,None,s263_01312024,001,2024-01-31_13h06.15.082,test_typingtask_norepeats,2020.2.10,59.99426453257514,
therm,therm,,,,,,,,,0,57,57,57,,,,,,,,,,,,,,,3228.0729233999737,None,"['t', 'h', 'e', 'r', 'm']",1,"[0.794816100038588, 0.906788400025107, 1.010679900064133, 1.0586871000705287, 1.1867242000298575]",3228.0729233999737,None,3228.0729392300127,None,s263_01312024,001,2024-01-31_13h06.15.082,test_typingtask_norepeats,2020.2.10,59.99426453257514,
belly,belly,,,,,,,,,0,58,58,58,,,,,,,,,,,,,,,3233.5729655999457,None,"['b', 'e', 'l', 'l', 'y']",1,"[1.2385916999774054, 1.4065949000651017, 1.8866359000094235, 2.022707000025548, 2.142654599971138]",3233.5729655999457,None,3233.5729696300114,None,s263_01312024,001,2024-01-31_13h06.15.082,test_typingtask_norepeats,2020.2.10,59.99426453257514,
faqir,faqir,,,,,,,,,0,59,59,59,,,,,,,,,,,,,,,3239.073035300011,None,"['f', 'a', 'q', 'i', 'r']",1,"[1.058820700040087, 1.1305258000502363, 2.3305462000425905, 2.754532300052233, 2.8425990999676287]",3239.073035300011,None,3239.073026929982,None,s263_01312024,001,2024-01-31_13h06.15.082,test_typingtask_norepeats,2020.2.10,59.99426453257514,
theme,theme,,,,,,,,,0,60,60,60,,,,,,,,,,,,,,,3244.572997399955,None,"['t', 'h', 'e', 'm', 'e']",1,"[0.7585278000915423, 0.846580300014466, 0.9985652000177652, 1.1105601000599563, 1.1905455000232905]",3244.572997399955,None,3244.573019829928,None,s263_01312024,001,2024-01-31_13h06.15.082,test_typingtask_norepeats,2020.2.10,59.99426453257514,
haole,haole,,,,,,,,,0,61,61,61,,,,,,,,,,,,,,,3250.0730372999096,None,"['h', 'a', 'o', 'l', 'e']",1,"[0.8746756999753416, 1.0104671999579296, 1.26651290000882, 1.450728000025265, 1.5384671000065282]",3250.0730372999096,None,3250.073040529969,None,s263_01312024,001,2024-01-31_13h06.15.082,test_typingtask_norepeats,2020.2.10,59.99426453257514,
edthe,edthe,,,,,,,,,0,62,62,62,,,,,,,,,,,,,,,3255.5730729999486,None,"['e', 'd', 't', 'h', 'e']",1,"[1.046563500072807, 1.2705735000781715, 1.614627500064671, 1.710480900015682, 1.9185175000457093]",3255.5730729999486,None,3255.5730740299914,None,s263_01312024,001,2024-01-31_13h06.15.082,test_typingtask_norepeats,2020.2.10,59.99426453257514,
belly,belly,,,,,,,,,0,63,63,63,,,,,,,,,,,,,,,3261.0730909999693,None,"['b', 'e', 'l', 'l', 'y']",1,"[0.7544520000228658, 0.8904826000798494, 1.2346006000880152, 1.3866113000549376, 1.4743660000385717]",3261.0730909999693,None,3261.0731224300107,None,s263_01312024,001,2024-01-31_13h06.15.082,test_typingtask_norepeats,2020.2.10,59.99426453257514,
would,would,,,,,,,,,0,64,64,64,,,,,,,,,,,,,,,3266.5731095999945,None,"['w', 'o', 'u', 'l', 'd']",1,"[1.054588400060311, 1.2224518000148237, 1.3584584000054747, 1.5584446999710053, 1.8626041000243276]",3266.5731095999945,None,3266.5730860299664,None,s263_01312024,001,2024-01-31_13h06.15.082,test_typingtask_norepeats,2020.2.10,59.99426453257514,
lucky,lucky,,,,,,,,,0,65,65,65,,,,,,,,,,,,,,,3272.073151599965,None,"['l', 'c', 'k', 'y']",0,"[1.090392200043425, 1.6105427000438794, 2.1463013000320643, 2.266297099995427]",3272.073151599965,None,3272.0731311299605,None,s263_01312024,001,2024-01-31_13h06.15.082,test_typingtask_norepeats,2020.2.10,59.99426453257514,
pykka,pykka,,,,,,,,,0,66,66,66,,,,,,,,,,,,,,,3277.5731510999613,None,"['p', 'y', 'k', 'k', 'a']",1,"[1.2544005999807268, 1.7263423000695184, 2.158389599993825, 2.2943466000724584, 2.4864744000369683]",3277.5731510999613,None,3277.573168730014,None,s263_01312024,001,2024-01-31_13h06.15.082,test_typingtask_norepeats,2020.2.10,59.99426453257514,
cheer,cheer,,,,,,,,,0,67,67,67,,,,,,,,,,,,,,,3283.0731943999417,None,"['c', 'h', 'e', 'e', 'r']",1,"[0.8423778999131173, 0.9622908999444917, 1.050657199928537, 1.2663544999668375, 1.4664415000006557]",3283.0731943999417,None,3283.073205429944,None,s263_01312024,001,2024-01-31_13h06.15.082,test_typingtask_norepeats,2020.2.10,59.99426453257514,
about,about,,,,,,,,,0,68,68,68,,,,,,,,,,,,,,,3288.5732222999213,None,"['a', 'b', 'o', 'u', 't']",1,"[1.222269200021401, 1.302271099993959, 1.518436299986206, 1.5423339999979362, 1.7344368000049144]",3288.5732222999213,None,3288.5732247299748,None,s263_01312024,001,2024-01-31_13h06.15.082,test_typingtask_norepeats,2020.2.10,59.99426453257514,
theme,theme,,,,,,,,,0,69,69,69,,,,,,,,,,,,,,,3294.073239099933,None,"['t', 'h', 'e', 'm', 'e']",1,"[0.8504116999683902, 0.9142635999014601, 1.1063986999215558, 1.2102611999725923, 1.322199699934572]",3294.073239099933,None,3294.0732575299917,None,s263_01312024,001,2024-01-31_13h06.15.082,test_typingtask_norepeats,2020.2.10,59.99426453257514,
buddy,buddy,,,,,,,,,0,70,70,70,,,,,,,,,,,,,,,3299.573308799998,None,"['b', 'u', 'd', 'd', 'y']",1,"[0.8061311000492424, 0.9505202999571338, 1.0462132999673486, 1.2062719999812543, 1.286196600063704]",3299.573308799998,None,3299.573271929985,None,s263_01312024,001,2024-01-31_13h06.15.082,test_typingtask_norepeats,2020.2.10,59.99426453257514,
zibja,zibja,,,,,,,,,0,71,71,71,,,,,,,,,,,,,,,3305.0732919999864,None,"['z', 'i', 'b', 'j', 'a']",1,"[1.09029720001854, 1.2901772999903187, 1.5141923000337556, 1.6583479000255466, 1.7701390000293031]",3305.0732919999864,None,3305.0733044299996,None,s263_01312024,001,2024-01-31_13h06.15.082,test_typingtask_norepeats,2020.2.10,59.99426453257514,
haole,haole,,,,,,,,,0,72,72,72,,,,,,,,,,,,,,,3310.573322499986,None,"['h', 'a', 'o', 'l', 'e']",1,"[0.974314899998717, 1.294228499988094, 1.6382585000246763, 1.846245800028555, 1.966303599998355]",3310.573322499986,None,3310.573295529932,None,s263_01312024,001,2024-01-31_13h06.15.082,test_typingtask_norepeats,2020.2.10,59.99426453257514,
kremp,kremp,,,,,,,,,0,73,73,73,,,,,,,,,,,,,,,3316.0733992999885,None,"['k', 'r', 'e', 'm', 'o']",0,"[1.362169099971652, 1.4740318999392912, 1.642044399981387, 1.7379911999450997, 1.9621959999203682]",3316.0733992999885,None,3316.0733582299436,None,s263_01312024,001,2024-01-31_13h06.15.082,test_typingtask_norepeats,2020.2.10,59.99426453257514,
vanru,vanru,,,,,,,,,0,74,74,74,,,,,,,,,,,,,,,3321.5733789999504,None,"['v', 'a', 'b', 'r', 'u']",0,"[0.8381793000735343, 0.966194299980998, 1.0860674000578001, 1.9660431999946013, 2.1900278000393882]",3321.5733789999504,None,3321.5733989300206,None,s263_01312024,001,2024-01-31_13h06.15.082,test_typingtask_norepeats,2020.2.10,59.99426453257514,
faqir,faqir,,,,,,,,,0,75,75,75,,,,,,,,,,,,,,,3327.073392299935,None,"['f', 'a', 'q', 'i', 'r']",1,"[1.1940645999275148, 1.29018879996147, 1.8980453999247402, 2.0581631999230012, 2.186106299981475]",3327.073392299935,None,3327.074163030018,None,s263_01312024,001,2024-01-31_13h06.15.082,test_typingtask_norepeats,2020.2.10,59.99426453257514,
about,about,,,,,,,,,0,76,76,76,,,,,,,,,,,,,,,3332.5734180000145,None,"['a', 'b', 'u', 't']",0,"[0.8219726999523118, 0.9020681999390945, 1.1100760999834165, 1.157980400021188]",3332.5734180000145,None,3332.573376229964,None,s263_01312024,001,2024-01-31_13h06.15.082,test_typingtask_norepeats,2020.2.10,59.99426453257514,
think,think,,,,,,,,,0,77,77,77,,,,,,,,,,,,,,,3338.0734195999103,None,"['t', 'h', 'i', 'n', 'k']",1,"[1.0103416999336332, 1.146023100009188, 1.1780282999388874, 1.362003599992022, 1.4500009999610484]",3338.0734195999103,None,3338.0734514299547,None,s263_01312024,001,2024-01-31_13h06.15.082,test_typingtask_norepeats,2020.2.10,59.99426453257514,
kremp,kremp,,,,,,,,,0,78,78,78,,,,,,,,,,,,,,,3343.5734832999296,None,"['k', 'r', 'e', 'm', 'p']",1,"[1.0619270999450237, 1.1740888999775052, 1.317871999926865, 1.4299142999807373, 1.6218856999184936]",3343.5734832999296,None,3343.5734851299785,None,s263_01312024,001,2024-01-31_13h06.15.082,test_typingtask_norepeats,2020.2.10,59.99426453257514,
haole,haole,,,,,,,,,0,79,79,79,,,,,,,,,,,,,,,3349.0735115999123,None,"['h', 'a', 'o', 'l', 'e']",1,"[0.8981078999349847, 1.025956799974665, 1.2098812999902293, 1.3859300999902189, 1.5058605000376701]",3349.0735115999123,None,3349.0735059300205,None,s263_01312024,001,2024-01-31_13h06.15.082,test_typingtask_norepeats,2020.2.10,59.99426453257514,
faqir,faqir,,,,,,,,,0,80,80,80,,,,,,,,,,,,,,,3354.5735372999916,None,"['f', 'a', 'q', 'i', 'r']",1,"[0.8938282000599429, 1.0860080000711605, 1.717834600014612, 1.9098669000668451, 2.133973899995908]",3354.5735372999916,None,3354.5735519300215,None,s263_01312024,001,2024-01-31_13h06.15.082,test_typingtask_norepeats,2020.2.10,59.99426453257514,
therm,therm,,,,,,,,,0,81,81,81,,,,,,,,,,,,,,,3360.073537199991,None,"['t', 'h', 'e', 'r', 'm']",1,"[0.690012100036256, 0.7700433999998495, 1.1778760000597686, 1.321875900030136, 1.4098444000119343]",3360.073537199991,None,3360.0735453299712,None,s263_01312024,001,2024-01-31_13h06.15.082,test_typingtask_norepeats,2020.2.10,59.99426453257514,
cooed,cooed,,,,,,,,,0,82,82,82,,,,,,,,,,,,,,,3365.573606199934,None,"['c', 'o', 'o', 'e', 'd']",1,"[0.893834299989976, 1.1737617999315262, 1.2938948998926207, 1.4299216999206692, 1.5819191999034956]",3365.573606199934,None,3365.5736002299236,None,s263_01312024,001,2024-01-31_13h06.15.082,test_typingtask_norepeats,2020.2.10,59.99426453257514,
lucky,lucky,,,,,,,,,0,83,83,83,,,,,,,,,,,,,,,3371.073591399938,None,"['l', 'u', 'c', 'k', 'y']",1,"[1.0737638999707997, 1.2899299999698997, 1.4577354999491945, 1.6257386999204755, 1.7938868999481201]",3371.073591399938,None,3371.0735840299167,None,s263_01312024,001,2024-01-31_13h06.15.082,test_typingtask_norepeats,2020.2.10,59.99426453257514,
haole,haole,,,,,,,,,0,84,84,84,,,,,,,,,,,,,,,3376.5735939999577,None,"['h', 'a', 'o', 'l', 'e']",1,"[1.069786800071597, 1.2057170000625774, 1.4457904000300914, 1.621837000013329, 1.7260089000919834]",3376.5735939999577,None,3376.5736123300157,3376.6736406999407,s263_01312024,001,2024-01-31_13h06.15.082,test_typingtask_norepeats,2020.2.10,59.99426453257514,
druze,druze,,,,,,,,,0,85,85,85,,,,,,,,,,,,,,,3382.0736342999153,None,"['d', 'r', 'u', 'z', 'e']",1,"[0.9217183999717236, 1.0978848999366164, 1.337790200021118, 1.5616748000029474, 1.7856938999611884]",3382.0736342999153,None,3382.0736724300077,3382.173640099936,s263_01312024,001,2024-01-31_13h06.15.082,test_typingtask_norepeats,2020.2.10,59.99426453257514,
there,there,,,,,,,,,0,86,86,86,,,,,,,,,,,,,,,3387.5737130999332,None,"['t', 'h', 'e', 'r', 'e']",1,"[0.8697222999762744, 1.0296650999225676, 1.1657220999477431, 1.245946199982427, 1.4216514999279752]",3387.5737130999332,None,3387.5737036300125,3387.6736595999682,s263_01312024,001,2024-01-31_13h06.15.082,test_typingtask_norepeats,2020.2.10,59.99426453257514,
cheer,cheer,,,,,,,,,0,87,87,87,,,,,,,,,,,,,,,3393.0737095999066,None,"['c', 'h', 'e', 'e', 'r']",1,"[0.9616875000065193, 1.0897571999812499, 1.1936892999801785, 1.337749099940993, 1.4416053999448195]",3393.0737095999066,None,3393.0736871300032,3393.1737543999916,s263_01312024,001,2024-01-31_13h06.15.082,test_typingtask_norepeats,2020.2.10,59.99426453257514,
edthe,edthe,,,,,,,,,0,88,88,88,,,,,,,,,,,,,,,3398.573741299915,None,"['e', 'd', 't', 'h', 'e']",1,"[0.8615699999500066, 1.0455766000086442, 1.1896313999313861, 1.2696057999273762, 1.5016312999650836]",3398.573741299915,None,3398.5737632300006,3398.6737510999665,s263_01312024,001,2024-01-31_13h06.15.082,test_typingtask_norepeats,2020.2.10,59.99426453257514,
tithe,tithe,,,,,,,,,0,89,89,89,,,,,,,,,,,,,,,3404.0737346999813,None,"['t', 'i', 't', 'h', 'e']",1,"[0.8495685000671074, 1.057558200089261, 1.1535239000804722, 1.2495211000787094, 1.385608799988404]",3404.0737346999813,None,3404.0737876299536,3404.173796399962,s263_01312024,001,2024-01-31_13h06.15.082,test_typingtask_norepeats,2020.2.10,59.99426453257514,
faqir,faqir,,,,,,,,,0,90,90,90,,,,,,,,,,,,,,,3409.5737972999923,None,"['f', 'a', 'q', 'i', 'r']",1,"[1.133739999961108, 1.773495199973695, 2.093595299986191, 2.381540199974552, 2.5574823999777436]",3409.5737972999923,None,3409.5737823299132,None,s263_01312024,001,2024-01-31_13h06.15.082,test_typingtask_norepeats,2020.2.10,59.99426453257514,
puppy,puppy,,,,,,,,,0,91,91,91,,,,,,,,,,,,,,,3415.0738610000117,None,"['p', 'u', 'p', 'p', 'y']",1,"[1.0816419000038877, 1.4254505999851972, 1.737403400009498, 1.8814049999928102, 1.9614000000292435]",3415.0738610000117,None,3415.07382693002,None,s263_01312024,001,2024-01-31_13h06.15.082,test_typingtask_norepeats,2020.2.10,59.99426453257514,
champ,champ,,,,,,,,,0,92,92,92,,,,,,,,,,,,,,,3420.5738454000093,None,"['c', 'h', 'a', 'm', 'p']",1,"[0.8133967999601737, 0.9014257999369875, 1.061362799955532, 1.1414931999752298, 1.4134262000443414]",3420.5738454000093,None,3420.5738535299897,None,s263_01312024,001,2024-01-31_13h06.15.082,test_typingtask_norepeats,2020.2.10,59.99426453257514,
vanru,vanru,,,,,,,,,0,93,93,93,,,,,,,,,,,,,,,3426.0739978000056,None,"['v', 'a', 'n', 'r', 'u']",1,"[0.8974390999646857, 1.0893852999433875, 1.2255496999714524, 1.369267200003378, 1.4733414000365883]",3426.0739978000056,None,3426.0738809299655,None,s263_01312024,001,2024-01-31_13h06.15.082,test_typingtask_norepeats,2020.2.10,59.99426453257514,
haole,haole,,,,,,,,,0,94,94,94,,,,,,,,,,,,,,,3431.5741535999114,None,"['h', 'a', 'o', 'l', 'e']",1,"[1.1810891999630257, 1.2932653999887407, 1.4371197000145912, 1.613121600006707, 1.6771114999428391]",3431.5741535999114,None,3431.5739938300103,None,s263_01312024,001,2024-01-31_13h06.15.082,test_typingtask_norepeats,2020.2.10,59.99426453257514,
belly,belly,,,,,,,,,0,95,95,95,,,,,,,,,,,,,,,3437.073937900015,None,"['b', 'e', 'l', 'l', 'y']",1,"[0.8333045999752358, 1.0333215999417007, 1.3134650000138208, 1.4412867999635637, 1.537234399933368]",3437.073937900015,None,3437.073932230007,None,s263_01312024,001,2024-01-31_13h06.15.082,test_typingtask_norepeats,2020.2.10,59.99426453257514,
vanru,vanru,,,,,,,,,0,96,96,96,,,,,,,,,,,,,,,3442.5739680000115,None,"['v', 'a', 'n', 'r', 'u']",1,"[0.989355199970305, 1.2452310000080615, 1.3332721999613568, 1.4854195000370964, 1.5572466999292374]",3442.5739680000115,None,3442.5739359299187,None,s263_01312024,001,2024-01-31_13h06.15.082,test_typingtask_norepeats,2020.2.10,59.99426453257514,
buddy,buddy,,,,,,,,,0,97,97,97,,,,,,,,,,,,,,,3448.0739881999325,None,"['b', 'u', 'd', 'd', 'y']",1,"[1.0731947999447584, 1.0894037999678403, 1.5212597999488935, 2.0092206000117585, 2.137372199911624]",3448.0739881999325,None,3448.073982729926,None,s263_01312024,001,2024-01-31_13h06.15.082,test_typingtask_norepeats,2020.2.10,59.99426453257514,
there,there,,,,,,,,,0,98,98,98,,,,,,,,,,,,,,,3453.5739762999583,None,"['t', 'h', 'e', 'r']",0,"[1.4531895000254735, 1.5491976999910548, 2.2693585000233725, 2.4212870000628754]",3453.5739762999583,None,3453.5739542299416,None,s263_01312024,001,2024-01-31_13h06.15.082,test_typingtask_norepeats,2020.2.10,59.99426453257514,
cooed,cooed,,,,,,,,,0,99,99,99,,,,,,,,,,,,,,,3459.0740627999185,None,"['c', 'o', 'o', 'e', 'd']",1,"[0.9691774999955669, 1.2173314000247046, 1.3532049000496045, 1.457209900021553, 1.6012590000173077]",3459.0740627999185,None,3459.0739639300155,None,s263_01312024,001,2024-01-31_13h06.15.082,test_typingtask_norepeats,2020.2.10,59.99426453257514,
vodka,vodka,,,,,,,,,0,100,100,100,,,,,,,,,,,,,,,3464.574004999944,None,"['v', 'o', 'd', 'k', 'a']",1,"[1.0932192999171093, 1.2853610999882221, 1.5172701999545097, 1.6291711999801919, 1.7491178999189287]",3464.574004999944,None,3464.5740356299793,None,s263_01312024,001,2024-01-31_13h06.15.082,test_typingtask_norepeats,2020.2.10,59.99426453257514,
about,about,,,,,,,,,0,101,101,101,,,,,,,,,,,,,,,3470.0740780999186,None,"['a', 'b', 'o', 'u', 't', 'r']",0,"[1.3931275999639183, 1.5211002000141889, 1.729113099980168, 1.7771079000085592, 2.137327800039202, 2.473113799933344]",3470.0740780999186,None,3470.0740936299553,None,s263_01312024,001,2024-01-31_13h06.15.082,test_typingtask_norepeats,2020.2.10,59.99426453257514,
heond,heond,,,,,,,,,0,102,102,102,,,,,,,,,,,,,,,3475.5741026999895,None,"['h', 'e', 'o', 'n', 'd']",1,"[1.3330527000362054, 1.4770032999804243, 1.5810631000204012, 1.7812109000515193, 1.9810235999757424]",3475.5741026999895,None,3475.574129829998,None,s263_01312024,001,2024-01-31_13h06.15.082,test_typingtask_norepeats,2020.2.10,59.99426453257514,
buddy,buddy,,,,,,,,,0,103,103,103,,,,,,,,,,,,,,,3481.07413730002,None,"['b', 'u', 'd', 'y']",0,"[1.3210743999807164, 1.425014500040561, 1.657010899973102, 1.7611491000279784]",3481.07413730002,None,3481.0741476300173,None,s263_01312024,001,2024-01-31_13h06.15.082,test_typingtask_norepeats,2020.2.10,59.99426453257514,
theme,theme,,,,,,,,,0,104,104,104,,,,,,,,,,,,,,,3486.5741613999708,None,"['t', 'h', 'e', 'm', 'e']",1,"[0.7811584000010043, 0.8850085000740364, 1.0290045000147074, 1.157050700043328, 1.2609101000707597]",3486.5741613999708,None,3486.574146830011,None,s263_01312024,001,2024-01-31_13h06.15.082,test_typingtask_norepeats,2020.2.10,59.99426453257514,
tithe,tithe,,,,,,,,,0,105,105,105,,,,,,,,,,,,,,,3492.0742033999413,None,"['t', 'i', 't', 'h', 'e']",1,"[1.032918099896051, 1.1450472999131307, 1.2412039999617264, 1.328989699948579, 1.5049463999457657]",3492.0742033999413,None,3492.074206229998,None,s263_01312024,001,2024-01-31_13h06.15.082,test_typingtask_norepeats,2020.2.10,59.99426453257514,
heond,heond,,,,,,,,,0,106,106,106,,,,,,,,,,,,,,,3497.574255899992,None,"['h', 'e', 'o', 'n', 'd']",1,"[0.8450341999996454, 0.989026700030081, 1.2050435000564903, 1.40489050000906, 1.5410002999706194]",3497.574255899992,None,3497.5742171299644,None,s263_01312024,001,2024-01-31_13h06.15.082,test_typingtask_norepeats,2020.2.10,59.99426453257514,
therm,therm,,,,,,,,,0,107,107,107,,,,,,,,,,,,,,,3503.0742531999713,None,"['t', 'h', 'e', 'r', 'm']",1,"[0.7288827000884339, 0.8249149000039324, 0.9609506000997499, 1.040892600081861, 1.2008888000855222]",3503.0742531999713,None,3503.0742702300195,None,s263_01312024,001,2024-01-31_13h06.15.082,test_typingtask_norepeats,2020.2.10,59.99426453257514,
would,would,,,,,,,,,0,108,108,108,,,,,,,,,,,,,,,3508.5742144999094,None,"['o', 'u', 'l', 'd']",0,"[1.708926699939184, 1.8689843999454752, 2.1489031999371946, 2.3171281999675557]",3508.5742144999094,None,3508.5742789299693,None,s263_01312024,001,2024-01-31_13h06.15.082,test_typingtask_norepeats,2020.2.10,59.99426453257514,
think,think,,,,,,,,,0,109,109,109,,,,,,,,,,,,,,,3514.0742613999173,None,"['t', 'h', 'i', 'n', 'k']",1,"[0.7928995999973267, 0.9288506999146193, 1.0407887999899685, 1.1688668000278994, 1.3209000999340788]",3514.0742613999173,None,3514.074316729908,None,s263_01312024,001,2024-01-31_13h06.15.082,test_typingtask_norepeats,2020.2.10,59.99426453257514,
cheer,cheer,,,,,,,,,0,110,110,110,,,,,,,,,,,,,,,3519.5743284999626,None,"['c', 'h', 'e', 'e', 'r']",1,"[0.8127779000205919, 0.964701300021261, 1.1008060000604019, 1.2368934000842273, 1.3887888001045212]",3519.5743284999626,None,3519.5743577299872,None,s263_01312024,001,2024-01-31_13h06.15.082,test_typingtask_norepeats,2020.2.10,59.99426453257514,
champ,champ,,,,,,,,,0,111,111,111,,,,,,,,,,,,,,,3525.074302299996,None,"['c', 'h', 'a', 'm', 'o', 'p']",0,"[0.7369362000608817, 0.832871500053443, 0.9607914000516757, 1.1127639999613166, 1.4249653000151739, 1.4249653000151739]",3525.074302299996,None,3525.0743140300037,None,s263_01312024,001,2024-01-31_13h06.15.082,test_typingtask_norepeats,2020.2.10,59.99426453257514,
cooed,cooed,,,,,,,,,0,112,112,112,,,,,,,,,,,,,,,3530.5743673999095,None,"['c', 'o', 'o', 'e', 'd']",1,"[0.8448099000379443, 1.068723400007002, 1.188765799975954, 1.2849497999995947, 1.43669190001674]",3530.5743673999095,None,3530.5744181299815,None,s263_01312024,001,2024-01-31_13h06.15.082,test_typingtask_norepeats,2020.2.10,59.99426453257514,
kremp,kremp,,,,,,,,,0,113,113,113,,,,,,,,,,,,,,,3536.0744004999287,None,"['k', 'r', 'e', 'm', 'p', 'space']",0,"[0.9206325999693945, 1.0486701999325305, 1.2167708999477327, 1.344579399912618, 1.6408930999459699, 2.104734299937263]",3536.0744004999287,None,3536.0744181299815,None,s263_01312024,001,2024-01-31_13h06.15.082,test_typingtask_norepeats,2020.2.10,59.99426453257514,
pykka,pykka,,,,,,,,,0,114,114,114,,,,,,,,,,,,,,,3541.5744473999366,None,['p'],0,[2.3887068999465555],3541.5744473999366,None,3541.5744417299284,None,s263_01312024,001,2024-01-31_13h06.15.082,test_typingtask_norepeats,2020.2.10,59.99426453257514,
vanru,vanru,,,,,,,,,0,115,115,115,,,,,,,,,,,,,,,3547.0744611999253,None,"['v', 'a', 'n', 'r', 'u']",1,"[0.8327249999856576, 0.9925767999375239, 1.0966179999522865, 1.2168685999931768, 1.2966544999508187]",3547.0744611999253,None,3547.0744384300197,None,s263_01312024,001,2024-01-31_13h06.15.082,test_typingtask_norepeats,2020.2.10,59.99426453257514,
belly,belly,,,,,,,,,0,116,116,116,,,,,,,,,,,,,,,3552.574488400016,None,"['b', 'e', 'l', 'l', 'y']",1,"[0.8685556999407709, 1.0445707000326365, 1.4205925000132993, 1.524645600002259, 1.676599400001578]",3552.574488400016,None,3552.5744905299507,None,s263_01312024,001,2024-01-31_13h06.15.082,test_typingtask_norepeats,2020.2.10,59.99426453257514,
therm,therm,,,,,,,,,0,117,117,117,,,,,,,,,,,,,,,3558.074540099944,None,"['t', 'h', 'e', 'r', 'm']",1,"[0.8886626999592409, 0.9524787999689579, 1.1205770999658853, 1.2086348999291658, 1.3044547999743372]",3558.074540099944,None,3558.0745230299653,None,s263_01312024,001,2024-01-31_13h06.15.082,test_typingtask_norepeats,2020.2.10,59.99426453257514,
lucky,lucky,,,,,,,,,0,118,118,118,,,,,,,,,,,,,,,3563.5745487000095,None,"['l', 'u', 'c', 'k', 'y']",1,"[0.8685955000109971, 1.1564759999746457, 1.3486965000629425, 1.6204580999910831, 1.7404835000634193]",3563.5745487000095,None,3563.574549229932,None,s263_01312024,001,2024-01-31_13h06.15.082,test_typingtask_norepeats,2020.2.10,59.99426453257514,
faqir,faqir,,,,,,,,,0,119,119,119,,,,,,,,,,,,,,,3569.0745563999517,None,"['f', 'a', 'q', 'i', 'r']",1,"[0.9604641000041738, 1.41647919989191, 1.7686016999650747, 2.0805216999724507, 2.24044139997568]",3569.0745563999517,None,3569.074581529945,None,s263_01312024,001,2024-01-31_13h06.15.082,test_typingtask_norepeats,2020.2.10,59.99426453257514,
