string,corrAns,practice_trials.thisRepN,practice_trials.thisTrialN,practice_trials.thisN,practice_trials.thisIndex,trials_1.thisRepN,trials_1.thisTrialN,trials_1.thisN,trials_1.thisIndex,trials_2.thisRepN,trials_2.thisTrialN,trials_2.thisN,trials_2.thisIndex,key_resp_0.keys,key_resp_0.corr,key_resp_0.rt,text_1.started,text_1.stopped,key_resp_1.keys,key_resp_1.corr,key_resp_1.rt,key_resp_1.started,key_resp_1.stopped,sound_1A_1.started,sound_1A_1.stopped,break_time.started,break_time.stopped,text_2.started,text_2.stopped,key_resp_2.keys,key_resp_2.corr,key_resp_2.rt,key_resp_2.started,key_resp_2.stopped,sound_1A_2.started,sound_1A_2.stopped,participant,session,date,expName,psychopyVersion,frameRate,
fresh,fresh,0,0,0,0,,,,,,,,,"['f', 'r', 'e', 's', 'h']",1,"[1.3751794999698177, 1.4151511999662034, 2.007175799983088, 2.223338799958583, 2.3114783999626525]",,,,,,,,,,,,,,,,,,,,,s267_02122024,001,2024-02-12_17h27.10.133,test_typingtask_norepeats,2020.2.10,59.97195711575159,
dream,dream,0,1,1,1,,,,,,,,,"['d', 'r', 'e', 'a', 'm']",1,"[1.1871830000309274, 1.3311542000155896, 1.7792513000313193, 2.027211199980229, 2.147310300031677]",,,,,,,,,,,,,,,,,,,,,s267_02122024,001,2024-02-12_17h27.10.133,test_typingtask_norepeats,2020.2.10,59.97195711575159,
slime,slime,0,2,2,2,,,,,,,,,"['s', 'l', 'i', 'm', 'e']",1,"[1.0631779999821447, 1.14325139997527, 1.359100400004536, 1.4952664999873377, 1.6071481999824755]",,,,,,,,,,,,,,,,,,,,,s267_02122024,001,2024-02-12_17h27.10.133,test_typingtask_norepeats,2020.2.10,59.97195711575159,
think,think,,,,,0,0,0,0,,,,,,,,86.6402056000079,None,"['t', 'h', 'i', 'n', 'k']",1,"[0.9410337999579497, 1.0291515999706462, 1.197156299953349, 1.3330462999874726, 1.5730176999932155]",86.6402056000079,None,86.6386602399638,None,,,,,,,,,,,,s267_02122024,001,2024-02-12_17h27.10.133,test_typingtask_norepeats,2020.2.10,59.97195711575159,
druze,druze,,,,,0,1,1,1,,,,,,,,92.15547339996556,None,"['d', 'r', 'u', 'z', 'e']",1,"[1.2177743999636732, 1.4177669999771751, 1.5857090999488719, 2.665911399992183, 2.8577685999916866]",92.15547339996556,None,92.15534843996866,None,,,,,,,,,,,,s267_02122024,001,2024-02-12_17h27.10.133,test_typingtask_norepeats,2020.2.10,59.97195711575159,
heond,heond,,,,,0,2,2,2,,,,,,,,97.65549159998773,None,"['h', 'e', 'o', 'n', 'd']",1,"[1.5817566000041552, 1.9097375000128523, 2.189746499992907, 2.3737447999883443, 3.2377595999860205]",97.65549159998773,None,97.6553685400053,None,,,,,,,,,,,,s267_02122024,001,2024-02-12_17h27.10.133,test_typingtask_norepeats,2020.2.10,59.97195711575159,
vanru,vanru,,,,,0,3,3,3,,,,,,,,103.15549739997368,None,"['v', 'a', 'n', 'r', 'u']",1,"[1.3057395000359975, 2.073738200007938, 2.2577445000060834, 2.569744200038258, 2.825689700024668]",103.15549739997368,None,103.15537153996993,None,,,,,,,,,,,,s267_02122024,001,2024-02-12_17h27.10.133,test_typingtask_norepeats,2020.2.10,59.97195711575159,
belly,belly,,,,,0,4,4,4,,,,,,,,108.65551800001413,None,"['b', 'e', 'l', 'l', 'y']",1,"[0.805769499973394, 0.9256794999819249, 1.261720099952072, 1.3897609999985434, 1.6378291999571957]",108.65551800001413,None,108.65539894000395,None,,,,,,,,,,,,s267_02122024,001,2024-02-12_17h27.10.133,test_typingtask_norepeats,2020.2.10,59.97195711575159,
about,about,,,,,0,5,5,5,,,,,,,,114.15548939997097,None,"['a', 'b', 'o', 'u', 't']",1,"[1.0737316000158899, 1.1537229000241496, 1.3698072000406682, 1.4577289000153542, 1.633978100027889]",114.15548939997097,None,114.15542353995843,114.25552720000269,,,,,,,,,,,,s267_02122024,001,2024-02-12_17h27.10.133,test_typingtask_norepeats,2020.2.10,59.97195711575159,
would,would,,,,,0,6,6,6,,,,,,,,119.65554760000668,None,"['w', 'o', 'u', 'l', 'd']",1,"[1.1096950999926776, 1.2376857999479398, 1.3177918999572285, 1.5256324999500066, 1.6537840999662876]",119.65554760000668,None,119.65542254000903,119.75553969998145,,,,,,,,,,,,s267_02122024,001,2024-02-12_17h27.10.133,test_typingtask_norepeats,2020.2.10,59.97195711575159,
vanru,vanru,,,,,0,7,7,7,,,,,,,,125.15552319999551,None,"['v', 'a', 'n', 'r', 'u']",1,"[1.0258397000143304, 1.1698171999887563, 1.2978313000057824, 1.6097005999763496, 2.0257324000122026]",125.15552319999551,None,125.15544963998255,125.25555669999449,,,,,,,,,,,,s267_02122024,001,2024-02-12_17h27.10.133,test_typingtask_norepeats,2020.2.10,59.97195711575159,
faqir,faqir,,,,,0,8,8,8,,,,,,,,130.65554559999146,None,"['f', 'a', 'q', 'u', 'i']",0,"[0.9736399999819696, 1.7736679000081494, 2.5976754000294022, 2.7498537999927066, 3.0858623000094667]",130.65554559999146,None,130.65545733998297,130.75560500001302,,,,,,,,,,,,s267_02122024,001,2024-02-12_17h27.10.133,test_typingtask_norepeats,2020.2.10,59.97195711575159,
there,there,,,,,0,9,9,9,,,,,,,,136.15557150001405,None,"['t', 'h', 'e', 'r', 'e']",1,"[1.2416541999555193, 1.3377635999931954, 1.4736309999716468, 1.5776207000017166, 1.7215539999888279]",136.15557150001405,None,136.1554350399878,136.2555995999719,,,,,,,,,,,,s267_02122024,001,2024-02-12_17h27.10.133,test_typingtask_norepeats,2020.2.10,59.97195711575159,
zibja,zibja,,,,,0,10,10,10,,,,,,,,141.65560960001312,None,"['z', 'i', 'b', 'j', 'a']",1,"[1.31807719997596, 1.6297013000003062, 2.429603800002951, 2.669606599956751, 2.821699899970554]",141.65560960001312,None,141.6554479399696,141.75558389996877,,,,,,,,,,,,s267_02122024,001,2024-02-12_17h27.10.133,test_typingtask_norepeats,2020.2.10,59.97195711575159,
kremp,kremp,,,,,0,11,11,11,,,,,,,,147.1556129999808,None,"['k', 'r', 'e', 'm']",0,"[1.8017042000428773, 2.2497277000220492, 2.385554500040598, 3.2095969000365585]",147.1556129999808,None,147.15546413997654,147.255627800012,,,,,,,,,,,,s267_02122024,001,2024-02-12_17h27.10.133,test_typingtask_norepeats,2020.2.10,59.97195711575159,
lucky,lucky,,,,,0,12,12,12,,,,,,,,152.65560389996972,None,"['l', 'u', 'c', 'k', 'y']",1,"[1.2935952000552788, 1.5496243000379764, 1.7096304000006057, 1.821685900038574, 2.077701000031084]",152.65560389996972,None,152.65551903998713,None,,,,,,,,,,,,s267_02122024,001,2024-02-12_17h27.10.133,test_typingtask_norepeats,2020.2.10,59.97195711575159,
druze,druze,,,,,0,13,13,13,,,,,,,,158.1556844000006,None,"['d', 'r', 'u', 'z', 'e']",1,"[0.9374798000208102, 1.1216142000048421, 1.2415008000098169, 1.8735044000204653, 2.153623999969568]",158.1556844000006,None,158.1555390399648,None,,,,,,,,,,,,s267_02122024,001,2024-02-12_17h27.10.133,test_typingtask_norepeats,2020.2.10,59.97195711575159,
think,think,,,,,0,14,14,14,,,,,,,,163.65567800001008,None,"['t', 'h', 'i', 'n', 'k']",1,"[0.7975151999853551, 0.8696342000039294, 1.0215977999614552, 1.1415141999605112, 1.317566599987913]",163.65567800001008,None,163.65561103998917,None,,,,,,,,,,,,s267_02122024,001,2024-02-12_17h27.10.133,test_typingtask_norepeats,2020.2.10,59.97195711575159,
druze,druze,,,,,0,15,15,15,,,,,,,,169.15568889997667,None,"['d', 'r', 'u', 'z', 'e']",1,"[0.9615025999955833, 1.1374674999970011, 1.2656078000436537, 1.825534300005529, 2.097637000028044]",169.15568889997667,None,169.1555703399703,None,,,,,,,,,,,,s267_02122024,001,2024-02-12_17h27.10.133,test_typingtask_norepeats,2020.2.10,59.97195711575159,
belly,belly,,,,,0,16,16,16,,,,,,,,174.65570429997751,None,"['b', 'e', 'l', 'l', 'y']",1,"[0.8294827000354417, 0.9336540999938734, 1.1495609999983571, 1.2856193000334315, 1.5414716000086628]",174.65570429997751,None,174.65558523996734,None,,,,,,,,,,,,s267_02122024,001,2024-02-12_17h27.10.133,test_typingtask_norepeats,2020.2.10,59.97195711575159,
vodka,vodka,,,,,0,17,17,17,,,,,,,,180.15575539995916,None,"['v', 'o', 'd', 'k', 'a']",1,"[1.3934268999728374, 1.5053596000070684, 1.6895136999664828, 1.905347799998708, 2.289399900007993]",180.15575539995916,None,180.15560743996176,None,,,,,,,,,,,,s267_02122024,001,2024-02-12_17h27.10.133,test_typingtask_norepeats,2020.2.10,59.97195711575159,
faqir,faqir,,,,,0,18,18,18,,,,,,,,185.655739800015,None,"['f', 'a', 'q']",0,"[2.6934428999666125, 2.9174516999628395, 3.3974357999977656]",185.655739800015,None,185.6555998399621,None,,,,,,,,,,,,s267_02122024,001,2024-02-12_17h27.10.133,test_typingtask_norepeats,2020.2.10,59.97195711575159,
tithe,tithe,,,,,0,19,19,19,,,,,,,,191.1557635999634,None,"['t', 'i', 't', 'h', 'e']",1,"[1.3853486999869347, 1.521390399953816, 1.6653276999713853, 1.8494967999868095, 2.425469699956011]",191.1557635999634,None,191.15560283998494,None,,,,,,,,,,,,s267_02122024,001,2024-02-12_17h27.10.133,test_typingtask_norepeats,2020.2.10,59.97195711575159,
therm,therm,,,,,0,20,20,20,,,,,,,,196.65574999997625,None,"['t', 'h', 'e', 'r', 'm']",1,"[1.9014444000204094, 2.0134283000370488, 2.1975080000120215, 2.2533859999966808, 2.501512300048489]",196.65574999997625,None,196.65576473999536,None,,,,,,,,,,,,s267_02122024,001,2024-02-12_17h27.10.133,test_typingtask_norepeats,2020.2.10,59.97195711575159,
puppy,puppy,,,,,0,21,21,21,,,,,,,,202.15579160000198,None,"['p', 'u', 'p', 'p', 'y']",1,"[1.0893627000041306, 1.361444499983918, 1.6413448000093922, 1.7533282999647781, 2.025295500003267]",202.15579160000198,None,202.15570063997293,None,,,,,,,,,,,,s267_02122024,001,2024-02-12_17h27.10.133,test_typingtask_norepeats,2020.2.10,59.97195711575159,
kremp,kremp,,,,,0,22,22,22,,,,,,,,207.655831400014,None,"['k', 'r', 'e', 'm', 'p']",1,"[1.533278499962762, 1.6534105999744497, 1.7333886999986134, 1.9253088999539614, 2.117458499968052]",207.655831400014,None,207.6556810399983,None,,,,,,,,,,,,s267_02122024,001,2024-02-12_17h27.10.133,test_typingtask_norepeats,2020.2.10,59.97195711575159,
vanru,vanru,,,,,0,23,23,23,,,,,,,,213.1557987999986,None,"['v', 'a', 'n', 'r', 'u']",1,"[1.1852978999959305, 1.3293508000206202, 1.4413514999905601, 1.665261099988129, 1.8413031999953091]",213.1557987999986,None,213.15574023998343,None,,,,,,,,,,,,s267_02122024,001,2024-02-12_17h27.10.133,test_typingtask_norepeats,2020.2.10,59.97195711575159,
puppy,puppy,,,,,0,24,24,24,,,,,,,,218.65581669996027,None,"['p', 'u', 'p', 'p', 'y']",1,"[0.9973361999727786, 1.253389099962078, 1.5253950000042096, 1.6374337999732234, 1.8935086999554187]",218.65581669996027,None,218.65573213997996,None,,,,,,,,,,,,s267_02122024,001,2024-02-12_17h27.10.133,test_typingtask_norepeats,2020.2.10,59.97195711575159,
about,about,,,,,0,25,25,25,,,,,,,,224.1558828999987,None,"['a', 'b', 'o', 'u', 't']",1,"[1.049261900014244, 1.097236100002192, 1.3372460000100546, 1.4251801000209525, 1.6012438000179827]",224.1558828999987,None,224.15576183997328,None,,,,,,,,,,,,s267_02122024,001,2024-02-12_17h27.10.133,test_typingtask_norepeats,2020.2.10,59.97195711575159,
pykka,pykka,,,,,0,26,26,26,,,,,,,,229.65589519997593,None,"['p', 'y', 'k', 'k', 'a']",1,"[1.901241400046274, 2.205264599993825, 2.5092484999913722, 2.6371596000390127, 2.7813394000404514]",229.65589519997593,None,229.65577183999122,None,,,,,,,,,,,,s267_02122024,001,2024-02-12_17h27.10.133,test_typingtask_norepeats,2020.2.10,59.97195711575159,
haole,haole,,,,,0,27,27,27,,,,,,,,235.15591089997906,None,"['h', 'a', 'o', 'l', 'e']",1,"[1.9052577000111341, 2.0412621999857947, 2.1931911000283435, 2.4174454000312835, 2.5772782000130974]",235.15591089997906,None,235.1557579400018,None,,,,,,,,,,,,s267_02122024,001,2024-02-12_17h27.10.133,test_typingtask_norepeats,2020.2.10,59.97195711575159,
cooed,cooed,,,,,0,28,28,28,,,,,,,,240.65587929997128,None,"['c', 'o', 'o', 'e', 'd']",1,"[1.613257099990733, 1.8133757000323385, 1.9652978000231087, 2.181223999999929, 2.2772265000385232]",240.65587929997128,None,240.65586093997118,None,,,,,,,,,,,,s267_02122024,001,2024-02-12_17h27.10.133,test_typingtask_norepeats,2020.2.10,59.97195711575159,
haole,haole,,,,,0,29,29,29,,,,,,,,246.1559358999948,None,"['h', 'a', 'o', 'l', 'e']",1,"[1.5852371000219136, 1.7051253999816254, 1.8651695000007749, 2.057286800001748, 2.1771558999898843]",246.1559358999948,None,246.1558295399649,None,,,,,,,,,,,,s267_02122024,001,2024-02-12_17h27.10.133,test_typingtask_norepeats,2020.2.10,59.97195711575159,
vanru,vanru,,,,,0,30,30,30,,,,,,,,251.6559547999641,None,"['v', 'a', 'n', 'r', 'u']",1,"[1.149165400012862, 1.3092508000554517, 1.4372546000522561, 1.6371741000330076, 1.9012069000164047]",251.6559547999641,None,251.65585814000806,None,,,,,,,,,,,,s267_02122024,001,2024-02-12_17h27.10.133,test_typingtask_norepeats,2020.2.10,59.97195711575159,
heond,heond,,,,,0,31,31,31,,,,,,,,257.15595159999793,None,"['h', 'e', 'o', 'n', 'd']",1,"[1.1211631000041962, 1.241126200009603, 1.3931604999816045, 1.5371309000183828, 1.977141199982725]",257.15595159999793,None,257.15587003998223,None,,,,,,,,,,,,s267_02122024,001,2024-02-12_17h27.10.133,test_typingtask_norepeats,2020.2.10,59.97195711575159,
cheer,cheer,,,,,0,32,32,32,,,,,,,,262.655987599981,None,"['c', 'h', 'e', 'e', 'r']",1,"[1.2611450999975204, 1.3412245999788865, 1.5090844000224024, 1.6692460000049323, 1.8132411999977194]",262.655987599981,None,262.65598403997717,None,,,,,,,,,,,,s267_02122024,001,2024-02-12_17h27.10.133,test_typingtask_norepeats,2020.2.10,59.97195711575159,
there,there,,,,,0,33,33,33,,,,,,,,268.1560211000033,None,"['t', 'h', 'e', 'r', 'e']",1,"[0.8490777999977581, 0.9290613000048324, 1.0811896999948658, 1.1690897999797016, 1.3293785999994725]",268.1560211000033,None,268.15587233999975,None,,,,,,,,,,,,s267_02122024,001,2024-02-12_17h27.10.133,test_typingtask_norepeats,2020.2.10,59.97195711575159,
cheer,cheer,,,,,0,34,34,34,,,,,,,,273.65602240001317,None,"['c', 'h', 'e', 'e', 'r']",1,"[1.2930706999613903, 1.4050906999618746, 1.7250174999935552, 1.901036600000225, 2.1170691999723203]",273.65602240001317,None,273.6558915399713,None,,,,,,,,,,,,s267_02122024,001,2024-02-12_17h27.10.133,test_typingtask_norepeats,2020.2.10,59.97195711575159,
kremp,kremp,,,,,0,35,35,35,,,,,,,,279.1560585999978,None,"['k', 'r', 'e', 'm', 'p']",1,"[1.3690401000203565, 1.513116699992679, 1.5931501999730244, 1.8090271999826655, 2.0249767000204884]",279.1560585999978,None,279.155958040012,None,,,,,,,,,,,,s267_02122024,001,2024-02-12_17h27.10.133,test_typingtask_norepeats,2020.2.10,59.97195711575159,
cooed,cooed,,,,,0,36,36,36,,,,,,,,284.6560934999725,None,"['c', 'o', 'o', 'e', 'd']",1,"[0.9650113999960013, 1.1249834000482224, 1.2689782000379637, 1.4609698000131175, 1.5649181000189856]",284.6560934999725,None,284.6559674399672,None,,,,,,,,,,,,s267_02122024,001,2024-02-12_17h27.10.133,test_typingtask_norepeats,2020.2.10,59.97195711575159,
there,there,,,,,0,37,37,37,,,,,,,,290.15613829996437,None,"['t', 'h', 'e', 'r', 'e']",1,"[0.8569407999748364, 0.9688951999996789, 1.0889828999643214, 1.1848828999791294, 1.3370446999906562]",290.15613829996437,None,290.1559847399825,None,,,,,,,,,,,,s267_02122024,001,2024-02-12_17h27.10.133,test_typingtask_norepeats,2020.2.10,59.97195711575159,
cheer,cheer,,,,,0,38,38,38,,,,,,,,295.65616219997173,None,"['c', 'h', 'e', 'e', 'r']",1,"[0.9891205000458285, 1.1169754000147805, 1.2848521000123583, 1.4608761999988928, 1.6128738000406884]",295.65616219997173,None,295.65601124000966,None,,,,,,,,,,,,s267_02122024,001,2024-02-12_17h27.10.133,test_typingtask_norepeats,2020.2.10,59.97195711575159,
lucky,lucky,,,,,0,39,39,39,,,,,,,,301.1561737000011,None,"['l', 'l', 'u', 'c', 'k', 'y']",0,"[1.0568938999786042, 1.4250862000044435, 1.712901899998542, 1.8408594999928027, 1.9848548999871127, 2.312886099971365]",301.1561737000011,None,301.15602083996635,None,,,,,,,,,,,,s267_02122024,001,2024-02-12_17h27.10.133,test_typingtask_norepeats,2020.2.10,59.97195711575159,
would,would,,,,,0,40,40,40,,,,,,,,306.6561927999719,None,"['w', 'o', 'u', 'l', 'd']",1,"[1.0449045000132173, 1.18089359998703, 1.2528630000306293, 1.469064500008244, 1.6448048999882303]",306.6561927999719,None,306.6560424399562,None,,,,,,,,,,,,s267_02122024,001,2024-02-12_17h27.10.133,test_typingtask_norepeats,2020.2.10,59.97195711575159,
lucky,lucky,,,,,0,41,41,41,,,,,,,,312.15619239996886,None,"['l', 'u', 'c', 'k', 'y']",1,"[0.9528649000567384, 1.1928035000455566, 1.3529738000361249, 1.4408318000496365, 1.68087010004092]",312.15619239996886,None,312.1560566400061,None,,,,,,,,,,,,s267_02122024,001,2024-02-12_17h27.10.133,test_typingtask_norepeats,2020.2.10,59.97195711575159,
pykka,pykka,,,,,0,42,42,42,,,,,,,,317.6562203000067,None,"['p', 'y', 'k', 'k', 'a']",1,"[1.7488401000155136, 2.0848784999689087, 2.3808164999936707, 2.5171522999880835, 2.6528434999636374]",317.6562203000067,None,317.6560986399767,None,,,,,,,,,,,,s267_02122024,001,2024-02-12_17h27.10.133,test_typingtask_norepeats,2020.2.10,59.97195711575159,
belly,belly,,,,,0,43,43,43,,,,,,,,323.156231299974,None,"['b', 'e', 'l', 'l', 'y']",1,"[0.8249723000335507, 0.9688617000356317, 1.1608156000147574, 1.2809165000217035, 1.5447550000390038]",323.156231299974,None,323.1560828399728,None,,,,,,,,,,,,s267_02122024,001,2024-02-12_17h27.10.133,test_typingtask_norepeats,2020.2.10,59.97195711575159,
think,think,,,,,0,44,44,44,,,,,,,,328.656260299962,None,"['t', 'h', 'i', 'n', 'k']",1,"[0.8127832000027411, 0.9008515000459738, 1.0368584000389092, 1.1968375000287779, 1.5407790000317618]",328.656260299962,None,328.6561063399771,None,,,,,,,,,,,,s267_02122024,001,2024-02-12_17h27.10.133,test_typingtask_norepeats,2020.2.10,59.97195711575159,
belly,belly,,,,,0,45,45,45,,,,,,,,334.15629590000026,None,"['b', 'e', 'l', 'l', 'y']",1,"[0.7927822999772616, 0.9207540999632329, 1.3687338000163436, 1.504672600014601, 1.7446421000058763]",334.15629590000026,None,334.15614814000435,None,,,,,,,,,,,,s267_02122024,001,2024-02-12_17h27.10.133,test_typingtask_norepeats,2020.2.10,59.97195711575159,
zibja,zibja,,,,,0,46,46,46,,,,,,,,339.65631140000187,None,"['z', 'i', 'b', 'j', 'a']",1,"[1.3248683999991044, 1.772712700010743, 2.252714600006584, 2.988721399975475, 3.2126928999787197]",339.65631140000187,None,339.65618333998134,None,,,,,,,,,,,,s267_02122024,001,2024-02-12_17h27.10.133,test_typingtask_norepeats,2020.2.10,59.97195711575159,
therm,therm,,,,,0,47,47,47,,,,,,,,345.1563239999814,None,"['t', 'h', 'e', 'r', 'm']",1,"[1.0807039000210352, 1.1848995999898762, 1.3127351999864914, 1.4086923000286333, 1.6807917000260204]",345.1563239999814,None,345.1562232399941,345.25632879999466,,,,,,,,,,,,s267_02122024,001,2024-02-12_17h27.10.133,test_typingtask_norepeats,2020.2.10,59.97195711575159,
edthe,edthe,,,,,0,48,48,48,,,,,,,,350.65635199996177,None,"['d', 'e', 't', 'h', 'e']",0,"[1.2206836999976076, 1.3726801000302657, 2.1566399000003003, 2.2766250999993645, 2.4366616000188515]",350.65635199996177,None,350.6562250400078,None,,,,,,,,,,,,s267_02122024,001,2024-02-12_17h27.10.133,test_typingtask_norepeats,2020.2.10,59.97195711575159,
would,would,,,,,0,49,49,49,,,,,,,,356.15637479996076,None,"['w', 'o', 'u', 'l', 'd']",1,"[1.0566546999616548, 1.192729700007476, 1.2645742999739014, 1.4487275999854319, 1.6166469999589026]",356.15637479996076,None,356.15626793998524,None,,,,,,,,,,,,s267_02122024,001,2024-02-12_17h27.10.133,test_typingtask_norepeats,2020.2.10,59.97195711575159,
cooed,cooed,,,,,0,50,50,50,,,,,,,,361.65635489998385,None,"['c', 'o', 'o', 'e', 'd']",1,"[1.0686533999978565, 1.2206501999753527, 1.3486449999618344, 1.5247133999946527, 1.644663299957756]",361.65635489998385,None,361.6562770399963,None,,,,,,,,,,,,s267_02122024,001,2024-02-12_17h27.10.133,test_typingtask_norepeats,2020.2.10,59.97195711575159,
pykka,pykka,,,,,0,51,51,51,,,,,,,,367.1564096999937,None,"['p', 'y', 'k', 'k', 'a']",1,"[1.2965949000208639, 1.9365961999865249, 2.544591900019441, 2.696689400007017, 2.8725605999934487]",367.1564096999937,None,367.1562957399641,None,,,,,,,,,,,,s267_02122024,001,2024-02-12_17h27.10.133,test_typingtask_norepeats,2020.2.10,59.97195711575159,
zibja,zibja,,,,,0,52,52,52,,,,,,,,372.6564039000077,None,"['z', 'i', 'b', 'j']",0,"[1.3965983999660239, 2.0047494000173174, 2.9405991999665275, 3.1087456999812275]",372.6564039000077,None,372.65633264001224,None,,,,,,,,,,,,s267_02122024,001,2024-02-12_17h27.10.133,test_typingtask_norepeats,2020.2.10,59.97195711575159,
heond,heond,,,,,0,53,53,53,,,,,,,,378.15646769996965,None,"['h', 'e', 'o', 'n', 'd']",1,"[1.2005439000204206, 1.3206256999983452, 1.5044576000072993, 1.6484996000071988, 1.8805184000520967]",378.15646769996965,None,378.15631213997256,None,,,,,,,,,,,,s267_02122024,001,2024-02-12_17h27.10.133,test_typingtask_norepeats,2020.2.10,59.97195711575159,
there,there,,,,,0,54,54,54,,,,,,,,383.6564615999814,None,"['t', 'h', 'e', 'r', 'e']",1,"[0.8365358000155538, 0.9328604000038467, 1.0925859999842942, 1.1724808000144549, 1.3165460000163876]",383.6564615999814,None,383.65636773998847,None,,,,,,,,,,,,s267_02122024,001,2024-02-12_17h27.10.133,test_typingtask_norepeats,2020.2.10,59.97195711575159,
theme,theme,,,,,0,55,55,55,,,,,,,,389.15649929997744,None,"['t', 'h', 'e', 'm', 'e']",1,"[0.8804712999844924, 0.99267740000505, 1.1605860000126995, 1.4964909999980591, 1.6009445000090636]",389.15649929997744,None,389.15651323999043,389.25662299996475,,,,,,,,,,,,s267_02122024,001,2024-02-12_17h27.10.133,test_typingtask_norepeats,2020.2.10,59.97195711575159,
cheer,cheer,,,,,0,56,56,56,,,,,,,,394.6565008999896,None,"['c', 'h', 'e', 'e', 'r']",1,"[1.1964938000310212, 1.2844079000060447, 1.492467799980659, 1.8605271999840625, 2.06847589998506]",394.6565008999896,None,394.65641823996555,None,,,,,,,,,,,,s267_02122024,001,2024-02-12_17h27.10.133,test_typingtask_norepeats,2020.2.10,59.97195711575159,
cooed,cooed,,,,,0,57,57,57,,,,,,,,400.1566295999801,None,"['c', 'o', 'o', 'e', 'd']",1,"[1.1603412000113167, 1.3603144999942742, 1.5123080000048503, 1.6723071999731474, 1.7603132000076585]",400.1566295999801,None,400.1564421399729,None,,,,,,,,,,,,s267_02122024,001,2024-02-12_17h27.10.133,test_typingtask_norepeats,2020.2.10,59.97195711575159,
pykka,pykka,,,,,0,58,58,58,,,,,,,,405.65654529997846,None,"['p', 'y', 'k', 'k', 'a']",1,"[1.620448000030592, 2.02841820003232, 2.50842399999965, 2.6686329999938607, 2.8684116000076756]",405.65654529997846,None,405.6564618400065,None,,,,,,,,,,,,s267_02122024,001,2024-02-12_17h27.10.133,test_typingtask_norepeats,2020.2.10,59.97195711575159,
vanru,vanru,,,,,0,59,59,59,,,,,,,,411.1566554000019,None,"['v', 'a', 'n', 'r', 'u']",1,"[1.0483028999879025, 1.3442497000214644, 2.0963153000338934, 2.3284193000290543, 3.0723028000211343]",411.1566554000019,None,411.15648603995794,None,,,,,,,,,,,,s267_02122024,001,2024-02-12_17h27.10.133,test_typingtask_norepeats,2020.2.10,59.97195711575159,
about,about,,,,,0,60,60,60,,,,,,,,416.6566294999793,None,"['a', 'b', 'o', 'u', 't']",1,"[1.0603471000213176, 1.1724827000289224, 1.3964459000271745, 1.468464200035669, 1.6523068000096828]",416.6566294999793,None,416.6565112399752,None,,,,,,,,,,,,s267_02122024,001,2024-02-12_17h27.10.133,test_typingtask_norepeats,2020.2.10,59.97195711575159,
faqir,faqir,,,,,0,61,61,61,,,,,,,,422.15666619996773,None,"['f', 'a', 'q']",0,"[2.560292699956335, 2.8002511999802664, 3.2644331999472342]",422.15666619996773,None,422.15655763997927,None,,,,,,,,,,,,s267_02122024,001,2024-02-12_17h27.10.133,test_typingtask_norepeats,2020.2.10,59.97195711575159,
lucky,lucky,,,,,0,62,62,62,,,,,,,,427.6566362999729,None,"['l', 'u', 'c', 'k', 'y']",1,"[1.0843100000056438, 1.348291500005871, 1.5163255000370555, 1.5962968000094406, 1.8044591000070795]",427.6566362999729,None,427.6565637399675,None,,,,,,,,,,,,s267_02122024,001,2024-02-12_17h27.10.133,test_typingtask_norepeats,2020.2.10,59.97195711575159,
haole,haole,,,,,0,63,63,63,,,,,,,,433.1566669999738,None,"['h', 'a', 'o', 'l', 'e']",1,"[1.7042491000029258, 1.9122630000347272, 2.192259900039062, 2.4082811000407673, 2.6402545000310056]",433.1566669999738,None,433.15659033999543,None,,,,,,,,,,,,s267_02122024,001,2024-02-12_17h27.10.133,test_typingtask_norepeats,2020.2.10,59.97195711575159,
druze,druze,,,,,0,64,64,64,,,,,,,,438.656722499989,None,"['d', 'r', 'u', 'z', 'e']",1,"[1.356221700028982, 1.5641446000081487, 1.836205700004939, 2.6362073000054806, 2.8842115000006743]",438.656722499989,None,438.6566140400013,None,,,,,,,,,,,,s267_02122024,001,2024-02-12_17h27.10.133,test_typingtask_norepeats,2020.2.10,59.97195711575159,
theme,theme,,,,,0,65,65,65,,,,,,,,444.1567748999805,None,"['t', 'h', 'e', 'm', 'e']",1,"[0.9443089000415057, 1.0081617000396363, 1.3682080000289716, 1.6481155999936163, 1.8004499000380747]",444.1567748999805,None,444.15662473996633,None,,,,,,,,,,,,s267_02122024,001,2024-02-12_17h27.10.133,test_typingtask_norepeats,2020.2.10,59.97195711575159,
kremp,kremp,,,,,0,66,66,66,,,,,,,,449.6567638000124,None,"['k', 'r', 'e', 'm', 'p']",1,"[1.6921684999833815, 1.8361645999830216, 1.9161704999860376, 2.100301700003911, 2.332286499964539]",449.6567638000124,None,449.6566392399603,None,,,,,,,,,,,,s267_02122024,001,2024-02-12_17h27.10.133,test_typingtask_norepeats,2020.2.10,59.97195711575159,
about,about,,,,,0,67,67,67,,,,,,,,455.1568041999708,None,"['a', 'b', 'o', 'u', 't']",1,"[1.1362630000221543, 1.256266400043387, 1.5120960000203922, 1.5840752000221983, 1.7840577000170015]",455.1568041999708,None,455.15664853997293,None,,,,,,,,,,,,s267_02122024,001,2024-02-12_17h27.10.133,test_typingtask_norepeats,2020.2.10,59.97195711575159,
pykka,pykka,,,,,0,68,68,68,,,,,,,,460.65682659996673,None,"['p', 'y', 'k', 'k', 'a']",1,"[2.228092099947389, 2.436112299968954, 2.7240432999678887, 2.8600636999472044, 3.0440241000032984]",460.65682659996673,None,460.65666453997835,None,,,,,,,,,,,,s267_02122024,001,2024-02-12_17h27.10.133,test_typingtask_norepeats,2020.2.10,59.97195711575159,
there,there,,,,,0,69,69,69,,,,,,,,466.15757270000177,None,"['t', 'h', 'e', 'r', 'e']",1,"[1.0073469000053592, 1.0874492999864742, 1.4393050000071526, 1.559356099984143, 1.7193087000050582]",466.15757270000177,None,466.1567415399826,466.2575693000108,,,,,,,,,,,,s267_02122024,001,2024-02-12_17h27.10.133,test_typingtask_norepeats,2020.2.10,59.97195711575159,
theme,theme,,,,,0,70,70,70,,,,,,,,471.65687389997765,None,"['t', 'h', 'e', 'm', 'e']",1,"[0.9960434000240639, 1.0680375000229105, 1.4521529000485316, 1.5880512000294402, 1.7161736999987625]",471.65687389997765,None,471.65675873999714,471.7568403999903,,,,,,,,,,,,s267_02122024,001,2024-02-12_17h27.10.133,test_typingtask_norepeats,2020.2.10,59.97195711575159,
zibja,zibja,,,,,0,71,71,71,,,,,,,,477.15690609999,None,"['z', 'i', 'b']",0,"[2.3760019000037573, 2.67199800000526, 3.104053399991244]",477.15690609999,None,477.1567767399596,477.2569034000044,,,,,,,,,,,,s267_02122024,001,2024-02-12_17h27.10.133,test_typingtask_norepeats,2020.2.10,59.97195711575159,
tithe,tithe,,,,,0,72,72,72,,,,,,,,482.6569218999939,None,"['t', 'i', 't', 'h', 'e']",1,"[1.5799892999930307, 1.7159981000004336, 2.1239690000074916, 2.228080899978522, 2.6999766000080854]",482.6569218999939,None,482.65676673999985,482.75693679996766,,,,,,,,,,,,s267_02122024,001,2024-02-12_17h27.10.133,test_typingtask_norepeats,2020.2.10,59.97195711575159,
about,about,,,,,0,73,73,73,,,,,,,,488.15695069998037,None,"['a', 'b', 'o', 'u', 't']",1,"[1.263906300009694, 1.3760271000210196, 1.607957600033842, 1.680097900039982, 1.8638832000433467]",488.15695069998037,None,488.1568364400067,488.25697539997054,,,,,,,,,,,,s267_02122024,001,2024-02-12_17h27.10.133,test_typingtask_norepeats,2020.2.10,59.97195711575159,
druze,druze,,,,,0,74,74,74,,,,,,,,493.65700810001,None,"['d', 'r', 'u', 'z', 'e']",1,"[1.2918777000159025, 1.4360241000540555, 1.636003100022208, 2.331898100033868, 2.5958642000332475]",493.65700810001,None,493.656863639981,493.7569824999664,,,,,,,,,,,,s267_02122024,001,2024-02-12_17h27.10.133,test_typingtask_norepeats,2020.2.10,59.97195711575159,
haole,haole,,,,,0,75,75,75,,,,,,,,499.15700999996625,None,"['h', 'a', 'o', 'l', 'e']",1,"[1.5440203999751247, 1.6798536999849603, 1.8478427999652922, 2.0560168999945745, 2.1758457999676466]",499.15700999996625,None,499.15686173996653,499.2570040000137,,,,,,,,,,,,s267_02122024,001,2024-02-12_17h27.10.133,test_typingtask_norepeats,2020.2.10,59.97195711575159,
champ,champ,,,,,0,76,76,76,,,,,,,,504.6570273999823,None,"['c', 'h', 'a', 'm', 'p']",1,"[0.9878658000379801, 1.0760254000197165, 1.2437875000177883, 1.3238055999972858, 1.5478309000027366]",504.6570273999823,None,504.6569169399794,504.7570279999636,,,,,,,,,,,,s267_02122024,001,2024-02-12_17h27.10.133,test_typingtask_norepeats,2020.2.10,59.97195711575159,
theme,theme,,,,,0,77,77,77,,,,,,,,510.1570569999749,None,"['t', 'h', 'e', 'm', 'e']",1,"[1.1839398000156507, 1.247940400033258, 1.7118248000042513, 1.823719100037124, 1.9119034000323154]",510.1570569999749,None,510.15695533998075,510.2570504999603,,,,,,,,,,,,s267_02122024,001,2024-02-12_17h27.10.133,test_typingtask_norepeats,2020.2.10,59.97195711575159,
champ,champ,,,,,0,78,78,78,,,,,,,,515.6570887999842,None,"['c', 'h', 'a', 'm', 'p']",1,"[1.227784699993208, 1.339731500018388, 1.5157810000237077, 1.611751499993261, 1.8278444000170566]",515.6570887999842,None,515.6569311399711,515.7570583999623,,,,,,,,,,,,s267_02122024,001,2024-02-12_17h27.10.133,test_typingtask_norepeats,2020.2.10,59.97195711575159,
vodka,vodka,,,,,0,79,79,79,,,,,,,,521.157108299958,None,"['v', 'o', 'd', 'k', 'e']",0,"[1.415760700008832, 1.5677335999789648, 2.0077268999884836, 2.1358442999771796, 2.3036687999847345]",521.157108299958,None,521.1569742400083,521.2571047999663,,,,,,,,,,,,s267_02122024,001,2024-02-12_17h27.10.133,test_typingtask_norepeats,2020.2.10,59.97195711575159,
think,think,,,,,0,80,80,80,,,,,,,,526.6570942999679,None,"['t', 'h', 'i', 'n', 'k']",1,"[1.035769900016021, 1.08366920001572, 1.2999371000332758, 1.4038109000539407, 1.6117550000199117]",526.6570942999679,None,526.6570067399647,526.757139399997,,,,,,,,,,,,s267_02122024,001,2024-02-12_17h27.10.133,test_typingtask_norepeats,2020.2.10,59.97195711575159,
vodka,vodka,,,,,0,81,81,81,,,,,,,,532.1571217000019,None,"['v', 'o', 'd', 'k', 'a']",1,"[1.175863299984485, 1.3197568000177853, 1.6798165999935009, 1.8477760999812745, 2.015864100016188]",532.1571217000019,None,532.1570437399554,532.2571348999627,,,,,,,,,,,,s267_02122024,001,2024-02-12_17h27.10.133,test_typingtask_norepeats,2020.2.10,59.97195711575159,
tithe,tithe,,,,,0,82,82,82,,,,,,,,537.6571873999783,None,"['t', 'i', 't', 'h', 'e']",1,"[1.2356558000319637, 1.3636189000098966, 1.4916643000324257, 1.6036199000081979, 1.8997769000125118]",537.6571873999783,None,537.6570635399897,537.7571469999966,,,,,,,,,,,,s267_02122024,001,2024-02-12_17h27.10.133,test_typingtask_norepeats,2020.2.10,59.97195711575159,
buddy,buddy,,,,,0,83,83,83,,,,,,,,543.1572220000089,None,"['b', 'u', 'd', 'd', 'y']",1,"[1.2717045999597758, 1.4316662999917753, 1.7196082000155002, 1.8637082999921404, 2.095600300002843]",543.1572220000089,None,543.1570890400093,543.2572377999895,,,,,,,,,,,,s267_02122024,001,2024-02-12_17h27.10.133,test_typingtask_norepeats,2020.2.10,59.97195711575159,
would,would,,,,,0,84,84,84,,,,,,,,548.6572457000148,None,"['w', 'o', 'u', 'l', 'd']",1,"[1.2357967999996617, 1.3395727999741212, 1.3875900999992155, 1.6197510999627411, 1.7716080999816768]",548.6572457000148,None,548.6571228399756,548.7572647999623,,,,,,,,,,,,s267_02122024,001,2024-02-12_17h27.10.133,test_typingtask_norepeats,2020.2.10,59.97195711575159,
buddy,buddy,,,,,0,85,85,85,,,,,,,,554.15725009999,None,"['b', 'i', 'd', 'd', 'y']",0,"[1.0236080000177026, 1.1837003999971785, 1.8475920999771915, 1.9916361999930814, 2.1837657000287436]",554.15725009999,None,554.1571449399693,554.2572694999981,,,,,,,,,,,,s267_02122024,001,2024-02-12_17h27.10.133,test_typingtask_norepeats,2020.2.10,59.97195711575159,
think,think,,,,,0,86,86,86,,,,,,,,559.6572984000086,None,"['t', 'h', 'i', 'n', 'k']",1,"[0.8035190000082366, 0.9395250999950804, 1.1076407000073232, 1.2355154000106268, 1.4274167999974452]",559.6572984000086,None,559.6571772399824,559.7573054999812,,,,,,,,,,,,s267_02122024,001,2024-02-12_17h27.10.133,test_typingtask_norepeats,2020.2.10,59.97195711575159,
buddy,buddy,,,,,0,87,87,87,,,,,,,,565.1573430999997,None,"['b', 'u', 'd', 'd', 'y']",1,"[1.303450100007467, 1.4555813999613747, 1.7275855999905616, 1.8875807999866083, 2.1515075999777764]",565.1573430999997,None,565.1571925399825,565.2573233000003,,,,,,,,,,,,s267_02122024,001,2024-02-12_17h27.10.133,test_typingtask_norepeats,2020.2.10,59.97195711575159,
therm,therm,,,,,0,88,88,88,,,,,,,,570.6573148999596,None,"['t', 'h', 'e', 'r', 'm']",1,"[1.0355126000358723, 1.1074974000221118, 1.4516069000237621, 1.7154928000527434, 1.9314897000440396]",570.6573148999596,None,570.6573115399573,570.7573443999863,,,,,,,,,,,,s267_02122024,001,2024-02-12_17h27.10.133,test_typingtask_norepeats,2020.2.10,59.97195711575159,
puppy,puppy,,,,,0,89,89,89,,,,,,,,576.1573288000072,None,"['p', 'u', 'p', 'p', 'y']",1,"[1.3034705000463873, 1.6075020000571385, 2.023512000043411, 2.159537100000307, 2.279554900014773]",576.1573288000072,None,576.1572922399849,576.2573474000092,,,,,,,,,,,,s267_02122024,001,2024-02-12_17h27.10.133,test_typingtask_norepeats,2020.2.10,59.97195711575159,
edthe,edthe,,,,,0,90,90,90,,,,,,,,581.6574118999997,None,"['e', 'd', 't', 'h', 'e']",1,"[2.3874021000228822, 2.475385700003244, 2.731551799981389, 2.8354894000221975, 2.955497800023295]",581.6574118999997,None,581.6572525399737,581.7573959999718,,,,,,,,,,,,s267_02122024,001,2024-02-12_17h27.10.133,test_typingtask_norepeats,2020.2.10,59.97195711575159,
heond,heond,,,,,0,91,91,91,,,,,,,,587.1574275000021,None,"['h', 'e', 'o', 'n', 'f']",0,"[1.2153767999843694, 1.3274714999715798, 1.47937010001624, 1.6234248999971896, 1.9033133999910206]",587.1574275000021,None,587.1572717400035,587.2574278999818,,,,,,,,,,,,s267_02122024,001,2024-02-12_17h27.10.133,test_typingtask_norepeats,2020.2.10,59.97195711575159,
puppy,puppy,,,,,0,92,92,92,,,,,,,,592.6574163999758,None,"['p', 'u', 'p', 'p', 'y']",1,"[1.1394049000227824, 1.4113673000247218, 1.795384600001853, 1.9314231000025757, 2.0995507000479847]",592.6574163999758,None,592.6573337400099,592.757420799986,,,,,,,,,,,,s267_02122024,001,2024-02-12_17h27.10.133,test_typingtask_norepeats,2020.2.10,59.97195711575159,
would,would,,,,,0,93,93,93,,,,,,,,598.1574856999796,None,"['w', 'o', 'u', 'l', 'd']",1,"[1.2393151000142097, 1.359275399998296, 1.41526600002544, 1.6152807000325993, 1.7753619000432082]",598.1574856999796,None,598.1573698399937,598.2574694000068,,,,,,,,,,,,s267_02122024,001,2024-02-12_17h27.10.133,test_typingtask_norepeats,2020.2.10,59.97195711575159,
champ,champ,,,,,0,94,94,94,,,,,,,,603.6575081999763,None,"['c', 'h', 'a', 'm', 'p']",1,"[1.2192982000415213, 1.3232229000423104, 1.483385800034739, 1.563274200016167, 1.7792626000009477]",603.6575081999763,None,603.6574388399953,603.7575104999705,,,,,,,,,,,,s267_02122024,001,2024-02-12_17h27.10.133,test_typingtask_norepeats,2020.2.10,59.97195711575159,
therm,therm,,,,,0,95,95,95,,,,,,,,609.1575423000031,None,"['t', 'h', 'e', 'r', 'm']",1,"[1.0232903999858536, 1.1195069999666885, 1.3032795999897644, 1.3912300000083633, 1.511280299979262]",609.1575423000031,None,609.1574275399674,609.2575432999874,,,,,,,,,,,,s267_02122024,001,2024-02-12_17h27.10.133,test_typingtask_norepeats,2020.2.10,59.97195711575159,
edthe,edthe,,,,,0,96,96,96,,,,,,,,614.6575702999835,None,"['e', 'd', 't', 'h', 'e']",1,"[1.4752197000198066, 1.5311962999985553, 1.8271834999904968, 1.955210399988573, 2.0831358000286855]",614.6575702999835,None,614.6574546399992,614.757589099987,,,,,,,,,,,,s267_02122024,001,2024-02-12_17h27.10.133,test_typingtask_norepeats,2020.2.10,59.97195711575159,
cheer,cheer,,,,,0,97,97,97,,,,,,,,620.157590799965,None,"['c', 'h', 'e', 'e', 'r']",1,"[1.087161399947945, 1.2073027999722399, 1.4071643999777734, 1.5831542999949306, 1.7031213999725878]",620.157590799965,None,620.157503139961,620.2575954999775,,,,,,,,,,,,s267_02122024,001,2024-02-12_17h27.10.133,test_typingtask_norepeats,2020.2.10,59.97195711575159,
cooed,cooed,,,,,0,98,98,98,,,,,,,,625.6576167999883,None,"['c', 'o', 'o', 'e', 'd']",1,"[0.963152899988927, 1.163076299999375, 1.3231545999879017, 1.4992538000224158, 1.6032274999888614]",625.6576167999883,None,625.6576375399949,625.7576206999947,,,,,,,,,,,,s267_02122024,001,2024-02-12_17h27.10.133,test_typingtask_norepeats,2020.2.10,59.97195711575159,
haole,haole,,,,,0,99,99,99,,,,,,,,631.1576612999779,None,"['h', 'a', 'o', 'l', 'e']",1,"[1.3352311000344343, 1.479145299992524, 1.6390735000022687, 1.8473523000138812, 2.2551043000421487]",631.1576612999779,None,631.1575183399603,631.2576523000025,,,,,,,,,,,,s267_02122024,001,2024-02-12_17h27.10.133,test_typingtask_norepeats,2020.2.10,59.97195711575159,
heond,heond,,,,,0,100,100,100,,,,,,,,636.6576834999723,None,"['h', 'e', 'o', 'n', 'd']",1,"[1.131129100045655, 1.331075000052806, 1.4911376000382006, 1.763183500035666, 2.2110800000373274]",636.6576834999723,None,636.6575770399999,None,,,,,,,,,,,,s267_02122024,001,2024-02-12_17h27.10.133,test_typingtask_norepeats,2020.2.10,59.97195711575159,
therm,therm,,,,,0,101,101,101,,,,,,,,642.1577073999797,None,"['t', 'h', 'e', 'r', 'm']",1,"[1.047049499989953, 1.175051500031259, 1.3270152999903075, 1.4313801000243984, 1.6229872000403702]",642.1577073999797,None,642.1576255399617,642.2576678000041,,,,,,,,,,,,s267_02122024,001,2024-02-12_17h27.10.133,test_typingtask_norepeats,2020.2.10,59.97195711575159,
edthe,edthe,,,,,0,102,102,102,,,,,,,,647.6577305999817,None,"['e', 'd', 't', 'h', 'e']",1,"[1.1710246999864466, 1.4429794999887235, 1.7230347000295296, 1.8429528000415303, 1.9870611000224017]",647.6577305999817,None,647.6576143399928,647.7577319999691,,,,,,,,,,,,s267_02122024,001,2024-02-12_17h27.10.133,test_typingtask_norepeats,2020.2.10,59.97195711575159,
faqir,faqir,,,,,0,103,103,103,,,,,,,,653.1577713000006,None,"['f', 'a', 'q', 'i', 'r']",1,"[1.9109843000187539, 2.3429266000166535, 2.6869877999997698, 3.030960000003688, 3.3509792999830097]",653.1577713000006,None,653.1577265399741,None,,,,,,,,,,,,s267_02122024,001,2024-02-12_17h27.10.133,test_typingtask_norepeats,2020.2.10,59.97195711575159,
tithe,tithe,,,,,0,104,104,104,,,,,,,,658.6577972999658,None,"['t', 'i', 't', 'h', 'e']",1,"[1.0989418999524787, 1.2829726999625564, 1.3948934999643825, 1.53088239999488, 1.6989133999450132]",658.6577972999658,None,658.6579422399867,None,,,,,,,,,,,,s267_02122024,001,2024-02-12_17h27.10.133,test_typingtask_norepeats,2020.2.10,59.97195711575159,
zibja,zibja,,,,,0,105,105,105,,,,,,,,664.1578496000147,None,"['z', 'i', 'b', 'j', 'a']",1,"[1.6149571999558248, 1.7830221999902278, 2.318964899983257, 2.678868599992711, 3.0708544999943115]",664.1578496000147,None,664.1577348399791,664.2579233999713,,,,,,,,,,,,s267_02122024,001,2024-02-12_17h27.10.133,test_typingtask_norepeats,2020.2.10,59.97195711575159,
buddy,buddy,,,,,0,106,106,106,,,,,,,,669.6578581999638,None,"['b', 'u', 'd', 'd', 'y']",1,"[0.8508900000015274, 1.042784599994775, 1.42686780000804, 1.570878400001675, 1.6908357999636792]",669.6578581999638,None,669.6578764400095,None,,,,,,,,,,,,s267_02122024,001,2024-02-12_17h27.10.133,test_typingtask_norepeats,2020.2.10,59.97195711575159,
edthe,edthe,,,,,0,107,107,107,,,,,,,,675.1578838999849,None,"['e', 'd', 't', 'h', 'e']",1,"[1.2308545000269078, 1.326850600016769, 1.5908263000310399, 1.742764900031034, 1.8789057999965735]",675.1578838999849,None,675.1577590399887,675.2578752000118,,,,,,,,,,,,s267_02122024,001,2024-02-12_17h27.10.133,test_typingtask_norepeats,2020.2.10,59.97195711575159,
vodka,vodka,,,,,0,108,108,108,,,,,,,,680.6579067999846,None,"['v', 'o', 'd', 'k', 'a']",1,"[1.2268188000307418, 1.354836200014688, 1.5710215999861248, 1.7467964999959804, 2.0508324000402354]",680.6579067999846,None,680.6577536400058,None,,,,,,,,,,,,s267_02122024,001,2024-02-12_17h27.10.133,test_typingtask_norepeats,2020.2.10,59.97195711575159,
faqir,faqir,,,,,0,109,109,109,,,,,,,,686.1579000999918,None,"['f', 'a', 'q', 'i', 'r']",1,"[1.694832300010603, 1.9907979000126943, 2.30279560002964, 2.742875099997036, 2.902700799982995]",686.1579000999918,None,686.1577982399962,None,,,,,,,,,,,,s267_02122024,001,2024-02-12_17h27.10.133,test_typingtask_norepeats,2020.2.10,59.97195711575159,
lucky,lucky,,,,,0,110,110,110,,,,,,,,691.6579593999777,None,"['l', 'u', 'c', 'k', 'y']",1,"[1.122709700022824, 1.4188014999963343, 1.6187353000277653, 1.7067241999902762, 2.018725300033111]",691.6579593999777,None,691.6578210399952,None,,,,,,,,,,,,s267_02122024,001,2024-02-12_17h27.10.133,test_typingtask_norepeats,2020.2.10,59.97195711575159,
vodka,vodka,,,,,0,111,111,111,,,,,,,,697.1579832999851,None,"['v', 'o', 'd', 'k', 'a']",1,"[1.19072650000453, 1.3667194999870844, 1.5266871000058018, 1.7106939000077546, 1.9107820999925025]",697.1579832999851,None,697.1578729399829,None,,,,,,,,,,,,s267_02122024,001,2024-02-12_17h27.10.133,test_typingtask_norepeats,2020.2.10,59.97195711575159,
buddy,buddy,,,,,0,112,112,112,,,,,,,,702.6579868000117,None,"['b', 'u', 'd', 'd', 'y']",1,"[1.1867130000027828, 1.4026468999800272, 1.762695999990683, 1.9307222999632359, 2.106850099982694]",702.6579868000117,None,702.6578918400104,None,,,,,,,,,,,,s267_02122024,001,2024-02-12_17h27.10.133,test_typingtask_norepeats,2020.2.10,59.97195711575159,
theme,theme,,,,,0,113,113,113,,,,,,,,708.1580094000092,None,"['t', 'h', 'e', 'm', 'e']",1,"[0.8146859999978915, 0.918779400002677, 1.0707079999847338, 1.2626259999815375, 1.390803899965249]",708.1580094000092,None,708.1579506399925,None,,,,,,,,,,,,s267_02122024,001,2024-02-12_17h27.10.133,test_typingtask_norepeats,2020.2.10,59.97195711575159,
kremp,kremp,,,,,0,114,114,114,,,,,,,,713.6580404000124,None,"['k', 'r', 'e', 'm', 'p']",1,"[1.5146527999895625, 1.666591499990318, 1.7386608999804594, 1.8827288000029512, 2.5306501999730244]",713.6580404000124,None,713.6579237399623,None,,,,,,,,,,,,s267_02122024,001,2024-02-12_17h27.10.133,test_typingtask_norepeats,2020.2.10,59.97195711575159,
champ,champ,,,,,0,115,115,115,,,,,,,,719.1580706000095,None,"['c', 'h', 'a', 'm', 'p']",1,"[0.9666556000011042, 1.0545998999732547, 1.238754499994684, 1.302538399992045, 1.5426731999614276]",719.1580706000095,None,719.1580018399749,719.2580751999631,,,,,,,,,,,,s267_02122024,001,2024-02-12_17h27.10.133,test_typingtask_norepeats,2020.2.10,59.97195711575159,
tithe,tithe,,,,,0,116,116,116,,,,,,,,724.6581397000118,None,"['t', 'i', 't', 'h', 'e']",1,"[1.1466733000124805, 1.2905820999876596, 1.4025171999819577, 1.5146033999626525, 1.6424568999791518]",724.6581397000118,None,724.6580310399644,724.7580976999598,,,,,,,,,,,,s267_02122024,001,2024-02-12_17h27.10.133,test_typingtask_norepeats,2020.2.10,59.97195711575159,
puppy,puppy,,,,,0,117,117,117,,,,,,,,730.1581701000105,None,"['p', 'u', 'p', 'p', 'y']",1,"[1.0385089999763295, 1.326509199978318, 1.6065201999736018, 1.7424422999611124, 1.9424460000009276]",730.1581701000105,None,730.158053139958,730.258174299961,,,,,,,,,,,,s267_02122024,001,2024-02-12_17h27.10.133,test_typingtask_norepeats,2020.2.10,59.97195711575159,
champ,champ,,,,,0,118,118,118,,,,,,,,735.6582419999759,None,"['c', 'h', 'a', 'm', 'p']",1,"[0.9144287999952212, 1.0104131000116467, 1.1545591000467539, 1.2344294000067748, 1.4663495999993756]",735.6582419999759,None,735.658059440006,735.7582009999896,,,,,,,,,,,,s267_02122024,001,2024-02-12_17h27.10.133,test_typingtask_norepeats,2020.2.10,59.97195711575159,
belly,belly,,,,,0,119,119,119,,,,,,,,741.1582207999891,None,"['b', 'l', 'l', 'y']",0,"[0.8704494999838062, 1.2625591999967583, 1.414441800036002, 1.6626070000347681]",741.1582207999891,None,741.158082240005,741.2582192000118,,,,,,,,,,,,s267_02122024,001,2024-02-12_17h27.10.133,test_typingtask_norepeats,2020.2.10,59.97195711575159,
kremp,kremp,,,,,,,,,0,0,0,0,,,,,,,,,,,,,746.658245700004,None,758.7249894000124,None,"['k', 'r', 'e', 'm', 'p']",1,"[1.2796675999998115, 1.399651299987454, 1.4717342999647371, 1.6717596999951638, 1.8878429000033066]",758.7249894000124,None,758.7248425399652,758.8249710999662,s267_02122024,001,2024-02-12_17h27.10.133,test_typingtask_norepeats,2020.2.10,59.97195711575159,
faqir,faqir,,,,,,,,,0,1,1,1,,,,,,,,,,,,,,,764.225006099965,None,"['f', 'a', 'q', 'i', 'r']",1,"[0.9076745999627747, 1.1797084999852814, 1.763651299988851, 1.9955854999716394, 2.267612800002098]",764.225006099965,None,764.2248887399677,764.3250214,s267_02122024,001,2024-02-12_17h27.10.133,test_typingtask_norepeats,2020.2.10,59.97195711575159,
think,think,,,,,,,,,0,2,2,2,,,,,,,,,,,,,,,769.7250569000025,None,"['t', 'h', 'i', 'n', 'k']",1,"[0.8476018999936059, 0.9115854999981821, 1.0955138999852352, 1.2396020999876782, 1.3995854000095278]",769.7250569000025,None,769.7249199399724,None,s267_02122024,001,2024-02-12_17h27.10.133,test_typingtask_norepeats,2020.2.10,59.97195711575159,
vodka,vodka,,,,,,,,,0,3,3,3,,,,,,,,,,,,,,,775.2250726000057,None,"['v', 'o', 'd', 'k', 'a']",1,"[0.939570399990771, 1.0755911999731325, 1.2354858000180684, 1.3875344999833032, 1.6035158999729902]",775.2250726000057,None,775.2249514399795,None,s267_02122024,001,2024-02-12_17h27.10.133,test_typingtask_norepeats,2020.2.10,59.97195711575159,
puppy,puppy,,,,,,,,,0,4,4,4,,,,,,,,,,,,,,,780.7250981999678,None,"['p', 'u', 'p', 'p', 'y']",1,"[0.9675463999737985, 1.223755799990613, 1.495478299970273, 1.6315275999950245, 1.7436247999430634]",780.7250981999678,None,780.7249894399778,None,s267_02122024,001,2024-02-12_17h27.10.133,test_typingtask_norepeats,2020.2.10,59.97195711575159,
would,would,,,,,,,,,0,5,5,5,,,,,,,,,,,,,,,786.2251352999592,None,"['w', 'o', 'u', 'l', 'd']",1,"[1.0594937999849208, 1.1555637999554165, 1.2194922999478877, 1.4274788000038825, 1.587552799959667]",786.2251352999592,None,786.2250058399862,None,s267_02122024,001,2024-02-12_17h27.10.133,test_typingtask_norepeats,2020.2.10,59.97195711575159,
zibja,zibja,,,,,,,,,0,6,6,6,,,,,,,,,,,,,,,791.7251700999914,None,"['i', 'b', 'j', 'a']",0,"[2.383667299989611, 2.551424000004772, 2.863435400009621, 3.2795854000141844]",791.7251700999914,None,791.7250392400077,None,s267_02122024,001,2024-02-12_17h27.10.133,test_typingtask_norepeats,2020.2.10,59.97195711575159,
would,would,,,,,,,,,0,7,7,7,,,,,,,,,,,,,,,797.2251954000094,None,"['w', 'o', 'u', 'l', 'd']",1,"[0.9954629999701865, 1.099650499993004, 1.171427399967797, 1.3794063999666832, 1.4914183999644592]",797.2251954000094,None,797.2250740399817,None,s267_02122024,001,2024-02-12_17h27.10.133,test_typingtask_norepeats,2020.2.10,59.97195711575159,
kremp,kremp,,,,,,,,,0,8,8,8,,,,,,,,,,,,,,,802.7251936999965,None,"['k', 'r', 'e', 'm', 'p']",1,"[1.1674220000277273, 1.2793862000107765, 1.367396200017538, 1.5033800000092015, 1.7353098000166938]",802.7251936999965,None,802.7251004400081,None,s267_02122024,001,2024-02-12_17h27.10.133,test_typingtask_norepeats,2020.2.10,59.97195711575159,
buddy,buddy,,,,,,,,,0,9,9,9,,,,,,,,,,,,,,,808.2252532999846,None,"['b', 'u', 'd', 'd', 'y']",1,"[0.7953971000388265, 1.003325700003188, 1.355326100019738, 1.515281200001482, 1.6194413999910466]",808.2252532999846,None,808.2251395399566,None,s267_02122024,001,2024-02-12_17h27.10.133,test_typingtask_norepeats,2020.2.10,59.97195711575159,
druze,druze,,,,,,,,,0,10,10,10,,,,,,,,,,,,,,,813.7252600999782,None,"['d', 'r', 'u', 'b', 'e']",0,"[0.9353374000056647, 1.1593264000257477, 1.5833562000188977, 1.7993482000310905, 2.535485600004904]",813.7252600999782,None,813.7251641399693,None,s267_02122024,001,2024-02-12_17h27.10.133,test_typingtask_norepeats,2020.2.10,59.97195711575159,
therm,therm,,,,,,,,,0,11,11,11,,,,,,,,,,,,,,,819.2252746999729,None,"['t', 'h', 'e', 'r', 'm']",1,"[0.7873232000274584, 0.8914073000196368, 1.0192982000298798, 1.1233551999903284, 1.2192952000186779]",819.2252746999729,None,819.2251903399941,None,s267_02122024,001,2024-02-12_17h27.10.133,test_typingtask_norepeats,2020.2.10,59.97195711575159,
belly,belly,,,,,,,,,0,12,12,12,,,,,,,,,,,,,,,824.7253365999786,None,"['b', 'e', 'l', 'l', 'y']",1,"[0.7992669999948703, 0.9272361000184901, 1.2712405000347644, 1.4232251000357792, 1.6552752000279725]",824.7253365999786,None,824.7252444399986,None,s267_02122024,001,2024-02-12_17h27.10.133,test_typingtask_norepeats,2020.2.10,59.97195711575159,
therm,therm,,,,,,,,,0,13,13,13,,,,,,,,,,,,,,,830.2253700000001,None,"['t', 'h', 'e', 'r', 'm']",1,"[1.1872174000018276, 1.2831814999808557, 1.4192358999862336, 1.5231906999833882, 1.731287100003101]",830.2253700000001,None,830.2252442399971,None,s267_02122024,001,2024-02-12_17h27.10.133,test_typingtask_norepeats,2020.2.10,59.97195711575159,
heond,heond,,,,,,,,,0,14,14,14,,,,,,,,,,,,,,,835.7254085000022,None,"['h', 'e', 'o', 'n', 'd']",1,"[1.0231801000190899, 1.1431287999730557, 1.3271371999871917, 1.535112300014589, 1.9911713000037707]",835.7254085000022,None,835.7252781399642,None,s267_02122024,001,2024-02-12_17h27.10.133,test_typingtask_norepeats,2020.2.10,59.97195711575159,
edthe,edthe,,,,,,,,,0,15,15,15,,,,,,,,,,,,,,,841.2254362999811,None,"['e', 'd', 't', 'h', 'e']",1,"[1.2432239000336267, 1.3231423000106588, 1.619150799990166, 1.7150899000116624, 1.8511071000248194]",841.2254362999811,None,841.2253161399625,None,s267_02122024,001,2024-02-12_17h27.10.133,test_typingtask_norepeats,2020.2.10,59.97195711575159,
think,think,,,,,,,,,0,16,16,16,,,,,,,,,,,,,,,846.7254637999577,None,"['t', 'h', 'i', 'n', 'k']",1,"[0.7911170999868773, 0.8713348999735899, 1.0392196999746375, 1.1590822999714874, 1.3031481999787502]",846.7254637999577,None,846.7253331399755,None,s267_02122024,001,2024-02-12_17h27.10.133,test_typingtask_norepeats,2020.2.10,59.97195711575159,
there,there,,,,,,,,,0,17,17,17,,,,,,,,,,,,,,,852.2254860000103,None,"['t', 'h', 'e', 'r', 'e']",1,"[0.7951383999898098, 0.8910647999728099, 1.0349846999743022, 1.1311870999634266, 1.2991837000008672]",852.2254860000103,None,852.2253663399955,None,s267_02122024,001,2024-02-12_17h27.10.133,test_typingtask_norepeats,2020.2.10,59.97195711575159,
belly,belly,,,,,,,,,0,18,18,18,,,,,,,,,,,,,,,857.7255170000135,None,"['b', 'e', 'l', 'l', 'y']",1,"[0.8870418999576941, 1.0471599999582395, 1.3271881999680772, 1.471167899959255, 1.6950771999545395]",857.7255170000135,None,857.725376839959,None,s267_02122024,001,2024-02-12_17h27.10.133,test_typingtask_norepeats,2020.2.10,59.97195711575159,
edthe,edthe,,,,,,,,,0,19,19,19,,,,,,,,,,,,,,,863.2255483999616,None,"['e', 'd', 't', 'h', 'e']",1,"[1.2190043999580666, 1.3310353999841027, 1.594896599999629, 1.7229693999979645, 1.8669945999863558]",863.2255483999616,None,863.2254322399734,None,s267_02122024,001,2024-02-12_17h27.10.133,test_typingtask_norepeats,2020.2.10,59.97195711575159,
vodka,vodka,,,,,,,,,0,20,20,20,,,,,,,,,,,,,,,868.7255757999956,None,"['v', 'o', 'd', 'k', 'e']",0,"[1.1271850999910384, 1.2710751999984495, 1.4230630000238307, 1.5511149999802, 1.7189624999882653]",868.7255757999956,None,868.7254653399926,None,s267_02122024,001,2024-02-12_17h27.10.133,test_typingtask_norepeats,2020.2.10,59.97195711575159,
haole,haole,,,,,,,,,0,21,21,21,,,,,,,,,,,,,,,874.2256366999936,None,"['h', 'a', 'o', 'l', 'e']",1,"[1.2749405999784358, 1.426890500006266, 1.5869167000055313, 1.7869642000296153, 1.9470512000261806]",874.2256366999936,None,874.225449439988,None,s267_02122024,001,2024-02-12_17h27.10.133,test_typingtask_norepeats,2020.2.10,59.97195711575159,
champ,champ,,,,,,,,,0,22,22,22,,,,,,,,,,,,,,,879.7256052999874,None,"['c', 'h', 'a', 'm', 'p']",1,"[0.8869426000164822, 0.982988000032492, 1.1590468999929726, 1.24704919999931, 1.486942999996245]",879.7256052999874,None,879.725512039999,None,s267_02122024,001,2024-02-12_17h27.10.133,test_typingtask_norepeats,2020.2.10,59.97195711575159,
haole,haole,,,,,,,,,0,23,23,23,,,,,,,,,,,,,,,885.2256547000143,None,"['h', 'a', 'o', 'l', 'e']",1,"[1.1148586999624968, 1.2509436999680474, 1.402864600007888, 1.6109787999885157, 1.6989657999947667]",885.2256547000143,None,885.2255526399589,None,s267_02122024,001,2024-02-12_17h27.10.133,test_typingtask_norepeats,2020.2.10,59.97195711575159,
there,there,,,,,,,,,0,24,24,24,,,,,,,,,,,,,,,890.7257030999754,None,"['t', 'h', 'e', 'r', 'e']",1,"[0.8308433000347577, 0.9108461000141688, 1.0707880000118166, 1.1670206999988295, 1.3349942000349984]",890.7257030999754,None,890.7255901400116,None,s267_02122024,001,2024-02-12_17h27.10.133,test_typingtask_norepeats,2020.2.10,59.97195711575159,
cooed,cooed,,,,,,,,,0,25,25,25,,,,,,,,,,,,,,,896.2257572999806,None,"['c', 'o', 'o', 'e', 'd']",1,"[1.0348614000249654, 1.1546938000246882, 1.3228018000372685, 1.498771200014744, 1.6107096000341699]",896.2257572999806,None,896.2256107399938,896.32572969998,s267_02122024,001,2024-02-12_17h27.10.133,test_typingtask_norepeats,2020.2.10,59.97195711575159,
kremp,kremp,,,,,,,,,0,26,26,26,,,,,,,,,,,,,,,901.7257577999844,None,"['k', 'r', 'e', 'm', 'p']",1,"[1.6067679999978282, 1.7188871999969706, 1.790747500024736, 2.014705399982631, 2.254688000015449]",901.7257577999844,None,901.7256431400077,None,s267_02122024,001,2024-02-12_17h27.10.133,test_typingtask_norepeats,2020.2.10,59.97195711575159,
druze,druze,,,,,,,,,0,27,27,27,,,,,,,,,,,,,,,907.225783700007,None,"['d', 'r', 'u', 'z', 'e']",1,"[1.026734699960798, 1.2427489999681711, 1.3867153999744914, 2.1386808999814093, 2.3467281999764964]",907.225783700007,None,907.225678639987,None,s267_02122024,001,2024-02-12_17h27.10.133,test_typingtask_norepeats,2020.2.10,59.97195711575159,
lucky,lucky,,,,,,,,,0,28,28,28,,,,,,,,,,,,,,,912.7258269999875,None,"['l', 'u', 'c', 'k', 'y']",1,"[1.0066683000186458, 1.2867026000167243, 1.4308061000192538, 1.5186522000003606, 1.8226841000141576]",912.7258269999875,None,912.7257003399776,None,s267_02122024,001,2024-02-12_17h27.10.133,test_typingtask_norepeats,2020.2.10,59.97195711575159,
heond,heond,,,,,,,,,0,29,29,29,,,,,,,,,,,,,,,918.2258578999899,None,"['h', 'e', 'o', 'n', 'd']",1,"[0.9626028999919072, 1.1226290999911726, 1.2826504000113346, 1.4666559000033885, 1.826628900016658]",918.2258578999899,None,918.2257272400078,None,s267_02122024,001,2024-02-12_17h27.10.133,test_typingtask_norepeats,2020.2.10,59.97195711575159,
champ,champ,,,,,,,,,0,30,30,30,,,,,,,,,,,,,,,923.7258878999855,None,"['c', 'h', 'a', 'm', 'p']",1,"[0.8386013000272214, 0.9106322000152431, 1.0706925999838859, 1.1745490999892354, 1.406599699985236]",923.7258878999855,None,923.7257621399825,923.8258997999947,s267_02122024,001,2024-02-12_17h27.10.133,test_typingtask_norepeats,2020.2.10,59.97195711575159,
would,would,,,,,,,,,0,31,31,31,,,,,,,,,,,,,,,929.2259230999625,None,"['w', 'o', 'u', 'l', 'd']",1,"[0.9625812000012957, 1.0426669999724254, 1.1227061999961734, 1.330569599987939, 1.4667045999667607]",929.2259230999625,None,929.2257957400055,None,s267_02122024,001,2024-02-12_17h27.10.133,test_typingtask_norepeats,2020.2.10,59.97195711575159,
tithe,tithe,,,,,,,,,0,32,32,32,,,,,,,,,,,,,,,934.7259631999768,None,"['t', 'i', 't', 'h', 'e']",1,"[0.8785275000263937, 1.014515199989546, 1.1426240000291727, 1.7906896999920718, 1.9106121000368148]",934.7259631999768,None,934.7265625399654,934.8259459999972,s267_02122024,001,2024-02-12_17h27.10.133,test_typingtask_norepeats,2020.2.10,59.97195711575159,
buddy,buddy,,,,,,,,,0,33,33,33,,,,,,,,,,,,,,,940.2259749000077,None,"['b', 'u', 'd', 'd', 'y']",1,"[1.0425155999837443, 1.2185295000090264, 1.426497999986168, 1.5704839999671094, 1.7066182999988087]",940.2259749000077,None,940.2258191400091,940.325973799976,s267_02122024,001,2024-02-12_17h27.10.133,test_typingtask_norepeats,2020.2.10,59.97195711575159,
faqir,faqir,,,,,,,,,0,34,34,34,,,,,,,,,,,,,,,945.7260825000121,None,"['f', 'a', 'q', 'i', 'r']",1,"[1.582397399994079, 2.046405599976424, 2.550901899987366, 2.8944760999875143, 3.126516999967862]",945.7260825000121,None,945.7259489400079,945.8259696000023,s267_02122024,001,2024-02-12_17h27.10.133,test_typingtask_norepeats,2020.2.10,59.97195711575159,
pykka,pykka,,,,,,,,,0,35,35,35,,,,,,,,,,,,,,,951.2260343999951,None,"['p', 'y', 'k', 'k', 'a']",1,"[1.4584388000075705, 1.7945090000284836, 2.186442599981092, 2.346601900004316, 2.5543889999971725]",951.2260343999951,None,951.2259249399998,951.3259984999895,s267_02122024,001,2024-02-12_17h27.10.133,test_typingtask_norepeats,2020.2.10,59.97195711575159,
tithe,tithe,,,,,,,,,0,36,36,36,,,,,,,,,,,,,,,956.7260784999817,None,"['t', 'i', 't', 'h', 'e']",1,"[1.054383600014262, 1.1984790000133216, 1.2784802000387572, 1.4703777999966405, 1.6385726000298746]",956.7260784999817,None,956.7261103399563,956.826060499996,s267_02122024,001,2024-02-12_17h27.10.133,test_typingtask_norepeats,2020.2.10,59.97195711575159,
theme,theme,,,,,,,,,0,37,37,37,,,,,,,,,,,,,,,962.2261063999613,None,"['t', 'h', 'e', 'r', 'm', 'e']",0,"[0.8184746999759227, 0.8903614999726415, 1.0423331999918446, 1.1703485999605618, 1.5463622999959625, 2.0665217000059783]",962.2261063999613,None,962.2259435399668,962.3261127999867,s267_02122024,001,2024-02-12_17h27.10.133,test_typingtask_norepeats,2020.2.10,59.97195711575159,
champ,champ,,,,,,,,,0,38,38,38,,,,,,,,,,,,,,,967.7261078999727,None,"['c', 'h', 'a', 'm', 'p']",1,"[0.9583693000022322, 1.0383799000410363, 1.1983185000135563, 1.3023144000326283, 1.5263299000216648]",967.7261078999727,None,967.72602434,967.8261368999956,s267_02122024,001,2024-02-12_17h27.10.133,test_typingtask_norepeats,2020.2.10,59.97195711575159,
cooed,cooed,,,,,,,,,0,39,39,39,,,,,,,,,,,,,,,973.2261239999789,None,"['c', 'o', 'o', 'e', 'd']",1,"[0.9944141000160016, 1.2264256000053138, 1.3784010999952443, 1.5142738000140525, 1.618314100021962]",973.2261239999789,None,973.226037139981,973.3261555999634,s267_02122024,001,2024-02-12_17h27.10.133,test_typingtask_norepeats,2020.2.10,59.97195711575159,
lucky,lucky,,,,,,,,,0,40,40,40,,,,,,,,,,,,,,,978.7261710999883,None,"['l', 'u', 'c', 'k', 'y']",1,"[1.0303022000007331, 1.2863879000069574, 1.4303988000028767, 1.526329300017096, 1.7502823999966495]",978.7261710999883,None,978.7260705400025,978.8261936999625,s267_02122024,001,2024-02-12_17h27.10.133,test_typingtask_norepeats,2020.2.10,59.97195711575159,
about,about,,,,,,,,,0,41,41,41,,,,,,,,,,,,,,,984.2262252999935,None,"['a', 'b', 'o', 'u', 't']",1,"[0.8343187000136822, 0.9222587000112981, 1.1622722999891266, 1.2263215000275522, 1.3783103000023402]",984.2262252999935,None,984.2261286399793,984.3262197999866,s267_02122024,001,2024-02-12_17h27.10.133,test_typingtask_norepeats,2020.2.10,59.97195711575159,
think,think,,,,,,,,,0,42,42,42,,,,,,,,,,,,,,,989.7262758999714,None,"['t', 'h', 'i', 'n', 'k']",1,"[0.8221652000211179, 0.9183074000175111, 1.078138399985619, 1.1982000999851152, 1.366162999998778]",989.7262758999714,None,989.7261328400112,989.8262198999873,s267_02122024,001,2024-02-12_17h27.10.133,test_typingtask_norepeats,2020.2.10,59.97195711575159,
vanru,vanru,,,,,,,,,0,43,43,43,,,,,,,,,,,,,,,995.2262446999666,None,"['v', 'a', 'n', 'r', 'u']",1,"[1.098191900004167, 1.250491599959787, 1.3862820999929681, 1.5623191999620758, 1.762185400002636]",995.2262446999666,None,995.226132540009,995.3262493999791,s267_02122024,001,2024-02-12_17h27.10.133,test_typingtask_norepeats,2020.2.10,59.97195711575159,
druze,druze,,,,,,,,,0,44,44,44,,,,,,,,,,,,,,,1000.7262971999589,None,"['d', 'r', 'u', 'x', 'e']",0,"[1.0621123999590054, 1.2863415000028908, 1.4301117999712005, 1.8221352999680676, 2.1821253999951296]",1000.7262971999589,None,1000.7261608399916,1000.8263311999617,s267_02122024,001,2024-02-12_17h27.10.133,test_typingtask_norepeats,2020.2.10,59.97195711575159,
cheer,cheer,,,,,,,,,0,45,45,45,,,,,,,,,,,,,,,1006.2263292999705,None,"['c', 'h', 'e', 'e', 'r']",1,"[0.8503228999907151, 0.9781905999989249, 1.1540321999927983, 1.3221441999776289, 1.4741309999953955]",1006.2263292999705,None,1006.226246940007,1006.3263467999641,s267_02122024,001,2024-02-12_17h27.10.133,test_typingtask_norepeats,2020.2.10,59.97195711575159,
puppy,puppy,,,,,,,,,0,46,46,46,,,,,,,,,,,,,,,1011.7263395999908,None,"['p', 'u', 'p', 'p', 'y']",1,"[1.0621193000115454, 1.3260510999825783, 1.630078100017272, 1.7580454000271857, 1.9023008000222035]",1011.7263395999908,None,1011.7262613400002,None,s267_02122024,001,2024-02-12_17h27.10.133,test_typingtask_norepeats,2020.2.10,59.97195711575159,
therm,therm,,,,,,,,,0,47,47,47,,,,,,,,,,,,,,,1017.2264309999882,None,"['t', 'h', 'e', 'r', 'm']",1,"[1.4180031000287272, 1.513937400013674, 1.6660909000202082, 1.79392090003239, 1.9779552000109106]",1017.2264309999882,None,1017.2262853400083,None,s267_02122024,001,2024-02-12_17h27.10.133,test_typingtask_norepeats,2020.2.10,59.97195711575159,
pykka,pykka,,,,,,,,,0,48,48,48,,,,,,,,,,,,,,,1022.726437299978,None,"['p', 'y', 'k', 'k', 'a']",1,"[1.22197720000986, 1.5419645000365563, 1.8379766000434756, 1.9659662999911234, 2.11810320004588]",1022.726437299978,None,1022.7263200399815,None,s267_02122024,001,2024-02-12_17h27.10.133,test_typingtask_norepeats,2020.2.10,59.97195711575159,
buddy,buddy,,,,,,,,,0,49,49,49,,,,,,,,,,,,,,,1028.2264464999898,None,"['b', 'u', 'd', 'd', 'y']",1,"[0.9219729999895208, 1.1139104000176303, 1.4419599000248127, 1.6500149000203237, 1.7938884000177495]",1028.2264464999898,None,1028.2263312400087,None,s267_02122024,001,2024-02-12_17h27.10.133,test_typingtask_norepeats,2020.2.10,59.97195711575159,
lucky,lucky,,,,,,,,,0,50,50,50,,,,,,,,,,,,,,,1033.726498199976,None,"['l', 'u', 'c', 'k', 'y']",1,"[1.14189880003687, 1.3818828000221401, 1.6137923000496812, 1.7099352000514045, 2.0778879999998026]",1033.726498199976,None,1033.7263815399842,None,s267_02122024,001,2024-02-12_17h27.10.133,test_typingtask_norepeats,2020.2.10,59.97195711575159,
tithe,tithe,,,,,,,,,0,51,51,51,,,,,,,,,,,,,,,1039.2265303999884,None,"['t', 'i', 't', 'h', 'e']",1,"[1.2898612000280991, 1.4259868999943137, 1.5298318000277504, 1.6898626000038348, 1.881914500030689]",1039.2265303999884,None,1039.2264013399604,None,s267_02122024,001,2024-02-12_17h27.10.133,test_typingtask_norepeats,2020.2.10,59.97195711575159,
about,about,,,,,,,,,0,52,52,52,,,,,,,,,,,,,,,1044.7265671999776,None,"['a', 'b', 'o', 'u', 't']",1,"[0.8538331000017934, 0.9498821000452153, 1.1818575999932364, 1.2458266000030562, 1.3979168999940157]",1044.7265671999776,None,1044.7264076400083,None,s267_02122024,001,2024-02-12_17h27.10.133,test_typingtask_norepeats,2020.2.10,59.97195711575159,
cooed,cooed,,,,,,,,,0,53,53,53,,,,,,,,,,,,,,,1050.2265994999907,None,"['c', 'o', 'o', 'e', 'd']",1,"[0.9937737000291236, 1.121762500028126, 1.2737155000213534, 1.4099102999898605, 1.4738104999996722]",1050.2265994999907,None,1050.226467439998,None,s267_02122024,001,2024-02-12_17h27.10.133,test_typingtask_norepeats,2020.2.10,59.97195711575159,
zibja,zibja,,,,,,,,,0,54,54,54,,,,,,,,,,,,,,,1055.7266242000042,None,"['z', 'i', 'b', 'j', 'a']",1,"[1.7657739000278525, 1.9897221999708563, 2.389763100014534, 2.6136901999707334, 2.925781600002665]",1055.7266242000042,None,1055.7264991400066,None,s267_02122024,001,2024-02-12_17h27.10.133,test_typingtask_norepeats,2020.2.10,59.97195711575159,
cheer,cheer,,,,,,,,,0,55,55,55,,,,,,,,,,,,,,,1061.2266586999758,None,"['c', 'h', 'e', 'e', 'r']",1,"[0.8817614000290632, 1.0017926000291482, 1.1536438000039198, 1.337804100010544, 1.489829100028146]",1061.2266586999758,None,1061.2265224400094,None,s267_02122024,001,2024-02-12_17h27.10.133,test_typingtask_norepeats,2020.2.10,59.97195711575159,
kremp,kremp,,,,,,,,,0,56,56,56,,,,,,,,,,,,,,,1066.7266859000083,None,"['k', 'r', 'e', 'm', 'p']",1,"[1.2456891000038013, 1.3818647000007331, 1.4616625999915414, 1.6616632000077516, 1.9096822999999858]",1066.7266859000083,None,1066.7265287399991,None,s267_02122024,001,2024-02-12_17h27.10.133,test_typingtask_norepeats,2020.2.10,59.97195711575159,
think,think,,,,,,,,,0,57,57,57,,,,,,,,,,,,,,,1072.2267313000048,None,"['t', 'h', 'i', 'n', 'k']",1,"[0.8737375999917276, 0.9856233000173233, 1.1457212999812327, 1.2816132999723777, 1.4417398999794386]",1072.2267313000048,None,1072.2266237399658,1072.3266970000113,s267_02122024,001,2024-02-12_17h27.10.133,test_typingtask_norepeats,2020.2.10,59.97195711575159,
champ,champ,,,,,,,,,0,58,58,58,,,,,,,,,,,,,,,1077.7267594999867,None,"['c', 'h', 'a', 'm', 'p']",1,"[0.8536150000290945, 0.9498515999875963, 1.1015784000046551, 1.221564400009811, 1.4615822000196204]",1077.7267594999867,None,1077.726627439994,None,s267_02122024,001,2024-02-12_17h27.10.133,test_typingtask_norepeats,2020.2.10,59.97195711575159,
puppy,puppy,,,,,,,,,0,59,59,59,,,,,,,,,,,,,,,1083.2268011000124,None,"['p', 'u', 'p', 'p', 'y']",1,"[1.1375520000001416, 1.4017014999990351, 1.6976979000028223, 1.8495716999750584, 1.9776741999667138]",1083.2268011000124,None,1083.2266729399912,1083.3267798000015,s267_02122024,001,2024-02-12_17h27.10.133,test_typingtask_norepeats,2020.2.10,59.97195711575159,
haole,haole,,,,,,,,,0,60,60,60,,,,,,,,,,,,,,,1088.7268201999832,None,"['h', 'a', 'o', 'l', 'e']",1,"[1.0055436000111513, 1.1495159000041895, 1.2935262999963015, 1.4936877000145614, 1.6134556999895722]",1088.7268201999832,None,1088.7266969399993,1088.8268187000067,s267_02122024,001,2024-02-12_17h27.10.133,test_typingtask_norepeats,2020.2.10,59.97195711575159,
think,think,,,,,,,,,0,61,61,61,,,,,,,,,,,,,,,1094.2268457000027,None,"['t', 'h', 'i', 'n', 'k']",1,"[0.7775965000037104, 0.8895160999963991, 1.0574557000072673, 1.1934356999699958, 1.3455006000003777]",1094.2268457000027,None,1094.2267436400057,1094.3268419000087,s267_02122024,001,2024-02-12_17h27.10.133,test_typingtask_norepeats,2020.2.10,59.97195711575159,
there,there,,,,,,,,,0,62,62,62,,,,,,,,,,,,,,,1099.7268942999654,None,"['t', 'h', 'e', 'r', 'e']",1,"[0.9014582000090741, 1.0215711999917403, 1.1894233000348322, 1.2853979000356048, 1.4533722000196576]",1099.7268942999654,None,1099.7267696399708,1099.8268823999679,s267_02122024,001,2024-02-12_17h27.10.133,test_typingtask_norepeats,2020.2.10,59.97195711575159,
druze,druze,,,,,,,,,0,63,63,63,,,,,,,,,,,,,,,1105.2269125999883,None,"['d', 'r', 'u', 'z', 'e']",1,"[1.1694270999869332, 1.361584700003732, 1.529467599990312, 1.8734838000382297, 2.1294249999918975]",1105.2269125999883,None,1105.226787839993,None,s267_02122024,001,2024-02-12_17h27.10.133,test_typingtask_norepeats,2020.2.10,59.97195711575159,
therm,therm,,,,,,,,,0,64,64,64,,,,,,,,,,,,,,,1110.7269274999853,None,"['t', 'h', 'e', 'r', 'm']",1,"[0.8054027000325732, 0.9013968000072055, 1.0775125999934971, 1.1573839000193402, 1.309356200043112]",1110.7269274999853,None,1110.7268308399712,1110.8269775999943,s267_02122024,001,2024-02-12_17h27.10.133,test_typingtask_norepeats,2020.2.10,59.97195711575159,
puppy,puppy,,,,,,,,,0,65,65,65,,,,,,,,,,,,,,,1116.2269556999672,None,"['p', 'u', 'p', 'p', 'y']",1,"[1.001380599976983, 1.265430599974934, 1.5775463999598287, 1.7215080999885686, 1.8654654999845661]",1116.2269556999672,None,1116.2269079399762,None,s267_02122024,001,2024-02-12_17h27.10.133,test_typingtask_norepeats,2020.2.10,59.97195711575159,
pykka,pykka,,,,,,,,,0,66,66,66,,,,,,,,,,,,,,,1121.7269643999753,None,"['p', 'y', 'k', 'k', 'a']",1,"[1.0293549000052735, 1.3893258000025526, 1.7173390000243671, 1.8614301000488922, 1.981448200007435]",1121.7269643999753,None,1121.726877339976,1121.8269677999779,s267_02122024,001,2024-02-12_17h27.10.133,test_typingtask_norepeats,2020.2.10,59.97195711575159,
vanru,vanru,,,,,,,,,0,67,67,67,,,,,,,,,,,,,,,1127.2270467999624,None,"['v', 'a', 'n', 'r', 'u']",1,"[0.9932574999984354, 1.2573560000164434, 1.6252633000258356, 1.801219700020738, 2.0412307000369765]",1127.2270467999624,None,1127.2270872400027,None,s267_02122024,001,2024-02-12_17h27.10.133,test_typingtask_norepeats,2020.2.10,59.97195711575159,
cooed,cooed,,,,,,,,,0,68,68,68,,,,,,,,,,,,,,,1132.727024599968,None,"['c', 'o', 'o', 'e', 'd']",1,"[0.9572850000113249, 1.1253733000485227, 1.2772558000287972, 1.461269200022798, 1.5652680000057444]",1132.727024599968,None,1132.7269470399829,1132.8270249000052,s267_02122024,001,2024-02-12_17h27.10.133,test_typingtask_norepeats,2020.2.10,59.97195711575159,
belly,belly,,,,,,,,,0,69,69,69,,,,,,,,,,,,,,,1138.2271014999715,None,"['b', 'e', 'l', 'l', 'y']",1,"[0.8492062000441365, 0.9852157999994233, 1.417539200047031, 1.5771949000190943, 1.74520930001745]",1138.2271014999715,None,1138.2269883400063,1138.3270602999837,s267_02122024,001,2024-02-12_17h27.10.133,test_typingtask_norepeats,2020.2.10,59.97195711575159,
there,there,,,,,,,,,0,70,70,70,,,,,,,,,,,,,,,1143.7271375000128,None,"['t', 'h', 'e', 'r', 'e']",1,"[0.8291737000108697, 0.9252457999973558, 1.1011460999725387, 1.1492572000133805, 1.3330836999812163]",1143.7271375000128,None,1143.726985539985,1143.8271664999775,s267_02122024,001,2024-02-12_17h27.10.133,test_typingtask_norepeats,2020.2.10,59.97195711575159,
vanru,vanru,,,,,,,,,0,71,71,71,,,,,,,,,,,,,,,1149.2271632999764,None,"['v', 'a', 'n', 'r', 'u']",1,"[0.9292225000099279, 1.0730894000153057, 1.2174292000127025, 1.425236000039149, 1.681106100033503]",1149.2271632999764,None,1149.2270504399553,None,s267_02122024,001,2024-02-12_17h27.10.133,test_typingtask_norepeats,2020.2.10,59.97195711575159,
cheer,cheer,,,,,,,,,0,72,72,72,,,,,,,,,,,,,,,1154.7272238999722,None,"['c', 'h', 'e', 'e', 'r']",1,"[0.9892787000280805, 1.1174079000484198, 1.3010836000321433, 1.4691409000079148, 1.6050716000027023]",1154.7272238999722,None,1154.7270831399715,None,s267_02122024,001,2024-02-12_17h27.10.133,test_typingtask_norepeats,2020.2.10,59.97195711575159,
edthe,edthe,,,,,,,,,0,73,73,73,,,,,,,,,,,,,,,1160.2271847999655,None,"['e', 'd', 't', 'h', 'e']",1,"[1.1130849999608472, 1.257083699980285, 1.5610815999680199, 1.6492709999438375, 1.8090516999945976]",1160.2271847999655,None,1160.2271330400022,None,s267_02122024,001,2024-02-12_17h27.10.133,test_typingtask_norepeats,2020.2.10,59.97195711575159,
puppy,puppy,,,,,,,,,0,74,74,74,,,,,,,,,,,,,,,1165.7272609999636,None,"['p', 'u', 'p', 'p', 'y']",1,"[1.021014500001911, 1.3170048999600112, 1.6290197999915108, 1.7809895999962464, 1.9810183999943547]",1165.7272609999636,None,1165.727145939984,1165.8272741999826,s267_02122024,001,2024-02-12_17h27.10.133,test_typingtask_norepeats,2020.2.10,59.97195711575159,
tithe,tithe,,,,,,,,,0,75,75,75,,,,,,,,,,,,,,,1171.2273124000058,None,"['t', 'i', 't', 'h', 'e']",1,"[0.9449722999706864, 1.0728785999817774, 1.1849136999808252, 1.3050604999880306, 1.4809527000179514]",1171.2273124000058,None,1171.2271224399797,None,s267_02122024,001,2024-02-12_17h27.10.133,test_typingtask_norepeats,2020.2.10,59.97195711575159,
heond,heond,,,,,,,,,0,76,76,76,,,,,,,,,,,,,,,1176.7273077999707,None,"['h', 'e', 'o', 'n', 'd']",1,"[1.0769712000037543, 1.2369786000344902, 1.4130425000330433, 1.5809548000106588, 1.7650301000103354]",1176.7273077999707,None,1176.72720393996,None,s267_02122024,001,2024-02-12_17h27.10.133,test_typingtask_norepeats,2020.2.10,59.97195711575159,
tithe,tithe,,,,,,,,,0,77,77,77,,,,,,,,,,,,,,,1182.2273190999986,None,"['t', 'i', 't', 'h', 'e']",1,"[1.0009935999987647, 1.1689199000247754, 1.2409155999775976, 1.3850197999854572, 1.521046000008937]",1182.2273190999986,None,1182.2272779399996,None,s267_02122024,001,2024-02-12_17h27.10.133,test_typingtask_norepeats,2020.2.10,59.97195711575159,
heond,heond,,,,,,,,,0,78,78,78,,,,,,,,,,,,,,,1187.7274227999733,None,"['h', 'e', 'o', 'n', 'f']",0,"[0.9088382000336424, 1.0527637000195682, 1.1968755000270903, 1.3490078000468202, 1.5728976000100374]",1187.7274227999733,None,1187.7272457399872,None,s267_02122024,001,2024-02-12_17h27.10.133,test_typingtask_norepeats,2020.2.10,59.97195711575159,
kremp,kremp,,,,,,,,,0,79,79,79,,,,,,,,,,,,,,,1193.2274178999942,None,"['k', 'r', 'e', 'm', 'p']",1,"[1.4968517999514006, 1.6169219999574125, 1.720807799953036, 1.8888153999578208, 2.1127741999807768]",1193.2274178999942,None,1193.2273172400078,None,s267_02122024,001,2024-02-12_17h27.10.133,test_typingtask_norepeats,2020.2.10,59.97195711575159,
zibja,zibja,,,,,,,,,0,80,80,80,,,,,,,,,,,,,,,1198.7274199000094,None,"['z', 'i', 'b', 'j', 'a']",1,"[1.3888393999659456, 1.9171164999715984, 2.388813300000038, 2.8450437000137754, 3.3568259999738075]",1198.7274199000094,None,1198.72734153996,None,s267_02122024,001,2024-02-12_17h27.10.133,test_typingtask_norepeats,2020.2.10,59.97195711575159,
theme,theme,,,,,,,,,0,81,81,81,,,,,,,,,,,,,,,1204.227486399992,None,"['t', 'h', 'e', 'm', 'e']",1,"[0.8567572999745607, 0.9847656000056304, 1.1688771999906749, 1.3528792000142857, 1.4967427999945357]",1204.227486399992,None,1204.227383439988,None,s267_02122024,001,2024-02-12_17h27.10.133,test_typingtask_norepeats,2020.2.10,59.97195711575159,
would,would,,,,,,,,,0,82,82,82,,,,,,,,,,,,,,,1209.7275126999593,None,"['w', 'o', 'u', 'l', 'd']",1,"[1.0287368999561295, 1.1567080999957398, 1.2207957999780774, 1.4448497999692336, 1.5808307999977842]",1209.7275126999593,None,1209.7273918399937,None,s267_02122024,001,2024-02-12_17h27.10.133,test_typingtask_norepeats,2020.2.10,59.97195711575159,
about,about,,,,,,,,,0,83,83,83,,,,,,,,,,,,,,,1215.227553899982,None,"['a', 'b', 'o', 'u', 't']",1,"[0.9206957000424154, 1.0409115999937057, 1.2649166000192054, 1.3366886000148952, 1.520704000024125]",1215.227553899982,None,1215.22740663999,None,s267_02122024,001,2024-02-12_17h27.10.133,test_typingtask_norepeats,2020.2.10,59.97195711575159,
vanru,vanru,,,,,,,,,0,84,84,84,,,,,,,,,,,,,,,1220.7276090999949,None,"['v', 'a', 'n', 'r', 'u']",1,"[1.0206454999861307, 1.1966801999951713, 1.3326654999982566, 1.804642100003548, 2.2366208999883384]",1220.7276090999949,None,1220.72746383996,None,s267_02122024,001,2024-02-12_17h27.10.133,test_typingtask_norepeats,2020.2.10,59.97195711575159,
vodka,vodka,,,,,,,,,0,85,85,85,,,,,,,,,,,,,,,1226.2276014999952,None,"['v', 'o', 'd', 'k', 'a']",1,"[1.0966671999776736, 1.2805880000232719, 2.0006668000132777, 2.1606633000192232, 2.2725769000244327]",1226.2276014999952,None,1226.2275283399854,None,s267_02122024,001,2024-02-12_17h27.10.133,test_typingtask_norepeats,2020.2.10,59.97195711575159,
theme,theme,,,,,,,,,0,86,86,86,,,,,,,,,,,,,,,1231.7277421999606,None,"['t', 'h', 'e', 'm', 'e']",1,"[0.9484770999988541, 1.0123938000178896, 1.3404066999792121, 1.5005738000036217, 1.5964290000265464]",1231.7277421999606,None,1231.727489539981,None,s267_02122024,001,2024-02-12_17h27.10.133,test_typingtask_norepeats,2020.2.10,59.97195711575159,
faqir,faqir,,,,,,,,,0,87,87,87,,,,,,,,,,,,,,,1237.2276802000124,None,"['f', 'a', 'q', 'i', 'r']",1,"[1.1925415999721736, 1.704539600003045, 2.176526899973396, 2.4565345000009984, 2.6806849999702536]",1237.2276802000124,None,1237.2275812399807,None,s267_02122024,001,2024-02-12_17h27.10.133,test_typingtask_norepeats,2020.2.10,59.97195711575159,
haole,haole,,,,,,,,,0,88,88,88,,,,,,,,,,,,,,,1242.7276755999774,None,"['h', 'a', 'o', 'l', 'e', 'd']",0,"[1.0925654000020586, 1.2444852000335231, 1.4445417000097223, 1.6524709000368603, 1.8365196000086144, 1.9405326000414789]",1242.7276755999774,None,1242.72759643998,None,s267_02122024,001,2024-02-12_17h27.10.133,test_typingtask_norepeats,2020.2.10,59.97195711575159,
faqir,faqir,,,,,,,,,0,89,89,89,,,,,,,,,,,,,,,1248.2277415000135,None,"['f', 'a', 'q', 'i', 'r']",1,"[1.344470000010915, 1.8324802999850363, 2.224441099970136, 2.7444799999939278, 3.0724261999712326]",1248.2277415000135,None,1248.227687639976,None,s267_02122024,001,2024-02-12_17h27.10.133,test_typingtask_norepeats,2020.2.10,59.97195711575159,
zibja,zibja,,,,,,,,,0,90,90,90,,,,,,,,,,,,,,,1253.72776899999,None,"['z', 'i', 'b', 'j', 'a']",1,"[1.4525600000051782, 1.8604053999879397, 2.284429299994372, 2.764389600022696, 3.188442800019402]",1253.72776899999,None,1253.7276212399943,None,s267_02122024,001,2024-02-12_17h27.10.133,test_typingtask_norepeats,2020.2.10,59.97195711575159,
buddy,buddy,,,,,,,,,0,91,91,91,,,,,,,,,,,,,,,1259.227768199984,None,"['b', 'u', 'd', 'd', 'y']",1,"[1.0084273000247777, 1.1765024000196718, 1.5604074000148103, 1.7204166000010446, 2.000690500019118]",1259.227768199984,None,1259.2276832400007,None,s267_02122024,001,2024-02-12_17h27.10.133,test_typingtask_norepeats,2020.2.10,59.97195711575159,
haole,haole,,,,,,,,,0,92,92,92,,,,,,,,,,,,,,,1264.7278432999738,None,"['h', 'a', 'o', 'l', 'e']",1,"[1.0685475000063889, 1.2604749000165612, 1.4284736000117846, 1.6203493000357412, 1.8122999000479467]",1264.7278432999738,None,1264.7277263399797,None,s267_02122024,001,2024-02-12_17h27.10.133,test_typingtask_norepeats,2020.2.10,59.97195711575159,
about,about,,,,,,,,,0,93,93,93,,,,,,,,,,,,,,,1270.2278752999846,None,"['a', 'b', 'u', 't']",0,"[1.0164805999957025, 1.2804240999976173, 1.6083149000187404, 2.06428789999336]",1270.2278752999846,None,1270.2277718399769,None,s267_02122024,001,2024-02-12_17h27.10.133,test_typingtask_norepeats,2020.2.10,59.97195711575159,
belly,belly,,,,,,,,,0,94,94,94,,,,,,,,,,,,,,,1275.7279116999707,None,"['b', 'e', 'l', 'l', 'y']",1,"[0.8523202000069432, 1.0844502000254579, 1.5324109999928623, 1.6842133000027388, 1.8603732000337914]",1275.7279116999707,None,1275.7277820399963,None,s267_02122024,001,2024-02-12_17h27.10.133,test_typingtask_norepeats,2020.2.10,59.97195711575159,
vanru,vanru,,,,,,,,,0,95,95,95,,,,,,,,,,,,,,,1281.2279098000145,None,"['v', 'a', 'n', 'r', 'u']",1,"[0.8882809999631718, 1.272324099962134, 1.6642858000122942, 1.9842707999632694, 2.4242942999699153]",1281.2279098000145,None,1281.2278551399709,None,s267_02122024,001,2024-02-12_17h27.10.133,test_typingtask_norepeats,2020.2.10,59.97195711575159,
heond,heond,,,,,,,,,0,96,96,96,,,,,,,,,,,,,,,1286.7279418999678,None,"['h', 'e', 'o', 'n', 'd']",1,"[1.156191400019452, 1.772365000040736, 1.9562358999974094, 2.180344300053548, 2.516221300000325]",1286.7279418999678,None,1286.7278473399697,None,s267_02122024,001,2024-02-12_17h27.10.133,test_typingtask_norepeats,2020.2.10,59.97195711575159,
therm,therm,,,,,,,,,0,97,97,97,,,,,,,,,,,,,,,1292.2280067999964,None,"['t', 'h', 'e', 'r', 'm']",1,"[0.9922062000259757, 1.0721091000013985, 1.6641681999899447, 1.936368599999696, 2.1682793999789283]",1292.2280067999964,None,1292.2278748400045,None,s267_02122024,001,2024-02-12_17h27.10.133,test_typingtask_norepeats,2020.2.10,59.97195711575159,
faqir,faqir,,,,,,,,,0,98,98,98,,,,,,,,,,,,,,,1297.728019399976,None,"['f', 'a', 'q', 'i', 'r']",1,"[1.4041424000170082, 1.8201350000454113, 2.196139800013043, 2.588140800013207, 2.860227000026498]",1297.728019399976,None,1297.7279186399887,None,s267_02122024,001,2024-02-12_17h27.10.133,test_typingtask_norepeats,2020.2.10,59.97195711575159,
zibja,zibja,,,,,,,,,0,99,99,99,,,,,,,,,,,,,,,1303.2280455,None,"['z', 'i', 'b']",0,"[2.040121999976691, 2.464117099996656, 3.2881118999794126]",1303.2280455,None,1303.2279535399634,None,s267_02122024,001,2024-02-12_17h27.10.133,test_typingtask_norepeats,2020.2.10,59.97195711575159,
theme,theme,,,,,,,,,0,100,100,100,,,,,,,,,,,,,,,1308.728086899966,None,"['t', 'h', 'e', 'm', 'e']",1,"[1.1240981000009924, 1.196214700001292, 1.5801114999921992, 1.7080254000029527, 1.8280329999979585]",1308.728086899966,None,1308.7279378399603,None,s267_02122024,001,2024-02-12_17h27.10.133,test_typingtask_norepeats,2020.2.10,59.97195711575159,
champ,champ,,,,,,,,,0,101,101,101,,,,,,,,,,,,,,,1314.2281675999984,None,"['c', 'h', 'a', 'm', 'p']",1,"[0.9679809000226669, 1.079947100020945, 1.2400558000081219, 1.3600530000403523, 1.616138699988369]",1314.2281675999984,None,1314.2280550399796,1314.3283291999833,s267_02122024,001,2024-02-12_17h27.10.133,test_typingtask_norepeats,2020.2.10,59.97195711575159,
pykka,pykka,,,,,,,,,0,102,102,102,,,,,,,,,,,,,,,1319.7281550999614,None,"['p', 'y', 'k', 'k', 'a']",1,"[1.3639481999562122, 2.499982299981639, 2.82796609995421, 2.9639606999699026, 3.1079602999961935]",1319.7281550999614,None,1319.7280488399906,1319.8281849999912,s267_02122024,001,2024-02-12_17h27.10.133,test_typingtask_norepeats,2020.2.10,59.97195711575159,
belly,belly,,,,,,,,,0,103,103,103,,,,,,,,,,,,,,,1325.2281992000062,None,"['b', 'e', 'l', 'l', 'y']",1,"[0.863937399990391, 1.1119206000003032, 1.3518998000072315, 1.479913699964527, 1.6400396999670193]",1325.2281992000062,None,1325.228077239974,1325.3281575999572,s267_02122024,001,2024-02-12_17h27.10.133,test_typingtask_norepeats,2020.2.10,59.97195711575159,
cheer,cheer,,,,,,,,,0,104,104,104,,,,,,,,,,,,,,,1330.7282809999888,None,"['c', 'h', 'e', 'e', 'r']",1,"[0.851918599975761, 0.9718225999968126, 1.1958369999774732, 1.3879593000165187, 1.6278326000319794]",1330.7282809999888,None,1330.7281012399822,1330.8282284999732,s267_02122024,001,2024-02-12_17h27.10.133,test_typingtask_norepeats,2020.2.10,59.97195711575159,
pykka,pykka,,,,,,,,,0,105,105,105,,,,,,,,,,,,,,,1336.228264699981,None,"['p', 'y', 'k', 'k', 'a']",1,"[1.0958812999888323, 1.4398432000307366, 1.7678429000079632, 1.9038631999865174, 2.127871100034099]",1336.228264699981,None,1336.2281293399633,1336.3282763999887,s267_02122024,001,2024-02-12_17h27.10.133,test_typingtask_norepeats,2020.2.10,59.97195711575159,
cooed,cooed,,,,,,,,,0,106,106,106,,,,,,,,,,,,,,,1341.7283383999602,None,"['c', 'o', 'o', 'e', 'd']",1,"[1.1237718999618664, 1.2678768999758177, 1.4277880999725312, 1.6438149999594316, 1.723817499994766]",1341.7283383999602,None,1341.7282013399877,1341.8283097000094,s267_02122024,001,2024-02-12_17h27.10.133,test_typingtask_norepeats,2020.2.10,59.97195711575159,
about,about,,,,,,,,,0,107,107,107,,,,,,,,,,,,,,,1347.2283240999677,None,"['a', 'b', 'o', 'u', 't']",1,"[1.2558016999973916, 1.4158963999943808, 1.6717502999817953, 1.7039113999926485, 1.8878960000001825]",1347.2283240999677,None,1347.2281964400086,1347.328323099995,s267_02122024,001,2024-02-12_17h27.10.133,test_typingtask_norepeats,2020.2.10,59.97195711575159,
edthe,edthe,,,,,,,,,0,108,108,108,,,,,,,,,,,,,,,1352.7283619999653,None,"['e', 'd', 't', 'h', 'e']",1,"[1.187754499958828, 1.2278569999616593, 1.5237353999982588, 1.635855000000447, 1.7557802999508567]",1352.7283619999653,None,1352.728251339961,1352.8283785000094,s267_02122024,001,2024-02-12_17h27.10.133,test_typingtask_norepeats,2020.2.10,59.97195711575159,
druze,druze,,,,,,,,,0,109,109,109,,,,,,,,,,,,,,,1358.2283898000023,None,"['d', 'r', 'u', 'z', 'e']",1,"[1.3518839000025764, 1.5596999999834225, 1.743776399991475, 2.111692900012713, 2.45582239999203]",1358.2283898000023,None,1358.2282328399947,None,s267_02122024,001,2024-02-12_17h27.10.133,test_typingtask_norepeats,2020.2.10,59.97195711575159,
vodka,vodka,,,,,,,,,0,110,110,110,,,,,,,,,,,,,,,1363.72843009996,None,"['v', 'o', 'd', 'k', 'a']",1,"[1.131861099973321, 1.2515941999736242, 1.4998215999803506, 1.6516994999838062, 1.8438179999939166]",1363.72843009996,None,1363.728308539989,1363.8284189999686,s267_02122024,001,2024-02-12_17h27.10.133,test_typingtask_norepeats,2020.2.10,59.97195711575159,
would,would,,,,,,,,,0,111,111,111,,,,,,,,,,,,,,,1369.2284889000002,None,"['w', 'o', 'u', 'd']",0,"[1.0396115999901667, 1.207755499985069, 1.2395824000122957, 1.6395996999926865]",1369.2284889000002,None,1369.22828943996,None,s267_02122024,001,2024-02-12_17h27.10.133,test_typingtask_norepeats,2020.2.10,59.97195711575159,
lucky,lucky,,,,,,,,,0,112,112,112,,,,,,,,,,,,,,,1374.7284841999644,None,"['l', 'u', 'c', 'k', 'y']",1,"[0.9476255999761634, 1.2676220999564976, 1.5155945000005886, 1.6437144999508746, 2.003610799962189]",1374.7284841999644,None,1374.728367339971,None,s267_02122024,001,2024-02-12_17h27.10.133,test_typingtask_norepeats,2020.2.10,59.97195711575159,
edthe,edthe,,,,,,,,,0,113,113,113,,,,,,,,,,,,,,,1380.2284676000127,None,"['e', 'd', 't', 'h', 'e']",1,"[1.2156312000006437, 1.3115649999817833, 1.5997797999880277, 1.7596021999488585, 1.9037245999788865]",1380.2284676000127,None,1380.228398939979,None,s267_02122024,001,2024-02-12_17h27.10.133,test_typingtask_norepeats,2020.2.10,59.97195711575159,
vodka,vodka,,,,,,,,,0,114,114,114,,,,,,,,,,,,,,,1385.7286059999606,None,"['v', 'i', 'd', 'k', 'a']",0,"[1.1234815999632701, 1.2914042999618687, 1.9074821000103839, 2.187469399999827, 2.9074655000003986]",1385.7286059999606,None,1385.7284407400061,None,s267_02122024,001,2024-02-12_17h27.10.133,test_typingtask_norepeats,2020.2.10,59.97195711575159,
cheer,cheer,,,,,,,,,0,115,115,115,,,,,,,,,,,,,,,1391.2286067999667,None,"['c', 'h', 'e', 'e', 'r']",1,"[0.8794736000127159, 1.0155979000264779, 1.1913998000090942, 1.3595691000227816, 1.47957220004173]",1391.2286067999667,None,1391.228475139977,None,s267_02122024,001,2024-02-12_17h27.10.133,test_typingtask_norepeats,2020.2.10,59.97195711575159,
buddy,buddy,,,,,,,,,0,116,116,116,,,,,,,,,,,,,,,1396.7286210999591,None,"['b', 'u', 'd', 'd', 'y']",1,"[1.355441499967128, 1.5636570999631658, 1.811487999977544, 1.995530299958773, 2.259435999963898]",1396.7286210999591,None,1396.7284987399821,None,s267_02122024,001,2024-02-12_17h27.10.133,test_typingtask_norepeats,2020.2.10,59.97195711575159,
there,there,,,,,,,,,0,117,117,117,,,,,,,,,,,,,,,1402.2286516999593,None,"['t', 'h', 'e', 'r', 'e']",1,"[0.8314027999876998, 0.9036984999547713, 1.231373899965547, 1.287576499977149, 1.4713158999802545]",1402.2286516999593,None,1402.2285511399737,None,s267_02122024,001,2024-02-12_17h27.10.133,test_typingtask_norepeats,2020.2.10,59.97195711575159,
lucky,lucky,,,,,,,,,0,118,118,118,,,,,,,,,,,,,,,1407.7286830999656,None,"['l', 'u', 'c', 'k', 'y']",1,"[1.1314154000137933, 1.4033875000313856, 1.5795390999992378, 1.6675765000400133, 1.8834528000443242]",1407.7286830999656,None,1407.728558039968,None,s267_02122024,001,2024-02-12_17h27.10.133,test_typingtask_norepeats,2020.2.10,59.97195711575159,
theme,theme,,,,,,,,,0,119,119,119,,,,,,,,,,,,,,,1413.2287148999749,None,"['t', 'h', 'e', 'm', 'e']",1,"[0.9833446000120603, 1.047422900039237, 1.383433100010734, 1.5354177000117488, 1.6473093000240624]",1413.2287148999749,None,1413.2286374399905,None,s267_02122024,001,2024-02-12_17h27.10.133,test_typingtask_norepeats,2020.2.10,59.97195711575159,
