string,corrAns,practice_trials.thisRepN,practice_trials.thisTrialN,practice_trials.thisN,practice_trials.thisIndex,trials_1.thisRepN,trials_1.thisTrialN,trials_1.thisN,trials_1.thisIndex,trials_2.thisRepN,trials_2.thisTrialN,trials_2.thisN,trials_2.thisIndex,key_resp_0.keys,key_resp_0.corr,key_resp_0.rt,text_1.started,text_1.stopped,key_resp_1.keys,key_resp_1.corr,key_resp_1.rt,key_resp_1.started,key_resp_1.stopped,sound_1A_1.started,sound_1A_1.stopped,break_time.started,break_time.stopped,text_2.started,text_2.stopped,key_resp_2.keys,key_resp_2.corr,key_resp_2.rt,key_resp_2.started,key_resp_2.stopped,sound_1A_2.started,sound_1A_2.stopped,participant,session,date,expName,psychopyVersion,frameRate,
fresh,fresh,0,0,0,0,,,,,,,,,"['f', 'r', 'e', 's', 'h']",1,"[0.7630062000826001, 0.8909142001066357, 1.0428882001433522, 1.2988744000904262, 1.3708734000101686]",,,,,,,,,,,,,,,,,,,,,s276_02212024,001,2024-02-21_17h13.54.540,test_typingtask_norepeats,2020.2.10,59.96124103787966,
dream,dream,0,1,1,1,,,,,,,,,"['d', 'r', 'e', 'a', 'm']",1,"[0.8068696998525411, 0.9986618999391794, 1.1428219999652356, 1.3828298000153154, 1.4948088999371976]",,,,,,,,,,,,,,,,,,,,,s276_02212024,001,2024-02-21_17h13.54.540,test_typingtask_norepeats,2020.2.10,59.96124103787966,
slime,slime,0,2,2,2,,,,,,,,,"['s', 'l', 'i', 'm', 'e']",1,"[0.7068704999983311, 0.8029442999977618, 0.9387971998658031, 1.0828595999628305, 1.1628824998624623]",,,,,,,,,,,,,,,,,,,,,s276_02212024,001,2024-02-21_17h13.54.540,test_typingtask_norepeats,2020.2.10,59.96124103787966,
belly,belly,,,,,0,0,0,0,,,,,,,,72.93983789999038,None,"['b', 'e', 'l', 'l', 'y']",1,"[0.7987664001993835, 0.9107815001625568, 1.0946879000402987, 1.2387781001161784, 1.334735200041905]",72.93983789999038,None,72.93909554004203,73.03909460012801,,,,,,,,,,,,s276_02212024,001,2024-02-21_17h13.54.540,test_typingtask_norepeats,2020.2.10,59.96124103787966,
therm,therm,,,,,0,1,1,1,,,,,,,,78.43913400010206,None,"['t', 'h', 'e', 'r', 'm']",1,"[0.6351508998777717, 0.7313347000163049, 0.8677175999619067, 0.971539800055325, 1.1074934999924153]",78.43913400010206,None,78.43913223997224,78.53914020000957,,,,,,,,,,,,s276_02212024,001,2024-02-21_17h13.54.540,test_typingtask_norepeats,2020.2.10,59.96124103787966,
think,think,,,,,0,2,2,2,,,,,,,,83.93918220000342,None,"['t', 'h', 'i', 'n', 'k']",1,"[0.6554608000442386, 0.759258900070563, 0.879227900179103, 0.9833776000887156, 1.1353188001085073]",83.93918220000342,None,83.93915783993434,84.03920230013318,,,,,,,,,,,,s276_02212024,001,2024-02-21_17h13.54.540,test_typingtask_norepeats,2020.2.10,59.96124103787966,
vodka,vodka,,,,,0,3,3,3,,,,,,,,89.4391797001008,None,"['v', 'o', 'd', 'k', 'a']",1,"[0.851486099883914, 0.9793308000080287, 1.107429499970749, 1.3793991999700665, 1.5313808000646532]",89.4391797001008,None,89.43923273992259,89.53920489992015,,,,,,,,,,,,s276_02212024,001,2024-02-21_17h13.54.540,test_typingtask_norepeats,2020.2.10,59.96124103787966,
therm,therm,,,,,0,4,4,4,,,,,,,,94.9392097000964,None,"['t', 'h', 'e', 'r', 'm']",1,"[0.6713491999544203, 0.7512230998836458, 0.9031024998985231, 0.975217399885878, 1.1111931998748332]",94.9392097000964,None,94.93921024010051,95.0392237000633,,,,,,,,,,,,s276_02212024,001,2024-02-21_17h13.54.540,test_typingtask_norepeats,2020.2.10,59.96124103787966,
belly,belly,,,,,0,5,5,5,,,,,,,,100.43927299999632,None,"['b', 'e', 'l', 'l', 'y']",1,"[0.6909835000988096, 0.8030443000607193, 0.9472654999699444, 1.1073200001847, 1.211144900182262]",100.43927299999632,None,100.43929293991532,100.53925659996457,,,,,,,,,,,,s276_02212024,001,2024-02-21_17h13.54.540,test_typingtask_norepeats,2020.2.10,59.96124103787966,
theme,theme,,,,,0,6,6,6,,,,,,,,105.93927420000546,None,"['t', 'h', 'e', 'm', 'e']",1,"[0.6312446999363601, 0.7271608000155538, 0.8711184000130743, 0.9751015999354422, 1.0791259000543505]",105.93927420000546,None,105.93923724007327,106.03928570006974,,,,,,,,,,,,s276_02212024,001,2024-02-21_17h13.54.540,test_typingtask_norepeats,2020.2.10,59.96124103787966,
puppy,puppy,,,,,0,7,7,7,,,,,,,,111.43929060013033,None,"['p', 'u', 'p', 'p', 'y']",1,"[0.6751926001161337, 0.8591698000673205, 1.0513550001196563, 1.16309650009498, 1.2911462001502514]",111.43929060013033,None,111.43933464011643,111.53930999990553,,,,,,,,,,,,s276_02212024,001,2024-02-21_17h13.54.540,test_typingtask_norepeats,2020.2.10,59.96124103787966,
would,would,,,,,0,8,8,8,,,,,,,,116.93930330011062,None,"['w', 'o', 'u', 'l', 'd']",1,"[0.767226800089702, 0.8791390999685973, 0.9832937000319362, 1.199225899996236, 1.2714117001742125]",116.93930330011062,None,116.93929644005838,117.03935219999403,,,,,,,,,,,,s276_02212024,001,2024-02-21_17h13.54.540,test_typingtask_norepeats,2020.2.10,59.96124103787966,
haole,haole,,,,,0,9,9,9,,,,,,,,122.43934049992822,None,"['h', 'a', 'o', 'l', 'e']",1,"[0.6831542998552322, 0.9472366999834776, 1.0992153999395669, 1.2993103999178857, 1.379075099946931]",122.43934049992822,None,122.43933373999316,122.53942309995182,,,,,,,,,,,,s276_02212024,001,2024-02-21_17h13.54.540,test_typingtask_norepeats,2020.2.10,59.96124103787966,
faqir,faqir,,,,,0,10,10,10,,,,,,,,127.93936330010183,None,"['f', 'a', 'q', 'i', 'r']",1,"[1.1432464001700282, 1.3432180001400411, 1.6392257001716644, 1.9350988999940455, 2.0630922000855207]",127.93936330010183,None,127.93939004007261,128.03940470004454,,,,,,,,,,,,s276_02212024,001,2024-02-21_17h13.54.540,test_typingtask_norepeats,2020.2.10,59.96124103787966,
lucky,lucky,,,,,0,11,11,11,,,,,,,,133.43939190008678,None,"['l', 'u', 'c', 'k', 'y']",1,"[0.6670701000839472, 0.8750400000717491, 1.1710189001169056, 1.3149276000913233, 1.5070472001098096]",133.43939190008678,None,133.4394498400623,133.5393934000749,,,,,,,,,,,,s276_02212024,001,2024-02-21_17h13.54.540,test_typingtask_norepeats,2020.2.10,59.96124103787966,
puppy,puppy,,,,,0,12,12,12,,,,,,,,138.93945930013433,None,"['p', 'u', 'p', 'p', 'y']",1,"[0.6071905998978764, 0.8229938999284059, 1.022991499863565, 1.1430545998737216, 1.2469529998488724]",138.93945930013433,None,138.9394462400349,139.03942300006747,,,,,,,,,,,,s276_02212024,001,2024-02-21_17h13.54.540,test_typingtask_norepeats,2020.2.10,59.96124103787966,
edthe,edthe,,,,,0,13,13,13,,,,,,,,144.439491200028,None,"['e', 'd', 't', 'h', 'e']",1,"[0.8512433001305908, 1.0990158000495285, 1.3469188001472503, 1.4748887999448925, 1.571035500150174]",144.439491200028,None,144.43946194003803,144.5395118999295,,,,,,,,,,,,s276_02212024,001,2024-02-21_17h13.54.540,test_typingtask_norepeats,2020.2.10,59.96124103787966,
vodka,vodka,,,,,0,14,14,14,,,,,,,,149.93951219995506,None,"['v', 'o', 'd', 'k', 'e']",0,"[0.839107999810949, 0.9908776998054236, 1.1512565999291837, 1.3190789998043329, 1.446874399902299]",149.93951219995506,None,149.93949534005952,150.03952340013348,,,,,,,,,,,,s276_02212024,001,2024-02-21_17h13.54.540,test_typingtask_norepeats,2020.2.10,59.96124103787966,
would,would,,,,,0,15,15,15,,,,,,,,155.4395477999933,None,"['w', 'o', 'u', 'l', 'd']",1,"[0.6829859002027661, 0.7949341000057757, 0.9227794001344591, 1.2589684000704437, 1.4349416000768542]",155.4395477999933,None,155.43963864010294,155.53955939994194,,,,,,,,,,,,s276_02212024,001,2024-02-21_17h13.54.540,test_typingtask_norepeats,2020.2.10,59.96124103787966,
heond,heond,,,,,0,16,16,16,,,,,,,,160.93956870003603,None,"['h', 'e', 'o', 'n', 'd']",1,"[0.8150257999077439, 0.9429589998908341, 1.0468240999616683, 1.1667812999803573, 1.3270616999361664]",160.93956870003603,None,160.93953824003694,161.03957200003788,,,,,,,,,,,,s276_02212024,001,2024-02-21_17h13.54.540,test_typingtask_norepeats,2020.2.10,59.96124103787966,
tithe,tithe,,,,,0,17,17,17,,,,,,,,166.43961620004848,None,"['t', 'i', 't', 'h', 'e']",1,"[0.6828662001062185, 0.8189078001305461, 0.9547540999483317, 1.0588160001207143, 1.2107210999820381]",166.43961620004848,None,166.43960293994752,166.53961950005032,,,,,,,,,,,,s276_02212024,001,2024-02-21_17h13.54.540,test_typingtask_norepeats,2020.2.10,59.96124103787966,
theme,theme,,,,,0,18,18,18,,,,,,,,171.93963370006531,None,"['t', 'h', 'e', 'm', 'e']",1,"[0.6389797998126596, 0.7587995999492705, 0.8948303998913616, 1.0307870998512954, 1.1187554998323321]",171.93963370006531,None,171.9396309399279,None,,,,,,,,,,,,s276_02212024,001,2024-02-21_17h13.54.540,test_typingtask_norepeats,2020.2.10,59.96124103787966,
tithe,tithe,,,,,0,19,19,19,,,,,,,,177.43965540011413,None,"['t', 'i', 't', 'h', 'e']",1,"[0.6989367001224309, 0.8188619001302868, 0.9228370999917388, 1.0268467001151294, 1.1788320001214743]",177.43965540011413,None,177.4397163401125,None,,,,,,,,,,,,s276_02212024,001,2024-02-21_17h13.54.540,test_typingtask_norepeats,2020.2.10,59.96124103787966,
buddy,buddy,,,,,0,20,20,20,,,,,,,,182.93969250004739,None,"['b', 'u', 'd', 'd', 'y']",1,"[0.7108791000209749, 0.830824599834159, 1.2067197000142187, 1.3508508999366313, 1.4787246999330819]",182.93969250004739,None,182.93966133992654,183.0396904000081,,,,,,,,,,,,s276_02212024,001,2024-02-21_17h13.54.540,test_typingtask_norepeats,2020.2.10,59.96124103787966,
tithe,tithe,,,,,0,21,21,21,,,,,,,,188.43971360009164,None,"['t', 'i', 't', 'h', 'e']",1,"[0.6187884001992643, 0.7306575002148747, 0.8510252002160996, 0.9706498000305146, 1.138741300208494]",188.43971360009164,None,188.4396860399982,188.5397326000966,,,,,,,,,,,,s276_02212024,001,2024-02-21_17h13.54.540,test_typingtask_norepeats,2020.2.10,59.96124103787966,
therm,therm,,,,,0,22,22,22,,,,,,,,193.93976110010408,None,"['t', 'h', 'e', 'r', 'm']",1,"[0.6387940999120474, 0.7588100000284612, 0.9026476999279112, 1.0226624999195337, 1.1828357998747379]",193.93976110010408,None,193.93976304011886,194.03976140008308,,,,,,,,,,,,s276_02212024,001,2024-02-21_17h13.54.540,test_typingtask_norepeats,2020.2.10,59.96124103787966,
druze,druze,,,,,0,23,23,23,,,,,,,,199.4397895000875,None,"['d', 'r', 'u', 'z', 'e']",1,"[0.794730800203979, 0.9865931000094861, 1.1226089000701904, 1.6585844000801444, 1.9225525001529604]",199.4397895000875,None,199.43977834011895,199.5397862000391,,,,,,,,,,,,s276_02212024,001,2024-02-21_17h13.54.540,test_typingtask_norepeats,2020.2.10,59.96124103787966,
there,there,,,,,0,24,24,24,,,,,,,,204.93993919994682,None,"['t', 'h', 'e', 'r', 'e']",1,"[0.6385003000032157, 0.7662918998394161, 0.8946183000225574, 0.9984672998543829, 1.1262874000240117]",204.93993919994682,None,204.93991344009993,205.0398123001214,,,,,,,,,,,,s276_02212024,001,2024-02-21_17h13.54.540,test_typingtask_norepeats,2020.2.10,59.96124103787966,
heond,heond,,,,,0,25,25,25,,,,,,,,210.43988459999673,None,"['h', 'e', 'o', 'n', 'd']",1,"[0.6346286998596042, 0.7944404999725521, 0.890536499908194, 1.0024198999162763, 1.154492799891159]",210.43988459999673,None,210.4398625400616,210.53983799996786,,,,,,,,,,,,s276_02212024,001,2024-02-21_17h13.54.540,test_typingtask_norepeats,2020.2.10,59.96124103787966,
vanru,vanru,,,,,0,26,26,26,,,,,,,,215.93988560000435,None,"['v', 'a', 'n', 'r', 'u']",1,"[0.9107323999051005, 1.1103270999155939, 1.270498199854046, 1.4465532000176609, 1.5666364999487996]",215.93988560000435,None,215.9401212400524,None,,,,,,,,,,,,s276_02212024,001,2024-02-21_17h13.54.540,test_typingtask_norepeats,2020.2.10,59.96124103787966,
druze,druze,,,,,0,27,27,27,,,,,,,,221.43990279990248,None,"['d', 'r', 'u', 'z', 'e']",1,"[0.7705951000098139, 1.002470799954608, 1.1304414998739958, 1.4824003998655826, 1.7224687999114394]",221.43990279990248,None,221.43989643997048,None,,,,,,,,,,,,s276_02212024,001,2024-02-21_17h13.54.540,test_typingtask_norepeats,2020.2.10,59.96124103787966,
about,about,,,,,0,28,28,28,,,,,,,,226.93994850013405,None,"['a', 'b', 'o', 'u', 't']",1,"[0.8624123998451978, 0.9584091000724584, 1.0863743000663817, 1.1745098000392318, 1.2623769999481738]",226.93994850013405,None,226.94015944011045,None,,,,,,,,,,,,s276_02212024,001,2024-02-21_17h13.54.540,test_typingtask_norepeats,2020.2.10,59.96124103787966,
cooed,cooed,,,,,0,29,29,29,,,,,,,,232.43997559999116,None,"['c', 'o', 'o', 'e', 'd']",1,"[0.7624001998919994, 0.9383455000352114, 1.0823518000543118, 1.2343230000697076, 1.3224267000332475]",232.43997559999116,None,232.43998403993902,None,,,,,,,,,,,,s276_02212024,001,2024-02-21_17h13.54.540,test_typingtask_norepeats,2020.2.10,59.96124103787966,
vanru,vanru,,,,,0,30,30,30,,,,,,,,237.93996360013261,None,"['v', 'a', 'n', 'r', 'u']",1,"[0.8224412999115884, 1.006503399927169, 1.166470400057733, 1.3344845999963582, 1.4303991999477148]",237.93996360013261,None,237.939988239971,238.04000509995967,,,,,,,,,,,,s276_02212024,001,2024-02-21_17h13.54.540,test_typingtask_norepeats,2020.2.10,59.96124103787966,
therm,therm,,,,,0,31,31,31,,,,,,,,243.44002610002644,None,"['t', 'h', 'e', 'r', 'm']",1,"[0.6507441999856383, 0.7623812998645008, 0.9143725999165326, 0.9944873999338597, 1.1063834999222308]",243.44002610002644,None,243.4401165399002,None,,,,,,,,,,,,s276_02212024,001,2024-02-21_17h13.54.540,test_typingtask_norepeats,2020.2.10,59.96124103787966,
kremp,kremp,,,,,0,32,32,32,,,,,,,,248.94009019993246,None,"['k', 'r', 'e', 'm', 'p']",1,"[1.462368099950254, 1.6062946999445558, 1.7262466999236494, 1.8702430999837816, 1.9742584000341594]",248.94009019993246,None,248.94003253995908,None,,,,,,,,,,,,s276_02212024,001,2024-02-21_17h13.54.540,test_typingtask_norepeats,2020.2.10,59.96124103787966,
heond,heond,,,,,0,33,33,33,,,,,,,,254.4400490000844,None,"['h', 'e', 'n', 'o']",0,"[0.9064382999204099, 1.026298000011593, 1.306241000071168, 1.31426370004192]",254.4400490000844,None,254.44006233995316,None,,,,,,,,,,,,s276_02212024,001,2024-02-21_17h13.54.540,test_typingtask_norepeats,2020.2.10,59.96124103787966,
think,think,,,,,0,34,34,34,,,,,,,,259.9400915999431,None,"['t', 'h', 'i', 'n', 'k']",1,"[0.638344099977985, 0.7582716001197696, 0.8382957000285387, 0.9581905999220908, 1.1023415999952704]",259.9400915999431,None,259.940094339964,None,,,,,,,,,,,,s276_02212024,001,2024-02-21_17h13.54.540,test_typingtask_norepeats,2020.2.10,59.96124103787966,
lucky,lucky,,,,,0,35,35,35,,,,,,,,265.4401485999115,None,"['l', 'u', 'c', 'k', 'y']",1,"[0.7703451998531818, 1.0103175998665392, 1.3142210999503732, 1.5782617998775095, 1.762350699864328]",265.4401485999115,None,265.4401287399931,None,,,,,,,,,,,,s276_02212024,001,2024-02-21_17h13.54.540,test_typingtask_norepeats,2020.2.10,59.96124103787966,
theme,theme,,,,,0,36,36,36,,,,,,,,270.9401823000517,None,"['t', 'h', 'e', 'm', 'e']",1,"[0.6062896000221372, 0.7100970998872072, 0.8622373999096453, 0.9662979999557137, 1.0863714998122305]",270.9401823000517,None,270.94016743993853,None,,,,,,,,,,,,s276_02212024,001,2024-02-21_17h13.54.540,test_typingtask_norepeats,2020.2.10,59.96124103787966,
would,would,,,,,0,37,37,37,,,,,,,,276.44021699996665,None,"['w', 'o', 'u', 'l', 'd']",1,"[0.6421632000710815, 0.7541252002120018, 0.8341825001407415, 1.0500390999950469, 1.1541339000687003]",276.44021699996665,None,276.44018504007255,None,,,,,,,,,,,,s276_02212024,001,2024-02-21_17h13.54.540,test_typingtask_norepeats,2020.2.10,59.96124103787966,
heond,heond,,,,,0,38,38,38,,,,,,,,281.94024910009466,None,"['h', 'e', 'o', 'm', 'd']",0,"[0.726148399990052, 1.158086200011894, 1.262060500215739, 1.398090000031516, 2.1343078000936657]",281.94024910009466,None,281.9402472400805,None,,,,,,,,,,,,s276_02212024,001,2024-02-21_17h13.54.540,test_typingtask_norepeats,2020.2.10,59.96124103787966,
champ,champ,,,,,0,39,39,39,,,,,,,,287.44026979990304,None,"['c', 'h', 'a', 'm', 'p']",1,"[0.7701697000302374, 0.8738875000271946, 1.0422346000559628, 1.1380254998803139, 1.2259940998628736]",287.44026979990304,None,287.44025024010335,None,,,,,,,,,,,,s276_02212024,001,2024-02-21_17h13.54.540,test_typingtask_norepeats,2020.2.10,59.96124103787966,
pykka,pykka,,,,,0,40,40,40,,,,,,,,292.94027359993197,None,"['p', 'y', 'k', 'k', 'a']",1,"[0.8299139998853207, 1.1181033998727798, 1.398096399847418, 1.5340751998592168, 1.6698758997954428]",292.94027359993197,None,292.94028583990877,None,,,,,,,,,,,,s276_02212024,001,2024-02-21_17h13.54.540,test_typingtask_norepeats,2020.2.10,59.96124103787966,
cooed,cooed,,,,,0,41,41,41,,,,,,,,298.44033030001447,None,"['c', 'o', 'o', 'e', 'd']",1,"[0.7540990000125021, 0.9381023000460118, 1.081933799898252, 1.1621638999786228, 1.29792769998312]",298.44033030001447,None,298.4402793399757,None,,,,,,,,,,,,s276_02212024,001,2024-02-21_17h13.54.540,test_typingtask_norepeats,2020.2.10,59.96124103787966,
there,there,,,,,0,42,42,42,,,,,,,,303.94034299999475,None,"['t', 'h', 'r', 'e', 'r']",0,"[0.7020835999865085, 0.814001299906522, 1.0219193000812083, 1.277991499984637, 1.5020379000343382]",303.94034299999475,None,303.94034184010235,None,,,,,,,,,,,,s276_02212024,001,2024-02-21_17h13.54.540,test_typingtask_norepeats,2020.2.10,59.96124103787966,
kremp,kremp,,,,,0,43,43,43,,,,,,,,309.4403876999859,None,"['k', 'r', 'e', 'm', 'p']",1,"[1.0661822999827564, 1.1860583000816405, 1.3219512000214309, 1.4659655999857932, 1.5779058001935482]",309.4403876999859,None,309.4403810399352,None,,,,,,,,,,,,s276_02212024,001,2024-02-21_17h13.54.540,test_typingtask_norepeats,2020.2.10,59.96124103787966,
belly,belly,,,,,0,44,44,44,,,,,,,,314.94038469996303,None,"['b', 'e', 'l', 'l', 'y']",1,"[0.6620799000374973, 0.7899001000914723, 0.9417582999449223, 1.0859342999756336, 1.2380041999276727]",314.94038469996303,None,314.9404826400103,315.04043829999864,,,,,,,,,,,,s276_02212024,001,2024-02-21_17h13.54.540,test_typingtask_norepeats,2020.2.10,59.96124103787966,
theme,theme,,,,,0,45,45,45,,,,,,,,320.4404162999708,None,"['t', 'h', 'e', 'm', 'e']",1,"[0.625903399894014, 0.7301572000142187, 0.9057972000446171, 1.018233000067994, 1.1300713999662548]",320.4404162999708,None,320.44046573999805,320.5404163999483,,,,,,,,,,,,s276_02212024,001,2024-02-21_17h13.54.540,test_typingtask_norepeats,2020.2.10,59.96124103787966,
cheer,cheer,,,,,0,46,46,46,,,,,,,,325.94049119995907,None,"['c', 'h', 'e', 'e', 'r']",1,"[0.7419006999116391, 0.8698166999965906, 0.989886499941349, 1.157747199991718, 1.3018644999247044]",325.94049119995907,None,325.94051204000135,326.0404447999317,,,,,,,,,,,,s276_02212024,001,2024-02-21_17h13.54.540,test_typingtask_norepeats,2020.2.10,59.96124103787966,
zibja,zibja,,,,,0,47,47,47,,,,,,,,331.440513700014,None,"['z', 'i', 'b', 'j', 'a']",1,"[1.0899113998748362, 1.2658124000299722, 1.7777902998495847, 2.153855999931693, 2.3297343999147415]",331.440513700014,None,331.44050954009873,331.5405173001345,,,,,,,,,,,,s276_02212024,001,2024-02-21_17h13.54.540,test_typingtask_norepeats,2020.2.10,59.96124103787966,
pykka,pykka,,,,,0,48,48,48,,,,,,,,336.9405507000629,None,"['p', 'y', 'k', 'k', 'a']",1,"[0.8777626999653876, 1.1657441998831928, 1.4458019000012428, 1.5817732999566942, 1.7577700999099761]",336.9405507000629,None,336.94050254004543,337.04058109992184,,,,,,,,,,,,s276_02212024,001,2024-02-21_17h13.54.540,test_typingtask_norepeats,2020.2.10,59.96124103787966,
puppy,puppy,,,,,0,49,49,49,,,,,,,,342.44058310007676,None,"['p', 'u', 'p', 'p', 'y']",1,"[0.66582449991256, 0.8896363000385463, 1.081612200010568, 1.2177550001069903, 1.3376953999977559]",342.44058310007676,None,342.4405388399726,342.54056939994916,,,,,,,,,,,,s276_02212024,001,2024-02-21_17h13.54.540,test_typingtask_norepeats,2020.2.10,59.96124103787966,
would,would,,,,,0,50,50,50,,,,,,,,347.94061099993996,None,"['w', 'o', 'u', 'l', 'd']",1,"[0.757776599843055, 0.8936623998451978, 1.005568299908191, 1.2135873998049647, 1.3340294999070466]",347.94061099993996,None,347.9406012399821,348.0406110000331,,,,,,,,,,,,s276_02212024,001,2024-02-21_17h13.54.540,test_typingtask_norepeats,2020.2.10,59.96124103787966,
druze,druze,,,,,0,51,51,51,,,,,,,,353.4406375999097,None,"['d', 'r', 'u', 'z', 'e']",1,"[0.9696932998485863, 1.2576727999839932, 1.441524500027299, 2.033850400010124, 2.4336812999099493]",353.4406375999097,None,353.4406299400842,None,,,,,,,,,,,,s276_02212024,001,2024-02-21_17h13.54.540,test_typingtask_norepeats,2020.2.10,59.96124103787966,
think,think,,,,,0,52,52,52,,,,,,,,358.94066280010156,None,"['t', 'h', 'i', 'n', 'k']",1,"[0.6377584000583738, 0.7656602000351995, 0.8614845999982208, 0.9576553001534194, 1.1176500001456589]",358.94066280010156,None,358.9406811400084,None,,,,,,,,,,,,s276_02212024,001,2024-02-21_17h13.54.540,test_typingtask_norepeats,2020.2.10,59.96124103787966,
puppy,puppy,,,,,0,53,53,53,,,,,,,,364.4407025000546,None,"['p', 'u', 'p', 'p', 'y']",1,"[0.6576489999424666, 0.8815381000749767, 1.0734584000892937, 1.2095137001015246, 1.3294244999997318]",364.4407025000546,None,364.44069853990806,None,,,,,,,,,,,,s276_02212024,001,2024-02-21_17h13.54.540,test_typingtask_norepeats,2020.2.10,59.96124103787966,
there,there,,,,,0,54,54,54,,,,,,,,369.9407313000411,None,"['t', 'h', 'e', 'r', 'e']",1,"[0.6376604000106454, 0.7815723000094295, 1.0135552999563515, 1.1414103000424802, 1.2774831999558955]",369.9407313000411,None,369.94144224009943,None,,,,,,,,,,,,s276_02212024,001,2024-02-21_17h13.54.540,test_typingtask_norepeats,2020.2.10,59.96124103787966,
champ,champ,,,,,0,55,55,55,,,,,,,,375.4407639000565,None,"['c', 'h', 'a', 'm', 'p']",1,"[0.625660500023514, 0.7374281999655068, 0.8896880999673158, 1.0093520998489112, 1.1135084999259561]",375.4407639000565,None,375.4407479400514,None,,,,,,,,,,,,s276_02212024,001,2024-02-21_17h13.54.540,test_typingtask_norepeats,2020.2.10,59.96124103787966,
think,think,,,,,0,56,56,56,,,,,,,,380.94079010002315,None,"['t', 'h', 'i', 'n', 'k']",1,"[0.6374883998651057, 0.773359099868685, 0.8694597999565303, 0.989518899936229, 1.1416327999904752]",380.94079010002315,None,380.94079144003337,None,,,,,,,,,,,,s276_02212024,001,2024-02-21_17h13.54.540,test_typingtask_norepeats,2020.2.10,59.96124103787966,
champ,champ,,,,,0,57,57,57,,,,,,,,386.4408438000828,None,"['c', 'h', 'a', 'm', 'p']",1,"[0.633665099972859, 0.761528099887073, 0.9133834999520332, 1.0333952999208122, 1.145574999973178]",386.4408438000828,None,386.44081714011264,None,,,,,,,,,,,,s276_02212024,001,2024-02-21_17h13.54.540,test_typingtask_norepeats,2020.2.10,59.96124103787966,
think,think,,,,,0,58,58,58,,,,,,,,391.9408615999855,None,"['t', 'h', 'i', 'n', 'k']",1,"[0.5573958999011666, 0.6773178000003099, 0.7734230998903513, 0.9014461999759078, 1.0613255000207573]",391.9408615999855,None,391.94084274007474,None,,,,,,,,,,,,s276_02212024,001,2024-02-21_17h13.54.540,test_typingtask_norepeats,2020.2.10,59.96124103787966,
buddy,buddy,,,,,0,59,59,59,,,,,,,,397.44088270002976,None,"['b', 'u', 'd', 'd', 'y']",1,"[0.67349290009588, 0.8173394999466836, 1.1133302999660373, 1.2492593999486417, 1.3615534000564367]",397.44088270002976,None,397.4408465401037,None,,,,,,,,,,,,s276_02212024,001,2024-02-21_17h13.54.540,test_typingtask_norepeats,2020.2.10,59.96124103787966,
vodka,vodka,,,,,0,60,60,60,,,,,,,,402.9409189999569,None,"['v', 'o', 'd', 'k', 'a']",1,"[0.9334500997792929, 1.0934235998429358, 1.277233799919486, 1.509196399943903, 1.6212847998831421]",402.9409189999569,None,402.94087143994403,None,,,,,,,,,,,,s276_02212024,001,2024-02-21_17h13.54.540,test_typingtask_norepeats,2020.2.10,59.96124103787966,
buddy,buddy,,,,,0,61,61,61,,,,,,,,408.44100739993155,None,"['b', 'u', 'd', 'd', 'y']",1,"[0.6973411999642849, 0.817712499992922, 1.1131479998584837, 1.257247099885717, 1.3611524999141693]",408.44100739993155,None,408.44094824006316,None,,,,,,,,,,,,s276_02212024,001,2024-02-21_17h13.54.540,test_typingtask_norepeats,2020.2.10,59.96124103787966,
pykka,pykka,,,,,0,62,62,62,,,,,,,,413.94096600008197,None,"['p', 'y', 'k', 'k', 'a']",1,"[0.7013110001571476, 0.9572331001982093, 1.1893842001445591, 1.3173352000303566, 1.445195300038904]",413.94096600008197,None,413.9409698399948,None,,,,,,,,,,,,s276_02212024,001,2024-02-21_17h13.54.540,test_typingtask_norepeats,2020.2.10,59.96124103787966,
kremp,kremp,,,,,0,63,63,63,,,,,,,,419.4410030001309,None,"['k', 'r', 'e', 'm', 'p']",1,"[1.0412297998555005, 1.21731139998883, 1.393221199978143, 1.529274599859491, 1.6731308000162244]",419.4410030001309,None,419.44100034011063,None,,,,,,,,,,,,s276_02212024,001,2024-02-21_17h13.54.540,test_typingtask_norepeats,2020.2.10,59.96124103787966,
puppy,puppy,,,,,0,64,64,64,,,,,,,,424.94101079995744,None,"['p', 'u', 'p', 'p', 'y']",1,"[0.6211977999191731, 0.8052505999803543, 0.9892404999118298, 1.1651065999176353, 1.3011072999797761]",424.94101079995744,None,424.94103513990996,None,,,,,,,,,,,,s276_02212024,001,2024-02-21_17h13.54.540,test_typingtask_norepeats,2020.2.10,59.96124103787966,
druze,druze,,,,,0,65,65,65,,,,,,,,430.44104159995914,None,"['d', 'r', 'u', 'z', 'e']",1,"[0.8174522998742759, 1.0651732999831438, 1.2176483999937773, 1.5453102998435497, 1.7771969998721033]",430.44104159995914,None,430.4410446400987,None,,,,,,,,,,,,s276_02212024,001,2024-02-21_17h13.54.540,test_typingtask_norepeats,2020.2.10,59.96124103787966,
cheer,cheer,,,,,0,66,66,66,,,,,,,,435.9411021999549,None,"['c', 'h', 'e', 'e', 'r']",1,"[0.6690256998408586, 0.8050997999962419, 0.9570704998914152, 1.1332476998213679, 1.317268299870193]",435.9411021999549,None,435.9410617401125,None,,,,,,,,,,,,s276_02212024,001,2024-02-21_17h13.54.540,test_typingtask_norepeats,2020.2.10,59.96124103787966,
faqir,faqir,,,,,0,67,67,67,,,,,,,,441.44109979993664,None,"['f', 'a', 'q', 'i', 'r']",1,"[0.9372213999740779, 1.1450487999245524, 1.4251389999408275, 1.6890650000423193, 1.8252167000900954]",441.44109979993664,None,441.4411444399273,None,,,,,,,,,,,,s276_02212024,001,2024-02-21_17h13.54.540,test_typingtask_norepeats,2020.2.10,59.96124103787966,
edthe,edthe,,,,,0,68,68,68,,,,,,,,446.94112510001287,None,"['e', 'd', 't', 'h', 'e']",1,"[0.8370749000459909, 1.0050172000192106, 1.269097600132227, 1.3969799999613315, 1.5090755000710487]",446.94112510001287,None,446.94116224006285,None,,,,,,,,,,,,s276_02212024,001,2024-02-21_17h13.54.540,test_typingtask_norepeats,2020.2.10,59.96124103787966,
faqir,faqir,,,,,0,69,69,69,,,,,,,,452.44120949995704,None,"['f', 'a', 'q', 'i', 'r']",1,"[0.8251455998979509, 1.0248592998832464, 1.2810444999486208, 1.553108099848032, 1.6969525997992605]",452.44120949995704,None,452.441197040095,None,,,,,,,,,,,,s276_02212024,001,2024-02-21_17h13.54.540,test_typingtask_norepeats,2020.2.10,59.96124103787966,
cheer,cheer,,,,,0,70,70,70,,,,,,,,457.94122450007126,None,"['c', 'h', 'e', 'e', 'r']",1,"[0.6770649999380112, 0.8210032000206411, 0.9969550999812782, 1.164836100069806, 1.340948099968955]",457.94122450007126,None,457.94121274009814,None,,,,,,,,,,,,s276_02212024,001,2024-02-21_17h13.54.540,test_typingtask_norepeats,2020.2.10,59.96124103787966,
about,about,,,,,0,71,71,71,,,,,,,,463.4412722000852,None,"['a', 'b', 'o', 'u', 't']",1,"[0.808998900000006, 1.0090538000222296, 1.1449707001447678, 1.272946200100705, 1.4171180000994354]",463.4412722000852,None,463.4412413400831,None,,,,,,,,,,,,s276_02212024,001,2024-02-21_17h13.54.540,test_typingtask_norepeats,2020.2.10,59.96124103787966,
would,would,,,,,0,72,72,72,,,,,,,,468.9412837999407,None,"['w', 'o', 'u', 'l', 'd']",1,"[0.7249535000883043, 0.8771287000272423, 0.9568942000623792, 1.188960500061512, 1.30882090004161]",468.9412837999407,None,468.94130274008495,None,,,,,,,,,,,,s276_02212024,001,2024-02-21_17h13.54.540,test_typingtask_norepeats,2020.2.10,59.96124103787966,
buddy,buddy,,,,,0,73,73,73,,,,,,,,474.4413171999622,None,"['b', 'u', 'd', 'd', 'y']",1,"[0.6729250000789762, 0.8248411999084055, 1.0969545000698417, 1.2488420000299811, 1.4727954999543726]",474.4413171999622,None,474.4413168400759,None,,,,,,,,,,,,s276_02212024,001,2024-02-21_17h13.54.540,test_typingtask_norepeats,2020.2.10,59.96124103787966,
cooed,cooed,,,,,0,74,74,74,,,,,,,,479.9413550000172,None,"['c', 'o', 'o', 'e', 'd']",1,"[0.6769201999995857, 0.9328672999981791, 1.0688654000405222, 1.2047810999210924, 1.3168105999939144]",479.9413550000172,None,479.9413124400424,None,,,,,,,,,,,,s276_02212024,001,2024-02-21_17h13.54.540,test_typingtask_norepeats,2020.2.10,59.96124103787966,
tithe,tithe,,,,,0,75,75,75,,,,,,,,485.44139040005393,None,"['t', 'i', 't', 'h', 'e']",1,"[0.6808064999058843, 0.8328182999975979, 0.9924774998798966, 1.136702299816534, 1.288739199982956]",485.44139040005393,None,485.4414205400506,None,,,,,,,,,,,,s276_02212024,001,2024-02-21_17h13.54.540,test_typingtask_norepeats,2020.2.10,59.96124103787966,
cheer,cheer,,,,,0,76,76,76,,,,,,,,490.9414158000145,None,"['c', 'h', 'e', 'e', 'r']",1,"[0.6207241001538932, 0.7487892999779433, 0.932643000036478, 1.1086532999761403, 1.3248225001152605]",490.9414158000145,None,490.9413892399287,None,,,,,,,,,,,,s276_02212024,001,2024-02-21_17h13.54.540,test_typingtask_norepeats,2020.2.10,59.96124103787966,
zibja,zibja,,,,,0,77,77,77,,,,,,,,496.441445000004,None,"['z', 'i', 'b', 'j', 'a']",1,"[1.0488051001448184, 1.1926810001023114, 1.4807242001406848, 1.7447876001242548, 1.888711699983105]",496.441445000004,None,496.4414213400567,None,,,,,,,,,,,,s276_02212024,001,2024-02-21_17h13.54.540,test_typingtask_norepeats,2020.2.10,59.96124103787966,
about,about,,,,,0,78,78,78,,,,,,,,501.9414997000713,None,"['a', 'b', 'o', 'u', 't']",1,"[0.772720699897036, 0.9325522999279201, 1.0207654000259936, 1.1246474999934435, 1.2446818000171334]",501.9414997000713,None,501.94144474000205,None,,,,,,,,,,,,s276_02212024,001,2024-02-21_17h13.54.540,test_typingtask_norepeats,2020.2.10,59.96124103787966,
faqir,faqir,,,,,0,79,79,79,,,,,,,,507.44150680000894,None,"['f', 'a', 'q', 'i', 'r']",1,"[0.9686571001075208, 1.1445955000817776, 1.4328622000757605, 1.5765678000170738, 1.752729400061071]",507.44150680000894,None,507.4415002400754,None,,,,,,,,,,,,s276_02212024,001,2024-02-21_17h13.54.540,test_typingtask_norepeats,2020.2.10,59.96124103787966,
therm,therm,,,,,0,80,80,80,,,,,,,,512.9415420000441,None,"['t', 'h', 'e', 'r', 'm']",1,"[0.6366810000035912, 0.7648337001446635, 0.9163089001085609, 1.0125609000679106, 1.1965544000267982]",512.9415420000441,None,512.9415407400345,None,,,,,,,,,,,,s276_02212024,001,2024-02-21_17h13.54.540,test_typingtask_norepeats,2020.2.10,59.96124103787966,
edthe,edthe,,,,,0,81,81,81,,,,,,,,518.441568700131,None,"['w', 'e', 'd', 't', 'h', 'e']",0,"[0.6646249999757856, 1.3845639999490231, 1.856597299920395, 2.104502100031823, 2.2328502000309527, 2.3044722999911755]",518.441568700131,None,518.441565739992,None,,,,,,,,,,,,s276_02212024,001,2024-02-21_17h13.54.540,test_typingtask_norepeats,2020.2.10,59.96124103787966,
kremp,kremp,,,,,0,82,82,82,,,,,,,,523.9415959999897,None,"['k', 'r', 'e', 'm', 'p']",1,"[0.9646459000650793, 1.1084567999932915, 1.2285066999029368, 1.3725012999493629, 1.4925134999211878]",523.9415959999897,None,523.9416146400151,None,,,,,,,,,,,,s276_02212024,001,2024-02-21_17h13.54.540,test_typingtask_norepeats,2020.2.10,59.96124103787966,
pykka,pykka,,,,,0,83,83,83,,,,,,,,529.4416322000325,None,"['p', 'y', 'k', 'k', 'a']",1,"[0.9125401000492275, 1.1924499000888318, 1.4324597001541406, 1.5605576001107693, 1.6885267000179738]",529.4416322000325,None,529.4417580399429,None,,,,,,,,,,,,s276_02212024,001,2024-02-21_17h13.54.540,test_typingtask_norepeats,2020.2.10,59.96124103787966,
lucky,lucky,,,,,0,84,84,84,,,,,,,,534.9416680000722,None,"['l', 'u', 'c', 'k', 'y']",1,"[0.7725104000419378, 0.9565238999202847, 1.1964505999349058, 1.3965213999617845, 1.628393999999389]",534.9416680000722,None,534.9416766400216,None,,,,,,,,,,,,s276_02212024,001,2024-02-21_17h13.54.540,test_typingtask_norepeats,2020.2.10,59.96124103787966,
haole,haole,,,,,0,85,85,85,,,,,,,,540.4418069000822,None,"['h', 'a', 'o', 'l', 'e']",1,"[0.9123472000937909, 1.0724432000424713, 1.3524992000311613, 1.568349099950865, 1.6640930001158267]",540.4418069000822,None,540.4417392400326,None,,,,,,,,,,,,s276_02212024,001,2024-02-21_17h13.54.540,test_typingtask_norepeats,2020.2.10,59.96124103787966,
edthe,edthe,,,,,0,86,86,86,,,,,,,,545.9418305999134,None,"['e', 'd', 't', 'h', 'e']",1,"[0.6523458000738174, 0.8763221001718193, 1.1562793001066893, 1.2923447999637574, 1.4205287999939173]",545.9418305999134,None,545.9418068400817,None,,,,,,,,,,,,s276_02212024,001,2024-02-21_17h13.54.540,test_typingtask_norepeats,2020.2.10,59.96124103787966,
faqir,faqir,,,,,0,87,87,87,,,,,,,,551.4420260000043,None,"['f', 'a', 'q', 'i', 'r']",1,"[0.9760517000686377, 1.16805630014278, 1.4400121001526713, 1.5920896001625806, 1.7522694000508636]",551.4420260000043,None,551.4418991399696,None,,,,,,,,,,,,s276_02212024,001,2024-02-21_17h13.54.540,test_typingtask_norepeats,2020.2.10,59.96124103787966,
vanru,vanru,,,,,0,88,88,88,,,,,,,,556.9417995999102,None,"['v', 'a', 'n', 'r', 'u']",1,"[0.6923202001489699, 0.8283287000376731, 0.9883695000316948, 1.2043890000786632, 1.3482319000177085]",556.9417995999102,None,556.9417583400616,None,,,,,,,,,,,,s276_02212024,001,2024-02-21_17h13.54.540,test_typingtask_norepeats,2020.2.10,59.96124103787966,
champ,champ,,,,,0,89,89,89,,,,,,,,562.4418272001203,None,"['c', 'h', 'a', 'm', 'p']",1,"[0.6162010000552982, 0.7523121000267565, 0.8722600999753922, 1.0163690000772476, 1.1365507000591606]",562.4418272001203,None,562.441821839963,None,,,,,,,,,,,,s276_02212024,001,2024-02-21_17h13.54.540,test_typingtask_norepeats,2020.2.10,59.96124103787966,
pykka,pykka,,,,,0,90,90,90,,,,,,,,567.9418476000428,None,"['p', 'y', 'k', 'k', 'a']",1,"[0.700601699994877, 0.9725149001460522, 1.2204804001376033, 1.356158599955961, 1.4842544000130147]",567.9418476000428,None,567.9418486399343,None,,,,,,,,,,,,s276_02212024,001,2024-02-21_17h13.54.540,test_typingtask_norepeats,2020.2.10,59.96124103787966,
tithe,tithe,,,,,0,91,91,91,,,,,,,,573.4418977999594,None,"['t', 'i', 't', 'h', 'e']",1,"[0.6402273999992758, 0.8002345999702811, 0.9281766000203788, 1.0481714999768883, 1.1922067999839783]",573.4418977999594,None,573.4418797400547,None,,,,,,,,,,,,s276_02212024,001,2024-02-21_17h13.54.540,test_typingtask_norepeats,2020.2.10,59.96124103787966,
kremp,kremp,,,,,0,92,92,92,,,,,,,,578.9419257000554,None,"['k', 'r', 'e', 'm', 'p']",1,"[0.7402868000790477, 0.9642862000036985, 1.1961381000000983, 1.3641492000315338, 1.5241280000191182]",578.9419257000554,None,578.9419091400457,None,,,,,,,,,,,,s276_02212024,001,2024-02-21_17h13.54.540,test_typingtask_norepeats,2020.2.10,59.96124103787966,
about,about,,,,,0,93,93,93,,,,,,,,584.4419595999643,None,"['a', 'b', 'o', 'u', 't']",1,"[0.7040878999978304, 0.8560963999480009, 0.9682175000198185, 1.0960534000769258, 1.2240224000997841]",584.4419595999643,None,584.4419379400322,None,,,,,,,,,,,,s276_02212024,001,2024-02-21_17h13.54.540,test_typingtask_norepeats,2020.2.10,59.96124103787966,
belly,belly,,,,,0,94,94,94,,,,,,,,589.9419591999613,None,"['b', 'e', 'l', 'l', 'y']",1,"[0.5882985000498593, 0.6922887999098748, 0.892083799932152, 1.0361345999408513, 1.1561869999859482]",589.9419591999613,None,589.941996239894,None,,,,,,,,,,,,s276_02212024,001,2024-02-21_17h13.54.540,test_typingtask_norepeats,2020.2.10,59.96124103787966,
cooed,cooed,,,,,0,95,95,95,,,,,,,,595.4420125000179,None,"['c', 'o', 'o', 'e', 'd']",1,"[0.7760441000573337, 0.9920729999430478, 1.1360138000454754, 1.2560857001226395, 1.4240329000167549]",595.4420125000179,None,595.4420271400129,None,,,,,,,,,,,,s276_02212024,001,2024-02-21_17h13.54.540,test_typingtask_norepeats,2020.2.10,59.96124103787966,
edthe,edthe,,,,,0,96,96,96,,,,,,,,600.9420674000867,None,"['e', 'd', 't', 'h', 'e']",1,"[0.6121376000810415, 0.804010699968785, 1.0599187000188977, 1.1719814999960363, 1.2920341999270022]",600.9420674000867,None,600.9420897400239,None,,,,,,,,,,,,s276_02212024,001,2024-02-21_17h13.54.540,test_typingtask_norepeats,2020.2.10,59.96124103787966,
haole,haole,,,,,0,97,97,97,,,,,,,,606.442061400041,None,"['h', 'a', 'o', 'l', 'e']",1,"[0.6320879000704736, 0.7519710999913514, 0.8960071001201868, 1.1119929000269622, 1.2080681999213994]",606.442061400041,None,606.4420636399416,None,,,,,,,,,,,,s276_02212024,001,2024-02-21_17h13.54.540,test_typingtask_norepeats,2020.2.10,59.96124103787966,
cooed,cooed,,,,,0,98,98,98,,,,,,,,611.9421059999149,None,"['c', 'o', 'o', 'e', 'd']",1,"[0.7239465001039207, 0.8999624999705702, 1.0599913999903947, 1.2039708001539111, 1.3080931999720633]",611.9421059999149,None,611.9421400400577,None,,,,,,,,,,,,s276_02212024,001,2024-02-21_17h13.54.540,test_typingtask_norepeats,2020.2.10,59.96124103787966,
vodka,vodka,,,,,0,99,99,99,,,,,,,,617.4421411000658,None,"['v', 'o', 'd', 'k', 'a']",1,"[0.8159091998822987, 0.9678608998656273, 1.1520165998954326, 1.4399454998783767, 1.584317599888891]",617.4421411000658,None,617.4421109399525,None,,,,,,,,,,,,s276_02212024,001,2024-02-21_17h13.54.540,test_typingtask_norepeats,2020.2.10,59.96124103787966,
zibja,zibja,,,,,0,100,100,100,,,,,,,,622.9421939000022,None,"['z', 'i', 'b', 'j', 'a']",1,"[1.1878136000595987, 1.3318431999068707, 1.6757860998623073, 1.91586870001629, 2.0918701998889446]",622.9421939000022,None,622.942148540006,None,,,,,,,,,,,,s276_02212024,001,2024-02-21_17h13.54.540,test_typingtask_norepeats,2020.2.10,59.96124103787966,
heond,heond,,,,,0,101,101,101,,,,,,,,628.4421699000522,None,"['h', 'e', 'o', 'n', 'd']",1,"[0.8319047999102622, 0.9598810998722911, 1.0638796999119222, 1.175760000012815, 1.3518678999971598]",628.4421699000522,None,628.4421898399712,None,,,,,,,,,,,,s276_02212024,001,2024-02-21_17h13.54.540,test_typingtask_norepeats,2020.2.10,59.96124103787966,
theme,theme,,,,,0,102,102,102,,,,,,,,633.9422065999825,None,"['t', 'h', 'e', 'm', 'e']",1,"[0.6359077000524849, 0.7719286000356078, 0.9079843000508845, 1.0518098999746144, 1.1478156000375748]",633.9422065999825,None,633.9422707400051,None,,,,,,,,,,,,s276_02212024,001,2024-02-21_17h13.54.540,test_typingtask_norepeats,2020.2.10,59.96124103787966,
vanru,vanru,,,,,0,103,103,103,,,,,,,,639.4422685999889,None,"['v', 'a', 'n', 'r', 'u']",1,"[0.7917082000058144, 0.9358045998960733, 1.0558255999349058, 1.2957999999634922, 1.4396988998632878]",639.4422685999889,None,639.4422968400875,None,,,,,,,,,,,,s276_02212024,001,2024-02-21_17h13.54.540,test_typingtask_norepeats,2020.2.10,59.96124103787966,
lucky,lucky,,,,,0,104,104,104,,,,,,,,644.9422883000225,None,"['l', 'u', 'c', 'k', 'y']",1,"[0.6997740000952035, 0.9156903000548482, 1.371722999960184, 1.4997241001110524, 1.6997539999429137]",644.9422883000225,None,644.9423178400145,None,,,,,,,,,,,,s276_02212024,001,2024-02-21_17h13.54.540,test_typingtask_norepeats,2020.2.10,59.96124103787966,
vodka,vodka,,,,,0,105,105,105,,,,,,,,650.4426680000033,None,"['v', 'o', 'd', 'k', 'a']",1,"[0.9113254998810589, 1.0314062000252306, 1.1911176999565214, 1.4393598998431116, 1.5832273999694735]",650.4426680000033,None,650.442297440092,None,,,,,,,,,,,,s276_02212024,001,2024-02-21_17h13.54.540,test_typingtask_norepeats,2020.2.10,59.96124103787966,
druze,druze,,,,,0,106,106,106,,,,,,,,655.9423559999559,None,"['d', 'r', 'u', 'z', 'e']",1,"[0.7798758000135422, 0.987777299946174, 1.2116113000083715, 1.6119160999078304, 1.8596344001125544]",655.9423559999559,None,655.9423543399432,None,,,,,,,,,,,,s276_02212024,001,2024-02-21_17h13.54.540,test_typingtask_norepeats,2020.2.10,59.96124103787966,
there,there,,,,,0,107,107,107,,,,,,,,661.4423978999257,None,"['t', 'h', 'e', 'r', 'e']",1,"[0.623703199904412, 0.759438999928534, 0.9435829999856651, 1.0155829000286758, 1.191704099997878]",661.4423978999257,None,661.4423877399647,None,,,,,,,,,,,,s276_02212024,001,2024-02-21_17h13.54.540,test_typingtask_norepeats,2020.2.10,59.96124103787966,
about,about,,,,,0,108,108,108,,,,,,,,666.9424771999475,None,"['a', 'b', 'o', 'u', 't']",1,"[0.7636601000558585, 0.9155560000799596, 1.043783799977973, 1.1795024999883026, 1.3234151001088321]",666.9424771999475,None,666.9423997400561,None,,,,,,,,,,,,s276_02212024,001,2024-02-21_17h13.54.540,test_typingtask_norepeats,2020.2.10,59.96124103787966,
zibja,zibja,,,,,0,109,109,109,,,,,,,,672.442477399949,None,"['z', 'i', 'b', 'j', 'a']",1,"[0.9515911999624223, 1.1035188001114875, 1.3675011000595987, 1.6394722000695765, 1.7514794999733567]",672.442477399949,None,672.4425255400827,None,,,,,,,,,,,,s276_02212024,001,2024-02-21_17h13.54.540,test_typingtask_norepeats,2020.2.10,59.96124103787966,
vanru,vanru,,,,,0,110,110,110,,,,,,,,677.9426621999592,None,"['v', 'a', 'n', 'r', 'u']",1,"[0.7233392999041826, 0.8353061999659985, 0.9714001000393182, 1.155316799879074, 1.267368600005284]",677.9426621999592,None,677.9424939400749,678.0424577000085,,,,,,,,,,,,s276_02212024,001,2024-02-21_17h13.54.540,test_typingtask_norepeats,2020.2.10,59.96124103787966,
zibja,zibja,,,,,0,111,111,111,,,,,,,,683.4425180999096,None,"['z', 'i', 'b', 'j', 'a']",1,"[0.991603699978441, 1.1596007999032736, 1.383559999987483, 1.6155359998811036, 1.735478499904275]",683.4425180999096,None,683.4426091400207,683.5425680999178,,,,,,,,,,,,s276_02212024,001,2024-02-21_17h13.54.540,test_typingtask_norepeats,2020.2.10,59.96124103787966,
cheer,cheer,,,,,0,112,112,112,,,,,,,,688.9426059001125,None,"['c', 'h', 'e', 'e', 'r']",1,"[0.611439700005576, 0.73937730002217, 0.9313511999789625, 1.1073571001179516, 1.2913385001011193]",688.9426059001125,None,688.942515340005,689.0425531999208,,,,,,,,,,,,s276_02212024,001,2024-02-21_17h13.54.540,test_typingtask_norepeats,2020.2.10,59.96124103787966,
haole,haole,,,,,0,113,113,113,,,,,,,,694.4425908999983,None,"['h', 'a', 'o', 'l', 'e']",1,"[0.8634642001707107, 0.9834167000371963, 1.0793078001588583, 1.3195358000230044, 1.3752254999708384]",694.4425908999983,None,694.4425767400069,694.5425490001217,,,,,,,,,,,,s276_02212024,001,2024-02-21_17h13.54.540,test_typingtask_norepeats,2020.2.10,59.96124103787966,
there,there,,,,,0,114,114,114,,,,,,,,699.9426365999971,None,"['t', 'h', 'r', 't', 'e', 'r']",0,"[0.5954358999151736, 0.7237134000752121, 0.9072294000070542, 0.915339200058952, 1.4913218000438064, 1.7634087998885661]",699.9426365999971,None,699.9426186399767,700.0425819999073,,,,,,,,,,,,s276_02212024,001,2024-02-21_17h13.54.540,test_typingtask_norepeats,2020.2.10,59.96124103787966,
lucky,lucky,,,,,0,115,115,115,,,,,,,,705.4426480999682,None,"['l', 'u', 'z', 'k', 'y']",0,"[0.7594397000502795, 0.9511828001122922, 1.1594348000362515, 1.455329299904406, 1.7432719999924302]",705.4426480999682,None,705.442642039922,705.5426632999443,,,,,,,,,,,,s276_02212024,001,2024-02-21_17h13.54.540,test_typingtask_norepeats,2020.2.10,59.96124103787966,
belly,belly,,,,,0,116,116,116,,,,,,,,710.942669400014,None,"['b', 'e', 'l', 'l', 'y']",1,"[0.6914571998640895, 0.8031951000448316, 0.9550152998417616, 1.1073771000374109, 1.1953950999304652]",710.942669400014,None,710.9426759400637,None,,,,,,,,,,,,s276_02212024,001,2024-02-21_17h13.54.540,test_typingtask_norepeats,2020.2.10,59.96124103787966,
champ,champ,,,,,0,117,117,117,,,,,,,,716.4426987001207,None,"['c', 'h', 'a', 'm', 'p']",1,"[0.6313531999476254, 0.7352485000155866, 0.8874629000201821, 0.991266299970448, 1.0953170999418944]",716.4426987001207,None,716.4426802399801,None,,,,,,,,,,,,s276_02212024,001,2024-02-21_17h13.54.540,test_typingtask_norepeats,2020.2.10,59.96124103787966,
buddy,buddy,,,,,0,118,118,118,,,,,,,,721.9427455000114,None,"['b', 'u', 'd', 'd', 'y']",1,"[0.6913228000048548, 0.8433049998711795, 1.0752767999656498, 1.2431734998244792, 1.4271931999828666]",721.9427455000114,None,721.9427398399682,None,,,,,,,,,,,,s276_02212024,001,2024-02-21_17h13.54.540,test_typingtask_norepeats,2020.2.10,59.96124103787966,
haole,haole,,,,,0,119,119,119,,,,,,,,727.4432920999825,None,"['h', 'o', 'l', 'e']",0,"[0.6386504999827594, 0.8308219001628458, 2.96705500013195, 3.0865969001315534]",727.4432920999825,None,727.4427677400643,None,,,,,,,,,,,,s276_02212024,001,2024-02-21_17h13.54.540,test_typingtask_norepeats,2020.2.10,59.96124103787966,
cooed,cooed,,,,,,,,,0,0,0,0,,,,,,,,,,,,,732.9428906000685,None,745.7429086000193,None,"['c', 'o', 'o', 'e', 'd']",1,"[1.1150587999727577, 1.2909603998996317, 1.4269435999449342, 1.555063699837774, 1.6431131998542696]",745.7429086000193,None,745.7428435399895,745.8429114001337,s276_02212024,001,2024-02-21_17h13.54.540,test_typingtask_norepeats,2020.2.10,59.96124103787966,
vodka,vodka,,,,,,,,,0,1,1,1,,,,,,,,,,,,,,,751.2431276999414,None,"['v', 'o', 'd', 'k', 'a']",1,"[0.9988983999937773, 1.3268375999759883, 1.5187492999248207, 1.7267287999857217, 1.8389391999226063]",751.2431276999414,None,751.2428701399592,None,s276_02212024,001,2024-02-21_17h13.54.540,test_typingtask_norepeats,2020.2.10,59.96124103787966,
therm,therm,,,,,,,,,0,2,2,2,,,,,,,,,,,,,,,756.7431512000039,None,"['t', 'h', 'e', 'r', 'm']",1,"[0.6107491999864578, 0.7308502001687884, 0.9067115001380444, 1.0187496000435203, 1.2907132001128048]",756.7431512000039,None,756.7429476399673,None,s276_02212024,001,2024-02-21_17h13.54.540,test_typingtask_norepeats,2020.2.10,59.96124103787966,
kremp,kremp,,,,,,,,,0,3,3,3,,,,,,,,,,,,,,,762.2429671999998,None,"['k', 'r', 'e', 'm', 'p']",1,"[0.7750417999923229, 0.9268593001179397, 1.0468731001019478, 1.2148425001651049, 1.3590392000041902]",762.2429671999998,None,762.242981540109,None,s276_02212024,001,2024-02-21_17h13.54.540,test_typingtask_norepeats,2020.2.10,59.96124103787966,
belly,belly,,,,,,,,,0,4,4,4,,,,,,,,,,,,,,,767.7430114999879,None,"['b', 'e', 'l', 'l', 'y']",1,"[0.5870252999011427, 0.7071062999311835, 0.8590082000009716, 1.0188496999908239, 1.1469010999426246]",767.7430114999879,None,767.7430096399737,None,s276_02212024,001,2024-02-21_17h13.54.540,test_typingtask_norepeats,2020.2.10,59.96124103787966,
think,think,,,,,,,,,0,5,5,5,,,,,,,,,,,,,,,773.2430279001128,None,"['t', 'h', 'i', 'n', 'k']",1,"[0.5990029000677168, 0.7029826999641955, 0.8069416000507772, 0.9429615999106318, 1.110756800044328]",773.2430279001128,None,773.2430296398932,None,s276_02212024,001,2024-02-21_17h13.54.540,test_typingtask_norepeats,2020.2.10,59.96124103787966,
vanru,vanru,,,,,,,,,0,6,6,6,,,,,,,,,,,,,,,778.7430853999685,None,"['v', 'a', 'n', 'r', 'u']",1,"[0.7949481999967247, 0.970854600192979, 1.1067890000995249, 1.250633800169453, 1.3631570001598448]",778.7430853999685,None,778.7430557399755,None,s276_02212024,001,2024-02-21_17h13.54.540,test_typingtask_norepeats,2020.2.10,59.96124103787966,
vodka,vodka,,,,,,,,,0,7,7,7,,,,,,,,,,,,,,,784.2431328000966,None,"['v', 'o', 'd', 'k', 'a']",1,"[0.7908831001259387, 1.1427991001401097, 1.3267235001549125, 1.5506494001019746, 1.6789027000777423]",784.2431328000966,None,784.2430917400168,None,s276_02212024,001,2024-02-21_17h13.54.540,test_typingtask_norepeats,2020.2.10,59.96124103787966,
vanru,vanru,,,,,,,,,0,8,8,8,,,,,,,,,,,,,,,789.7431532999035,None,"['v', 'a', 'n', 'r', 'u']",1,"[0.7068545001093298, 0.8268609000369906, 0.9467571000568569, 1.1787034999579191, 1.274801200022921]",789.7431532999035,None,789.743099039956,None,s276_02212024,001,2024-02-21_17h13.54.540,test_typingtask_norepeats,2020.2.10,59.96124103787966,
haole,haole,,,,,,,,,0,9,9,9,,,,,,,,,,,,,,,795.2432126000058,None,"['h', 'a', 'o', 'l', 'e']",1,"[0.790735499933362, 0.9746143999509513, 1.118698899867013, 1.3511196000035852, 1.4386754999868572]",795.2432126000058,None,795.2431676400126,None,s276_02212024,001,2024-02-21_17h13.54.540,test_typingtask_norepeats,2020.2.10,59.96124103787966,
heond,heond,,,,,,,,,0,10,10,10,,,,,,,,,,,,,,,800.7431928999722,None,"['h', 'e', 'o', 'n', 'd']",1,"[0.6986775998957455, 0.8346313000656664, 0.946692300029099, 1.090703000081703, 1.2187306000851095]",800.7431928999722,None,800.7432029399322,None,s276_02212024,001,2024-02-21_17h13.54.540,test_typingtask_norepeats,2020.2.10,59.96124103787966,
about,about,,,,,,,,,0,11,11,11,,,,,,,,,,,,,,,806.2432589000091,None,"['a', 'b', 'o', 'u', 't']",1,"[0.6627420000731945, 0.7825685001444072, 0.9026001000311226, 1.0145766001660377, 1.158763200044632]",806.2432589000091,None,806.2431988400174,None,s276_02212024,001,2024-02-21_17h13.54.540,test_typingtask_norepeats,2020.2.10,59.96124103787966,
lucky,lucky,,,,,,,,,0,12,12,12,,,,,,,,,,,,,,,811.7432756999042,None,"['l', 'u', 'c', 'k', 'y']",1,"[0.6825214000418782, 0.8746378000359982, 1.3146627000533044, 1.4585090999025851, 1.730567199876532]",811.7432756999042,None,811.7432336400495,None,s276_02212024,001,2024-02-21_17h13.54.540,test_typingtask_norepeats,2020.2.10,59.96124103787966,
tithe,tithe,,,,,,,,,0,13,13,13,,,,,,,,,,,,,,,817.2433245999273,None,"['t', 'i', 't', 'h', 'e']",1,"[0.6866279998794198, 0.8225402999669313, 0.9266397999599576, 1.046557700028643, 1.2225591000169516]",817.2433245999273,None,817.2432981399586,None,s276_02212024,001,2024-02-21_17h13.54.540,test_typingtask_norepeats,2020.2.10,59.96124103787966,
about,about,,,,,,,,,0,14,14,14,,,,,,,,,,,,,,,822.7433593999594,None,"['a', 'b', 'o', 'u', 't']",1,"[0.6265059998258948, 0.7704980999697, 0.8742855999153107, 0.9943271998781711, 1.0906539999414235]",822.7433593999594,None,822.7433275399496,None,s276_02212024,001,2024-02-21_17h13.54.540,test_typingtask_norepeats,2020.2.10,59.96124103787966,
cooed,cooed,,,,,,,,,0,15,15,15,,,,,,,,,,,,,,,828.2433718999382,None,"['c', 'o', 'o', 'e', 'd']",1,"[0.6385007000062615, 0.8544228000100702, 0.9985732999630272, 1.1265183999203146, 1.2704402999952435]",828.2433718999382,None,828.2433561399346,None,s276_02212024,001,2024-02-21_17h13.54.540,test_typingtask_norepeats,2020.2.10,59.96124103787966,
druze,druze,,,,,,,,,0,16,16,16,,,,,,,,,,,,,,,833.74341799994,None,"['d', 'r', 'u', 'z', 'e']",1,"[1.1625457000918686, 1.3703699000179768, 1.522417000029236, 2.0743257999420166, 2.3464486999437213]",833.74341799994,None,833.7433916400885,None,s276_02212024,001,2024-02-21_17h13.54.540,test_typingtask_norepeats,2020.2.10,59.96124103787966,
buddy,buddy,,,,,,,,,0,17,17,17,,,,,,,,,,,,,,,839.2434046000708,None,"['b', 'u', 'd', 'd', 'y']",1,"[0.7184366998262703, 0.8704500999301672, 1.1023528999648988, 1.2544828997924924, 1.4064799000043422]",839.2434046000708,None,839.2437135400949,None,s276_02212024,001,2024-02-21_17h13.54.540,test_typingtask_norepeats,2020.2.10,59.96124103787966,
zibja,zibja,,,,,,,,,0,18,18,18,,,,,,,,,,,,,,,844.7434918999206,None,"['z', 'i', 'b', 'j', 'a']",1,"[1.2664716001600027, 1.418377600144595, 1.6662938999943435, 1.9223406000528485, 2.066318199969828]",844.7434918999206,None,844.7434618399245,None,s276_02212024,001,2024-02-21_17h13.54.540,test_typingtask_norepeats,2020.2.10,59.96124103787966,
cooed,cooed,,,,,,,,,0,19,19,19,,,,,,,,,,,,,,,850.2435099000577,None,"['c', 'o', 'o', 'e', 'd']",1,"[0.6944758999161422, 0.8862186998594552, 1.0383344998117536, 1.1583374999463558, 1.278312399983406]",850.2435099000577,None,850.243489540019,None,s276_02212024,001,2024-02-21_17h13.54.540,test_typingtask_norepeats,2020.2.10,59.96124103787966,
lucky,lucky,,,,,,,,,0,20,20,20,,,,,,,,,,,,,,,855.7435498000123,None,"['l', 'u', 'c', 'k', 'y']",1,"[0.7543397999834269, 0.9463148000650108, 1.3862259001471102, 1.5303071001544595, 1.746191600104794]",855.7435498000123,None,855.7435217400314,None,s276_02212024,001,2024-02-21_17h13.54.540,test_typingtask_norepeats,2020.2.10,59.96124103787966,
cheer,cheer,,,,,,,,,0,21,21,21,,,,,,,,,,,,,,,861.2435292000882,None,"['c', 'h', 'e', 'e', 'r']",1,"[0.7423105000052601, 0.8862254999112338, 1.0784004998859018, 1.254317400045693, 1.4782247000839561]",861.2435292000882,None,861.2435476401122,None,s276_02212024,001,2024-02-21_17h13.54.540,test_typingtask_norepeats,2020.2.10,59.96124103787966,
edthe,edthe,,,,,,,,,0,22,22,22,,,,,,,,,,,,,,,866.74357219995,None,"['e', 'd', 't', 'h', 'e']",1,"[0.6422793997917324, 0.8502440999727696, 1.090172299882397, 1.234242099802941, 1.3624196997843683]",866.74357219995,None,866.743591039977,None,s276_02212024,001,2024-02-21_17h13.54.540,test_typingtask_norepeats,2020.2.10,59.96124103787966,
heond,heond,,,,,,,,,0,23,23,23,,,,,,,,,,,,,,,872.2436339000706,None,"['h', 'e', 'o', 'n', 'e']",0,"[0.65434499992989, 0.7661951999180019, 0.8782156999222934, 1.030175399966538, 1.182192400097847]",872.2436339000706,None,872.2436001399299,None,s276_02212024,001,2024-02-21_17h13.54.540,test_typingtask_norepeats,2020.2.10,59.96124103787966,
there,there,,,,,,,,,0,24,24,24,,,,,,,,,,,,,,,877.7436317999382,None,"['t', 'h', 'r', 'backspace', 'e', 'r', 'e']",0,"[0.5782883998472244, 0.6981295999139547, 0.85018299985677, 2.3222709998954087, 2.458103699842468, 2.5621376999188215, 2.714293399825692]",877.7436317999382,None,877.7436743400292,None,s276_02212024,001,2024-02-21_17h13.54.540,test_typingtask_norepeats,2020.2.10,59.96124103787966,
lucky,lucky,,,,,,,,,0,25,25,25,,,,,,,,,,,,,,,883.2436629000586,None,"['l', 'u', 'c', 'k', 'y']",1,"[0.8062650999054313, 1.006069399882108, 1.3741130998823792, 1.534163299947977, 1.7821353999897838]",883.2436629000586,None,883.2436915399273,None,s276_02212024,001,2024-02-21_17h13.54.540,test_typingtask_norepeats,2020.2.10,59.96124103787966,
champ,champ,,,,,,,,,0,26,26,26,,,,,,,,,,,,,,,888.7437225999311,None,"['c', 'h', 'a', 'm', 'p']",1,"[0.6740695000626147, 0.7779916001018137, 0.970214799977839, 1.0742061000782996, 1.2100881000515074]",888.7437225999311,None,888.7437136399792,None,s276_02212024,001,2024-02-21_17h13.54.540,test_typingtask_norepeats,2020.2.10,59.96124103787966,
therm,therm,,,,,,,,,0,27,27,27,,,,,,,,,,,,,,,894.2437559000682,None,"['t', 'h', 'e', 'r', 'm']",1,"[0.6141445999965072, 0.7419968000613153, 0.9180713999085128, 1.0459894998930395, 1.3337713999208063]",894.2437559000682,None,894.2437489398988,None,s276_02212024,001,2024-02-21_17h13.54.540,test_typingtask_norepeats,2020.2.10,59.96124103787966,
druze,druze,,,,,,,,,0,28,28,28,,,,,,,,,,,,,,,899.7437968000304,None,"['d', 'r', 'u', 'z', 'e']",1,"[0.898178500123322, 1.130060600116849, 1.298024000134319, 1.722006400115788, 1.9779960000887513]",899.7437968000304,None,899.7437902400968,None,s276_02212024,001,2024-02-21_17h13.54.540,test_typingtask_norepeats,2020.2.10,59.96124103787966,
belly,belly,,,,,,,,,0,29,29,29,,,,,,,,,,,,,,,905.2438326999545,None,"['b', 'e', 'l', 'l', 'y']",1,"[0.702026599785313, 0.8219943998847157, 1.0300417998805642, 1.165707099949941, 1.2938119999598712]",905.2438326999545,None,905.2438186400802,None,s276_02212024,001,2024-02-21_17h13.54.540,test_typingtask_norepeats,2020.2.10,59.96124103787966,
about,about,,,,,,,,,0,30,30,30,,,,,,,,,,,,,,,910.7438586000353,None,"['a', 'b', 'o', 'u', 't']",1,"[0.6580376999918371, 0.7860952001065016, 0.8818451000843197, 1.009959700051695, 1.1140388001222163]",910.7438586000353,None,910.7438629400683,None,s276_02212024,001,2024-02-21_17h13.54.540,test_typingtask_norepeats,2020.2.10,59.96124103787966,
puppy,puppy,,,,,,,,,0,31,31,31,,,,,,,,,,,,,,,916.2438958999701,None,"['p', 'u', 'p', 'p', 'y']",1,"[0.7019915001001209, 0.9099151000846177, 1.117876100121066, 1.2537772001232952, 1.3819097999949008]",916.2438958999701,None,916.2438863400137,None,s276_02212024,001,2024-02-21_17h13.54.540,test_typingtask_norepeats,2020.2.10,59.96124103787966,
heond,heond,,,,,,,,,0,32,32,32,,,,,,,,,,,,,,,921.7439260999672,None,"['h', 'e', 'o', 'n', 'd']",1,"[0.6658583001699299, 0.7858924001920968, 0.9138284001965076, 1.0258408000227064, 1.1777931000106037]",921.7439260999672,None,921.7439206399256,None,s276_02212024,001,2024-02-21_17h13.54.540,test_typingtask_norepeats,2020.2.10,59.96124103787966,
buddy,buddy,,,,,,,,,0,33,33,33,,,,,,,,,,,,,,,927.2439216000494,None,"['b', 'u', 'd', 'd', 'y']",1,"[0.7578970999456942, 0.8858274000231177, 1.1097540000919253, 1.2778352000750601, 1.47784149996005]",927.2439216000494,None,927.2439608399989,None,s276_02212024,001,2024-02-21_17h13.54.540,test_typingtask_norepeats,2020.2.10,59.96124103787966,
faqir,faqir,,,,,,,,,0,34,34,34,,,,,,,,,,,,,,,932.7439924001228,None,"['f', 'a', 'q', 'i', 'r']",1,"[1.1698902999050915, 1.3456141999922693, 1.6657682999502867, 2.034044200088829, 2.1856688999105245]",932.7439924001228,None,932.7439610400004,None,s276_02212024,001,2024-02-21_17h13.54.540,test_typingtask_norepeats,2020.2.10,59.96124103787966,
pykka,pykka,,,,,,,,,0,35,35,35,,,,,,,,,,,,,,,938.2440087001305,None,"['p', 'y', 'k', 'k', 'a']",1,"[0.717784799868241, 1.0218446999788284, 1.277750999899581, 1.4137547998689115, 1.5498172000516206]",938.2440087001305,None,938.2439890399808,None,s276_02212024,001,2024-02-21_17h13.54.540,test_typingtask_norepeats,2020.2.10,59.96124103787966,
theme,theme,,,,,,,,,0,36,36,36,,,,,,,,,,,,,,,943.7440651999786,None,"['t', 'h', 'e', 'm', 'e']",1,"[0.6417797999456525, 0.7696956000290811, 0.977718299953267, 1.1457452999893576, 1.249597900081426]",943.7440651999786,None,943.744043340045,None,s276_02212024,001,2024-02-21_17h13.54.540,test_typingtask_norepeats,2020.2.10,59.96124103787966,
haole,haole,,,,,,,,,0,37,37,37,,,,,,,,,,,,,,,949.2440833,None,"['h', 'a', 'o', 'l', 'e']",1,"[0.6536832000128925, 0.8296729999128729, 0.9735775999724865, 1.1977011000271887, 1.3416299000382423]",949.2440833,None,949.2440758399432,None,s276_02212024,001,2024-02-21_17h13.54.540,test_typingtask_norepeats,2020.2.10,59.96124103787966,
therm,therm,,,,,,,,,0,38,38,38,,,,,,,,,,,,,,,954.744132499909,None,"['t', 'h', 'e', 'r', 'm']",1,"[0.6177101999055594, 0.7615934999193996, 0.9296627999283373, 1.0576881999149919, 1.2975275998469442]",954.744132499909,None,954.7441107400925,None,s276_02212024,001,2024-02-21_17h13.54.540,test_typingtask_norepeats,2020.2.10,59.96124103787966,
edthe,edthe,,,,,,,,,0,39,39,39,,,,,,,,,,,,,,,960.244145100005,None,"['e', 'd', 't', 'h', 'e']",1,"[0.6456003000494093, 0.8374412001576275, 1.1496282999869436, 1.261606200132519, 1.389649200020358]",960.244145100005,None,960.2441552400821,None,s276_02212024,001,2024-02-21_17h13.54.540,test_typingtask_norepeats,2020.2.10,59.96124103787966,
vanru,vanru,,,,,,,,,0,40,40,40,,,,,,,,,,,,,,,965.7441714999732,None,"['v', 'a', 'n', 'r', 'u']",1,"[1.001704800175503, 1.1296145000960678, 1.2816485001239926, 1.5056898000184447, 1.673582100076601]",965.7441714999732,None,965.7441684399498,None,s276_02212024,001,2024-02-21_17h13.54.540,test_typingtask_norepeats,2020.2.10,59.96124103787966,
vodka,vodka,,,,,,,,,0,41,41,41,,,,,,,,,,,,,,,971.2442318999674,None,"['v', 'o', 'd', 'k', 'a']",1,"[0.7896191999316216, 0.9015408998820931, 1.2535627998877317, 1.5494768000207841, 1.6937992998864502]",971.2442318999674,None,971.2442478400887,None,s276_02212024,001,2024-02-21_17h13.54.540,test_typingtask_norepeats,2020.2.10,59.96124103787966,
therm,therm,,,,,,,,,0,42,42,42,,,,,,,,,,,,,,,976.744245500071,None,"['t', 'h', 'e', 'r', 'm']",1,"[0.6016235998831689, 0.7134649998042732, 0.8494936998467892, 0.9615314998663962, 1.1134424998890609]",976.744245500071,None,976.744237240008,None,s276_02212024,001,2024-02-21_17h13.54.540,test_typingtask_norepeats,2020.2.10,59.96124103787966,
tithe,tithe,,,,,,,,,0,43,43,43,,,,,,,,,,,,,,,982.2442995000165,None,"['t', 'i', 't', 'h', 'e']",1,"[0.6215343000367284, 0.8854761000256985, 1.12537209992297, 1.2853228999301791, 1.4773574999999255]",982.2442995000165,None,982.2442684400128,None,s276_02212024,001,2024-02-21_17h13.54.540,test_typingtask_norepeats,2020.2.10,59.96124103787966,
cooed,cooed,,,,,,,,,0,44,44,44,,,,,,,,,,,,,,,987.7443139001261,None,"['c', 'o', 'o', 'e', 'd']",1,"[0.6973724998533726, 0.8734587000217289, 1.033530900022015, 1.1933720998931676, 1.4174045999534428]",987.7443139001261,None,987.7443132401211,None,s276_02212024,001,2024-02-21_17h13.54.540,test_typingtask_norepeats,2020.2.10,59.96124103787966,
champ,champ,,,,,,,,,0,45,45,45,,,,,,,,,,,,,,,993.2443425001111,None,"['c', 'h', 'a', 'm', 'p']",1,"[0.6374248000793159, 0.7733979001641273, 0.9013004000298679, 1.0293549001216888, 1.149308399995789]",993.2443425001111,None,993.2443023399217,None,s276_02212024,001,2024-02-21_17h13.54.540,test_typingtask_norepeats,2020.2.10,59.96124103787966,
theme,theme,,,,,,,,,0,46,46,46,,,,,,,,,,,,,,,998.7443846999668,None,"['t', 'h', 'e', 'm', 'e']",1,"[0.6094043001066893, 0.7293092000763863, 0.8893170000519603, 1.0492514001671225, 1.1612412000540644]",998.7443846999668,None,998.7443342400481,None,s276_02212024,001,2024-02-21_17h13.54.540,test_typingtask_norepeats,2020.2.10,59.96124103787966,
pykka,pykka,,,,,,,,,0,47,47,47,,,,,,,,,,,,,,,1004.244372199988,None,"['p', 'y', 'k', 'k', 'a']",1,"[0.6134258999954909, 0.8534132998902351, 1.1175344998482615, 1.2773017999716103, 1.4931757999584079]",1004.244372199988,None,1004.2444023399846,None,s276_02212024,001,2024-02-21_17h13.54.540,test_typingtask_norepeats,2020.2.10,59.96124103787966,
there,there,,,,,,,,,0,48,48,48,,,,,,,,,,,,,,,1009.7444019000977,None,"['t', 'h', 'e', 'r', 'e']",1,"[0.5613900001626462, 0.6813045002054423, 0.8651939001865685, 1.049297000048682, 1.1773243001662195]",1009.7444019000977,None,1009.7444359400076,None,s276_02212024,001,2024-02-21_17h13.54.540,test_typingtask_norepeats,2020.2.10,59.96124103787966,
champ,champ,,,,,,,,,0,49,49,49,,,,,,,,,,,,,,,1015.2445290000178,None,"['c', 'h', 'a', 'm', 'p']",1,"[0.6451604999601841, 0.773140300065279, 0.9332010999787599, 1.0531931999139488, 1.197110200067982]",1015.2445290000178,None,1015.2444675400154,None,s276_02212024,001,2024-02-21_17h13.54.540,test_typingtask_norepeats,2020.2.10,59.96124103787966,
heond,heond,,,,,,,,,0,50,50,50,,,,,,,,,,,,,,,1020.7445064999629,None,"['h', 'e', 'o', 'n', 'd']",1,"[0.6173200001940131, 0.7292883000336587, 0.8730993000790477, 0.9850522000342607, 1.14504270022735]",1020.7445064999629,None,1020.7444972398923,None,s276_02212024,001,2024-02-21_17h13.54.540,test_typingtask_norepeats,2020.2.10,59.96124103787966,
theme,theme,,,,,,,,,0,51,51,51,,,,,,,,,,,,,,,1026.2445429000072,None,"['t', 'h', 'e', 'm', 'e']",1,"[0.6451309998519719, 0.7891462999396026, 0.925160099985078, 1.06920799985528, 1.1812009999994189]",1026.2445429000072,None,1026.2446080400375,None,s276_02212024,001,2024-02-21_17h13.54.540,test_typingtask_norepeats,2020.2.10,59.96124103787966,
zibja,zibja,,,,,,,,,0,52,52,52,,,,,,,,,,,,,,,1031.7445624000393,None,"['z', 'i', 'b', 'j', 'a']",1,"[1.1852445998229086, 1.3450847999192774, 1.7050452998373657, 1.9291006999555975, 2.033255900023505]",1031.7445624000393,None,1031.7445656399475,1031.8445911000017,s276_02212024,001,2024-02-21_17h13.54.540,test_typingtask_norepeats,2020.2.10,59.96124103787966,
about,about,,,,,,,,,0,53,53,53,,,,,,,,,,,,,,,1037.244611500064,None,"['a', 'b', 'o', 'u', 't']",1,"[0.6531976000405848, 0.8050333000719547, 0.892966799903661, 1.029043700080365, 1.1411771001294255]",1037.244611500064,None,1037.2446096400497,1037.3446070000064,s276_02212024,001,2024-02-21_17h13.54.540,test_typingtask_norepeats,2020.2.10,59.96124103787966,
would,would,,,,,,,,,0,54,54,54,,,,,,,,,,,,,,,1042.7445986999664,None,"['w', 'o', 'u', 'l', 'd']",1,"[0.6890693001914769, 0.8173030000180006, 0.8971032002009451, 1.1130239001940936, 1.2651027000974864]",1042.7445986999664,None,1042.7446012399857,1042.8446341000963,s276_02212024,001,2024-02-21_17h13.54.540,test_typingtask_norepeats,2020.2.10,59.96124103787966,
tithe,tithe,,,,,,,,,0,55,55,55,,,,,,,,,,,,,,,1048.244638599921,None,"['t', 'i', 't', 'h', 'e']",1,"[0.6610177999828011, 0.8050657999701798, 0.9329256000928581, 1.061116100056097, 1.2209413999225944]",1048.244638599921,None,1048.2447031399468,1048.3446724000387,s276_02212024,001,2024-02-21_17h13.54.540,test_typingtask_norepeats,2020.2.10,59.96124103787966,
vanru,vanru,,,,,,,,,0,56,56,56,,,,,,,,,,,,,,,1053.7446649000049,None,"['v', 'a', 'n', 'r', 'u']",1,"[0.7930152001790702, 0.9850930999964476, 1.105000700103119, 1.3131448000203818, 1.4970303000882268]",1053.7446649000049,None,1053.7446908399695,1053.8446633999702,s276_02212024,001,2024-02-21_17h13.54.540,test_typingtask_norepeats,2020.2.10,59.96124103787966,
think,think,,,,,,,,,0,57,57,57,,,,,,,,,,,,,,,1059.2447635000572,None,"['t', 'h', 'i', 'n', 'k']",1,"[0.6689685001038015, 0.8049300999846309, 0.892855399986729, 1.0128538000863045, 1.1728837001137435]",1059.2447635000572,None,1059.244691439974,1059.3447251000907,s276_02212024,001,2024-02-21_17h13.54.540,test_typingtask_norepeats,2020.2.10,59.96124103787966,
haole,haole,,,,,,,,,0,58,58,58,,,,,,,,,,,,,,,1064.7447299000341,None,"['h', 'a', 'o', 'l', 'e']",1,"[0.5848612000700086, 0.7288265000097454, 0.8649977999739349, 1.1050227000378072, 1.1768378000706434]",1064.7447299000341,None,1064.7447530399775,1064.8447638000362,s276_02212024,001,2024-02-21_17h13.54.540,test_typingtask_norepeats,2020.2.10,59.96124103787966,
belly,belly,,,,,,,,,0,59,59,59,,,,,,,,,,,,,,,1070.2447838000953,None,"['b', 'e', 'l', 'l', 'y']",1,"[0.6366540999151766, 0.7569585999008268, 0.9328421999234706, 1.0849127999972552, 1.228813200024888]",1070.2447838000953,None,1070.2448545399354,1070.344845399959,s276_02212024,001,2024-02-21_17h13.54.540,test_typingtask_norepeats,2020.2.10,59.96124103787966,
cheer,cheer,,,,,,,,,0,60,60,60,,,,,,,,,,,,,,,1075.7448293000925,None,"['c', 'h', 'e', 'e', 'r']",1,"[0.6169250998646021, 0.7687802999280393, 0.9608322998974472, 1.1207399000413716, 1.3048278999049217]",1075.7448293000925,None,1075.7448229399276,1075.8447928000242,s276_02212024,001,2024-02-21_17h13.54.540,test_typingtask_norepeats,2020.2.10,59.96124103787966,
there,there,,,,,,,,,0,61,61,61,,,,,,,,,,,,,,,1081.2448589999694,None,"['t', 'h', 'e', 'r', 'e']",1,"[0.59656019997783, 0.7247534999623895, 0.8686812999658287, 1.0366938998922706, 1.1407429000828415]",1081.2448589999694,None,1081.2448745400877,None,s276_02212024,001,2024-02-21_17h13.54.540,test_typingtask_norepeats,2020.2.10,59.96124103787966,
cheer,cheer,,,,,,,,,0,62,62,62,,,,,,,,,,,,,,,1086.7449113000184,None,"['c', 'h', 'e', 'e', 'r']",1,"[0.7048816999886185, 0.8567824000492692, 1.0648049998562783, 1.224853599909693, 1.3688616000581533]",1086.7449113000184,None,1086.7448958399007,None,s276_02212024,001,2024-02-21_17h13.54.540,test_typingtask_norepeats,2020.2.10,59.96124103787966,
tithe,tithe,,,,,,,,,0,63,63,63,,,,,,,,,,,,,,,1092.244928299915,None,"['t', 'i', 't', 'h', 'e']",1,"[0.612854199949652, 0.7566541000269353, 0.8925570000428706, 1.0207521999254823, 1.14869249984622]",1092.244928299915,None,1092.2449561400106,None,s276_02212024,001,2024-02-21_17h13.54.540,test_typingtask_norepeats,2020.2.10,59.96124103787966,
edthe,edthe,,,,,,,,,0,64,64,64,,,,,,,,,,,,,,,1097.7449704001192,None,"['e', 'd', 't', 'h', 'e']",1,"[0.6247543001081795, 0.8328396000433713, 1.0967534000519663, 1.2246459999587387, 1.3366318000480533]",1097.7449704001192,None,1097.7449718400137,None,s276_02212024,001,2024-02-21_17h13.54.540,test_typingtask_norepeats,2020.2.10,59.96124103787966,
vodka,vodka,,,,,,,,,0,65,65,65,,,,,,,,,,,,,,,1103.2450009000022,None,"['v', 'o', 'd', 'k', 'a']",1,"[0.7565812999382615, 0.9010344999842346, 1.0685886000283062, 1.4766375999897718, 1.620666699949652]",1103.2450009000022,None,1103.2449533399893,None,s276_02212024,001,2024-02-21_17h13.54.540,test_typingtask_norepeats,2020.2.10,59.96124103787966,
haole,haole,,,,,,,,,0,66,66,66,,,,,,,,,,,,,,,1108.745024899952,None,"['h', 'o']",0,"[0.6725275998469442, 0.8326744998339564]",1108.745024899952,None,1108.7450208399212,None,s276_02212024,001,2024-02-21_17h13.54.540,test_typingtask_norepeats,2020.2.10,59.96124103787966,
tithe,tithe,,,,,,,,,0,67,67,67,,,,,,,,,,,,,,,1114.245066100033,None,"['t', 'i', 't', 'h', 'e']",1,"[0.6124749998562038, 0.7404962999280542, 0.8604599998798221, 0.9806213998235762, 1.100635299924761]",1114.245066100033,None,1114.245055940072,None,s276_02212024,001,2024-02-21_17h13.54.540,test_typingtask_norepeats,2020.2.10,59.96124103787966,
puppy,puppy,,,,,,,,,0,68,68,68,,,,,,,,,,,,,,,1119.7450862000696,None,"['p', 'u', 'p', 'p', 'y']",1,"[0.62454569991678, 0.8484871999826282, 1.0725380999501795, 1.2243774000089616, 1.3925095999147743]",1119.7450862000696,None,1119.745076539996,None,s276_02212024,001,2024-02-21_17h13.54.540,test_typingtask_norepeats,2020.2.10,59.96124103787966,
cheer,cheer,,,,,,,,,0,69,69,69,,,,,,,,,,,,,,,1125.245132900076,None,"['c', 'h', 'e', 'e', 'r']",1,"[0.6206348999403417, 0.7484160999301821, 0.9564350000582635, 1.1086446999106556, 1.268441699910909]",1125.245132900076,None,1125.245084140054,None,s276_02212024,001,2024-02-21_17h13.54.540,test_typingtask_norepeats,2020.2.10,59.96124103787966,
belly,belly,,,,,,,,,0,70,70,70,,,,,,,,,,,,,,,1130.7451269999146,None,"['b', 'e', 'l', 'l', 'y']",1,"[0.6724307001568377, 0.7684333000797778, 0.9685353001113981, 1.10436060000211, 1.2165218000300229]",1130.7451269999146,None,1130.7451604400528,None,s276_02212024,001,2024-02-21_17h13.54.540,test_typingtask_norepeats,2020.2.10,59.96124103787966,
would,would,,,,,,,,,0,71,71,71,,,,,,,,,,,,,,,1136.2452018000185,None,"['w', 'o', 'u', 'l', 'd']",1,"[0.8444796002004296, 0.9722810001112521, 1.0685674000997096, 1.2682602000422776, 1.39645370002836]",1136.2452018000185,None,1136.2452034399146,None,s276_02212024,001,2024-02-21_17h13.54.540,test_typingtask_norepeats,2020.2.10,59.96124103787966,
therm,therm,,,,,,,,,0,72,72,72,,,,,,,,,,,,,,,1141.7452231000643,None,"['t', 'h', 'e', 'r', 'm']",1,"[0.6164571000263095, 0.7364471000619233, 0.8881111000664532, 1.0084071001037955, 1.1923823999240994]",1141.7452231000643,None,1141.7452260400867,None,s276_02212024,001,2024-02-21_17h13.54.540,test_typingtask_norepeats,2020.2.10,59.96124103787966,
vanru,vanru,,,,,,,,,0,73,73,73,,,,,,,,,,,,,,,1147.2452626000158,None,"['v', 'a', 'n', 'r', 'u']",1,"[0.788244100054726, 0.9882646000478417, 1.1322783001232892, 1.3483893000520766, 1.5323522000107914]",1147.2452626000158,None,1147.2452609400032,None,s276_02212024,001,2024-02-21_17h13.54.540,test_typingtask_norepeats,2020.2.10,59.96124103787966,
faqir,faqir,,,,,,,,,0,74,74,74,,,,,,,,,,,,,,,1152.745269200066,None,"['f', 'a', 'q', 'i', 'r']",1,"[0.7522865999490023, 0.944334700005129, 1.4004639000631869, 1.7443341999314725, 1.9602073000278324]",1152.745269200066,None,1152.7453241400187,None,s276_02212024,001,2024-02-21_17h13.54.540,test_typingtask_norepeats,2020.2.10,59.96124103787966,
vodka,vodka,,,,,,,,,0,75,75,75,,,,,,,,,,,,,,,1158.2453199999873,None,"['v', 'o', 'd', 'k', 'a']",1,"[0.732382700080052, 0.8922235001809895, 1.076118100201711, 1.3722492000088096, 1.508331400109455]",1158.2453199999873,None,1158.2453159399563,None,s276_02212024,001,2024-02-21_17h13.54.540,test_typingtask_norepeats,2020.2.10,59.96124103787966,
there,there,,,,,,,,,0,76,76,76,,,,,,,,,,,,,,,1163.745582500007,None,"['t', 'h', 'r', 'e', 'r']",0,"[0.6159143999684602, 0.7358949999324977, 0.9999241000041366, 1.5359201999381185, 1.6800627999473363]",1163.745582500007,None,1163.7455138399498,None,s276_02212024,001,2024-02-21_17h13.54.540,test_typingtask_norepeats,2020.2.10,59.96124103787966,
kremp,kremp,,,,,,,,,0,77,77,77,,,,,,,,,,,,,,,1169.245351999998,None,"['k', 'r', 'e', 'm', 'p']",1,"[0.948181200074032, 1.0601209001615644, 1.1881894001271576, 1.380128800170496, 1.4920999000314623]",1169.245351999998,None,1169.2453900399385,None,s276_02212024,001,2024-02-21_17h13.54.540,test_typingtask_norepeats,2020.2.10,59.96124103787966,
think,think,,,,,,,,,0,78,78,78,,,,,,,,,,,,,,,1174.745390099939,None,"['t', 'h', 'i', 'n', 'k']",1,"[0.5922882000450045, 0.6962618001271039, 0.8322646000888199, 0.9201068000402302, 1.0801158000249416]",1174.745390099939,None,1174.745418839925,None,s276_02212024,001,2024-02-21_17h13.54.540,test_typingtask_norepeats,2020.2.10,59.96124103787966,
faqir,faqir,,,,,,,,,0,79,79,79,,,,,,,,,,,,,,,1180.2454395000823,None,"['f', 'a', 'q', 'i', 'r']",1,"[0.8762011001817882, 1.0920693001244217, 1.4361651001963764, 1.6040961001999676, 1.7880809002090245]",1180.2454395000823,None,1180.245447839913,None,s276_02212024,001,2024-02-21_17h13.54.540,test_typingtask_norepeats,2020.2.10,59.96124103787966,
buddy,buddy,,,,,,,,,0,80,80,80,,,,,,,,,,,,,,,1185.745476000011,None,"['b', 'u', 'd', 'd', 'y']",1,"[0.6559835998341441, 0.7680283999070525, 1.0241520998533815, 1.1841936998534948, 1.3600808000192046]",1185.745476000011,None,1185.745496040047,None,s276_02212024,001,2024-02-21_17h13.54.540,test_typingtask_norepeats,2020.2.10,59.96124103787966,
pykka,pykka,,,,,,,,,0,81,81,81,,,,,,,,,,,,,,,1191.24548589997,None,"['p', 'y', 'k', 'k', 'a']",1,"[1.2441371001768857, 1.5881482001859695, 1.852008500136435, 1.9959730000700802, 2.1959435001481324]",1191.24548589997,None,1191.2455236400244,None,s276_02212024,001,2024-02-21_17h13.54.540,test_typingtask_norepeats,2020.2.10,59.96124103787966,
edthe,edthe,,,,,,,,,0,82,82,82,,,,,,,,,,,,,,,1196.7455261000432,None,"['e', 'd', 't', 'h', 'e']",1,"[0.7521347999572754, 1.0399921000935137, 1.336052400059998, 1.479946600040421, 1.6162405000068247]",1196.7455261000432,None,1196.7455491401022,None,s276_02212024,001,2024-02-21_17h13.54.540,test_typingtask_norepeats,2020.2.10,59.96124103787966,
about,about,,,,,,,,,0,83,83,83,,,,,,,,,,,,,,,1202.2455780000892,None,"['a', 'b', 'o', 'u', 't']",1,"[0.7320811999961734, 0.9559094000142068, 1.0599455998744816, 1.195959399919957, 1.3558606998994946]",1202.2455780000892,None,1202.2455794399837,None,s276_02212024,001,2024-02-21_17h13.54.540,test_typingtask_norepeats,2020.2.10,59.96124103787966,
edthe,edthe,,,,,,,,,0,84,84,84,,,,,,,,,,,,,,,1207.7456328000408,None,"['e', 'd', 't', 'h', 'e']",1,"[0.8238635999150574, 1.023799799848348, 1.3197402998339385, 1.4477949999272823, 1.5760327000170946]",1207.7456328000408,None,1207.745611639996,None,s276_02212024,001,2024-02-21_17h13.54.540,test_typingtask_norepeats,2020.2.10,59.96124103787966,
puppy,puppy,,,,,,,,,0,85,85,85,,,,,,,,,,,,,,,1213.2456640999299,None,"['p', 'u', 'p', 'p', 'y']",1,"[0.7239337000064552, 0.9399635000154376, 1.1558944999706, 1.3159095000009984, 1.555913700023666]",1213.2456640999299,None,1213.2456560401013,None,s276_02212024,001,2024-02-21_17h13.54.540,test_typingtask_norepeats,2020.2.10,59.96124103787966,
faqir,faqir,,,,,,,,,0,86,86,86,,,,,,,,,,,,,,,1218.745644000126,None,"['f', 'a', 'q', 'i', 'r']",1,"[0.8000033001881093, 1.0080838000867516, 1.6399568000342697, 1.9439352999906987, 2.159865900175646]",1218.745644000126,None,1218.745689540007,None,s276_02212024,001,2024-02-21_17h13.54.540,test_typingtask_norepeats,2020.2.10,59.96124103787966,
pykka,pykka,,,,,,,,,0,87,87,87,,,,,,,,,,,,,,,1224.2457202000078,None,"['p', 'y', 'k', 'k', 'a']",1,"[0.7157751000486314, 1.027801000047475, 1.2998438000213355, 1.4436872000806034, 1.6197699001058936]",1224.2457202000078,None,1224.245707040024,None,s276_02212024,001,2024-02-21_17h13.54.540,test_typingtask_norepeats,2020.2.10,59.96124103787966,
belly,belly,,,,,,,,,0,88,88,88,,,,,,,,,,,,,,,1229.7457614000887,None,"['b', 'e', 'l', 'l', 'y']",1,"[0.6318761000875384, 0.7519517000764608, 0.9358480998780578, 1.071740600047633, 1.2157042000908405]",1229.7457614000887,None,1229.745776539971,None,s276_02212024,001,2024-02-21_17h13.54.540,test_typingtask_norepeats,2020.2.10,59.96124103787966,
cooed,cooed,,,,,,,,,0,89,89,89,,,,,,,,,,,,,,,1235.2457824000157,None,"['c', 'o', 'o', 'e', 'd']",1,"[0.7957932001445442, 0.9955643999855965, 1.1556536999996752, 1.3557309000752866, 1.651627300074324]",1235.2457824000157,None,1235.2457727399421,None,s276_02212024,001,2024-02-21_17h13.54.540,test_typingtask_norepeats,2020.2.10,59.96124103787966,
druze,druze,,,,,,,,,0,90,90,90,,,,,,,,,,,,,,,1240.74578820006,None,"['d', 'r', 'u', 'z', 'e']",1,"[0.8397421999834478, 1.055800599977374, 1.2315986999310553, 1.5916768999304622, 1.871784299844876]",1240.74578820006,None,1240.7458198399515,None,s276_02212024,001,2024-02-21_17h13.54.540,test_typingtask_norepeats,2020.2.10,59.96124103787966,
think,think,,,,,,,,,0,91,91,91,,,,,,,,,,,,,,,1246.2458530000877,None,"['t', 'h', 'i', 'n', 'k']",1,"[0.5957215998787433, 0.7396269000601023, 0.8115966999903321, 0.9556108999531716, 1.179598799906671]",1246.2458530000877,None,1246.2458060400793,None,s276_02212024,001,2024-02-21_17h13.54.540,test_typingtask_norepeats,2020.2.10,59.96124103787966,
kremp,kremp,,,,,,,,,0,92,92,92,,,,,,,,,,,,,,,1251.7458500000648,None,"['k', 'r', 'e', 'm', 'p']",1,"[0.8317631999962032, 0.999628399964422, 1.1437608001288027, 1.3276492001023144, 1.5675260000862181]",1251.7458500000648,None,1251.7460379400989,None,s276_02212024,001,2024-02-21_17h13.54.540,test_typingtask_norepeats,2020.2.10,59.96124103787966,
lucky,lucky,,,,,,,,,0,93,93,93,,,,,,,,,,,,,,,1257.2458800000604,None,"['l', 'u', 'c', 'k', 'y']",1,"[0.7557975000236183, 0.9715951001271605, 1.3476349001284689, 1.5235723000951111, 1.6995596999768168]",1257.2458800000604,None,1257.2459044398972,None,s276_02212024,001,2024-02-21_17h13.54.540,test_typingtask_norepeats,2020.2.10,59.96124103787966,
puppy,puppy,,,,,,,,,0,94,94,94,,,,,,,,,,,,,,,1262.7461922001094,None,"['p', 'u', 'p', 'p', 'y']",1,"[0.6552558999974281, 0.8792906000744551, 1.1113697001710534, 1.2552670000586659, 1.4312056000344455]",1262.7461922001094,None,1262.7459655400132,None,s276_02212024,001,2024-02-21_17h13.54.540,test_typingtask_norepeats,2020.2.10,59.96124103787966,
buddy,buddy,,,,,,,,,0,95,95,95,,,,,,,,,,,,,,,1268.2459891999606,None,"['b', 'u', 'd', 'd', 'y']",1,"[0.5794893000274897, 0.7474462001118809, 1.0433135000057518, 1.2114651000592858, 1.38728310004808]",1268.2459891999606,None,1268.245974639966,None,s276_02212024,001,2024-02-21_17h13.54.540,test_typingtask_norepeats,2020.2.10,59.96124103787966,
haole,haole,,,,,,,,,0,96,96,96,,,,,,,,,,,,,,,1273.7461105999537,None,"['h', 'a', 'o', 'l', 'e']",1,"[0.87941879988648, 1.0314070999156684, 1.1995689999312162, 1.4393118000589311, 1.5674793999642134]",1273.7461105999537,None,1273.7459924401016,None,s276_02212024,001,2024-02-21_17h13.54.540,test_typingtask_norepeats,2020.2.10,59.96124103787966,
would,would,,,,,,,,,0,97,97,97,,,,,,,,,,,,,,,1279.246016100049,None,"['w', 'o', 'u', 'l', 'd']",1,"[0.8995334999635816, 1.0036178999580443, 1.1234184999484569, 1.3233868000097573, 1.427405099850148]",1279.246016100049,None,1279.2460432400228,None,s276_02212024,001,2024-02-21_17h13.54.540,test_typingtask_norepeats,2020.2.10,59.96124103787966,
lucky,lucky,,,,,,,,,0,98,98,98,,,,,,,,,,,,,,,1284.7460579001345,None,"['l', 'u', 'c', 'k', 'y']",1,"[0.6875604998786002, 0.8873531999997795, 1.2235040999948978, 1.3591332000214607, 1.6393571998924017]",1284.7460579001345,None,1284.7460900399135,None,s276_02212024,001,2024-02-21_17h13.54.540,test_typingtask_norepeats,2020.2.10,59.96124103787966,
theme,theme,,,,,,,,,0,99,99,99,,,,,,,,,,,,,,,1290.2461117000785,None,"['t', 'h', 'e', 'm', 'e']",1,"[0.6273941001854837, 0.7233741001691669, 0.9791339000221342, 1.1953275001142174, 1.3234752002172172]",1290.2461117000785,None,1290.2460853399941,None,s276_02212024,001,2024-02-21_17h13.54.540,test_typingtask_norepeats,2020.2.10,59.96124103787966,
heond,heond,,,,,,,,,0,100,100,100,,,,,,,,,,,,,,,1295.7461590000894,None,"['h', 'e', 'o', 'n', 'd']",1,"[0.6152843001764268, 0.7592037001159042, 0.9032466001808643, 1.1112362002022564, 1.2473479001782835]",1295.7461590000894,None,1295.746108539938,None,s276_02212024,001,2024-02-21_17h13.54.540,test_typingtask_norepeats,2020.2.10,59.96124103787966,
kremp,kremp,,,,,,,,,0,101,101,101,,,,,,,,,,,,,,,1301.246137799928,None,"['k', 'r', 'e', 'm', 'p']",1,"[0.8435006998479366, 0.9553288999013603, 1.083412499865517, 1.2592658000066876, 1.3712045999709517]",1301.246137799928,None,1301.2461674400372,None,s276_02212024,001,2024-02-21_17h13.54.540,test_typingtask_norepeats,2020.2.10,59.96124103787966,
zibja,zibja,,,,,,,,,0,102,102,102,,,,,,,,,,,,,,,1306.7461816000286,None,"['z', 'i', 'b', 'j', 'a']",1,"[1.0953603000380099, 1.255244700005278, 1.5514058999251574, 1.8072583000175655, 1.9032675998751074]",1306.7461816000286,None,1306.7469317399198,None,s276_02212024,001,2024-02-21_17h13.54.540,test_typingtask_norepeats,2020.2.10,59.96124103787966,
champ,champ,,,,,,,,,0,103,103,103,,,,,,,,,,,,,,,1312.2462546001188,None,"['c', 'h', 'a', 'm', 'p']",1,"[0.6272855999413878, 0.7313872999511659, 0.8995181999634951, 0.9870527999009937, 1.1231664998922497]",1312.2462546001188,None,1312.2461972400313,None,s276_02212024,001,2024-02-21_17h13.54.540,test_typingtask_norepeats,2020.2.10,59.96124103787966,
druze,druze,,,,,,,,,0,104,104,104,,,,,,,,,,,,,,,1317.7462387999985,None,"['d', 'r', 'u', 'z', 'e']",1,"[0.8631782999727875, 1.111013500019908, 1.3112846999429166, 1.6952021999750286, 1.951177699957043]",1317.7462387999985,None,1317.7462661399738,None,s276_02212024,001,2024-02-21_17h13.54.540,test_typingtask_norepeats,2020.2.10,59.96124103787966,
zibja,zibja,,,,,,,,,0,105,105,105,,,,,,,,,,,,,,,1323.2463334000204,None,"['z', 'i', 'b', 'j', 'a']",1,"[0.9310628999955952, 1.1070773999672383, 1.3152273998130113, 1.578969599911943, 1.6749842998106033]",1323.2463334000204,None,1323.2463006401201,None,s276_02212024,001,2024-02-21_17h13.54.540,test_typingtask_norepeats,2020.2.10,59.96124103787966,
faqir,faqir,,,,,,,,,0,106,106,106,,,,,,,,,,,,,,,1328.7463440999854,None,"['f', 'a', 'q', 'i', 'r']",1,"[0.9271269000601023, 1.1110352000687271, 1.3674242999404669, 1.495139299891889, 1.6390744000673294]",1328.7463440999854,None,1328.7463355400366,None,s276_02212024,001,2024-02-21_17h13.54.540,test_typingtask_norepeats,2020.2.10,59.96124103787966,
there,there,,,,,,,,,0,107,107,107,,,,,,,,,,,,,,,1334.2463815999217,None,"['t', 'h', 'e', 'r', 'e']",1,"[0.939112699823454, 1.0511695998720825, 1.2350971000269055, 1.38710379996337, 1.5229414999485016]",1334.2463815999217,None,1334.2463709400733,None,s276_02212024,001,2024-02-21_17h13.54.540,test_typingtask_norepeats,2020.2.10,59.96124103787966,
pykka,pykka,,,,,,,,,0,108,108,108,,,,,,,,,,,,,,,1339.7464143000543,None,"['p', 'y', 'k', 'k', 'a']",1,"[0.687074099900201, 0.9510914999991655, 1.2069107999559492, 1.3430058998055756, 1.510966599918902]",1339.7464143000543,None,1339.746412040037,None,s276_02212024,001,2024-02-21_17h13.54.540,test_typingtask_norepeats,2020.2.10,59.96124103787966,
cheer,cheer,,,,,,,,,0,109,109,109,,,,,,,,,,,,,,,1345.2464195999783,None,"['c', 'h', 'e', 'e', 'r']",1,"[0.6830938002094626, 0.8512388002127409, 1.011092800181359, 1.210812000092119, 1.379046400077641]",1345.2464195999783,None,1345.246434940095,None,s276_02212024,001,2024-02-21_17h13.54.540,test_typingtask_norepeats,2020.2.10,59.96124103787966,
kremp,kremp,,,,,,,,,0,110,110,110,,,,,,,,,,,,,,,1350.7464383000042,None,"['k', 'r', 'e', 'm', 'p']",1,"[1.3590385999996215, 1.487043600063771, 1.6148957000114024, 1.8070402999874204, 1.9590335001703352]",1350.7464383000042,None,1350.7464987401152,None,s276_02212024,001,2024-02-21_17h13.54.540,test_typingtask_norepeats,2020.2.10,59.96124103787966,
would,would,,,,,,,,,0,111,111,111,,,,,,,,,,,,,,,1356.2465170000214,None,"['w', 'o', 'l', 'd']",0,"[0.7790266000665724, 0.9228686999995261, 1.5389747000299394, 1.7469801001716405]",1356.2465170000214,None,1356.2465367399388,None,s276_02212024,001,2024-02-21_17h13.54.540,test_typingtask_norepeats,2020.2.10,59.96124103787966,
zibja,zibja,,,,,,,,,0,112,112,112,,,,,,,,,,,,,,,1361.7465021000244,None,"['z', 'i', 'b', 'j', 'a']",1,"[0.9829844001214951, 1.1828739000484347, 1.4949783000629395, 1.7349233999848366, 1.9108593999408185]",1361.7465021000244,None,1361.746545940009,None,s276_02212024,001,2024-02-21_17h13.54.540,test_typingtask_norepeats,2020.2.10,59.96124103787966,
champ,champ,,,,,,,,,0,113,113,113,,,,,,,,,,,,,,,1367.2465566000901,None,"['c', 'h', 'a', 'm', 'p']",1,"[0.6268280001822859, 0.754769500112161, 0.8988257001619786, 1.0267609001602978, 1.2027685001958162]",1367.2465566000901,None,1367.2465440401108,None,s276_02212024,001,2024-02-21_17h13.54.540,test_typingtask_norepeats,2020.2.10,59.96124103787966,
think,think,,,,,,,,,0,114,114,114,,,,,,,,,,,,,,,1372.746618800098,None,"['t', 'h', 'i', 'n', 'k']",1,"[0.7188169001601636, 0.8467858000658453, 0.9587230000179261, 1.0947672000620514, 1.2546918001025915]",1372.746618800098,None,1372.746561939898,None,s276_02212024,001,2024-02-21_17h13.54.540,test_typingtask_norepeats,2020.2.10,59.96124103787966,
puppy,puppy,,,,,,,,,0,115,115,115,,,,,,,,,,,,,,,1378.2466047999915,None,"['p', 'u', 'p', 'p', 'y']",1,"[0.5869116000831127, 0.7788053001277149, 1.0026998000685126, 1.170846600085497, 1.3866305002011359]",1378.2466047999915,None,1378.246643340052,None,s276_02212024,001,2024-02-21_17h13.54.540,test_typingtask_norepeats,2020.2.10,59.96124103787966,
druze,druze,,,,,,,,,0,116,116,116,,,,,,,,,,,,,,,1383.7466321999673,None,"['d', 'r', 'u', 'z', 'e']",1,"[0.950997699983418, 1.2066480000503361, 1.3907900000922382, 1.7747309999540448, 2.2787784000393003]",1383.7466321999673,None,1383.7466648400994,1383.8466374999844,s276_02212024,001,2024-02-21_17h13.54.540,test_typingtask_norepeats,2020.2.10,59.96124103787966,
theme,theme,,,,,,,,,0,117,117,117,,,,,,,,,,,,,,,1389.2467082000803,None,"['t', 'h', 'e', 'm', 'e']",1,"[0.6187585999723524, 0.7464741999283433, 0.9146656999364495, 1.0426115000154823, 1.154609200078994]",1389.2467082000803,None,1389.2466996398987,1389.3466743000317,s276_02212024,001,2024-02-21_17h13.54.540,test_typingtask_norepeats,2020.2.10,59.96124103787966,
would,would,,,,,,,,,0,118,118,118,,,,,,,,,,,,,,,1394.7467386999633,None,"['w', 'o', 'u', 'l', 'd']",1,"[0.6546986000612378, 0.7508499999530613, 0.9425540000665933, 1.1906157000921667, 1.3345107999630272]",1394.7467386999633,None,1394.7467376399552,1394.8467435999773,s276_02212024,001,2024-02-21_17h13.54.540,test_typingtask_norepeats,2020.2.10,59.96124103787966,
buddy,buddy,,,,,,,,,0,119,119,119,,,,,,,,,,,,,,,1400.2467710000928,None,"['b', 'u', 'd', 'd', 'y']",1,"[0.6907034001778811, 0.8186445999890566, 1.0344866001978517, 1.2026441001798958, 1.4266256000846624]",1400.2467710000928,None,1400.246757040103,1400.3467806999106,s276_02212024,001,2024-02-21_17h13.54.540,test_typingtask_norepeats,2020.2.10,59.96124103787966,
