string,corrAns,practice_trials.thisRepN,practice_trials.thisTrialN,practice_trials.thisN,practice_trials.thisIndex,trials_1.thisRepN,trials_1.thisTrialN,trials_1.thisN,trials_1.thisIndex,trials_2.thisRepN,trials_2.thisTrialN,trials_2.thisN,trials_2.thisIndex,key_resp_0.keys,key_resp_0.corr,key_resp_0.rt,text_1.started,text_1.stopped,key_resp_1.keys,key_resp_1.corr,key_resp_1.rt,key_resp_1.started,key_resp_1.stopped,sound_1A_1.started,sound_1A_1.stopped,break_time.started,break_time.stopped,text_2.started,text_2.stopped,key_resp_2.keys,key_resp_2.corr,key_resp_2.rt,key_resp_2.started,key_resp_2.stopped,sound_1A_2.started,sound_1A_2.stopped,participant,session,date,expName,psychopyVersion,frameRate,
fresh,fresh,0,0,0,0,,,,,,,,,"['f', 'r', 'e', 's', 'h']",1,"[1.2714488999918103, 1.5195737001486123, 1.8554468001239002, 2.127510800026357, 2.20745600014925]",,,,,,,,,,,,,,,,,,,,,s278_02232024,001,2024-02-23_12h35.53.210,test_typingtask_norepeats,2020.2.10,59.97285623218238,
dream,dream,0,1,1,1,,,,,,,,,"['d', 'r', 'e', 'a', 'm']",1,"[1.1874224999919534, 1.3873900000471622, 1.4913860000669956, 1.5554909999482334, 1.6433208000380546]",,,,,,,,,,,,,,,,,,,,,s278_02232024,001,2024-02-23_12h35.53.210,test_typingtask_norepeats,2020.2.10,59.97285623218238,
slime,slime,0,2,2,2,,,,,,,,,"['s', 'l', 'i', 'm', 'e', 'space']",0,"[0.6876843001227826, 0.8633596000727266, 1.0233587000984699, 1.1914052001666278, 1.2394602000713348, 1.3833207001443952]",,,,,,,,,,,,,,,,,,,,,s278_02232024,001,2024-02-23_12h35.53.210,test_typingtask_norepeats,2020.2.10,59.97285623218238,
edthe,edthe,,,,,0,0,0,0,,,,,,,,93.91915330011398,None,"['e', 'd', 't', 'h', 'e']",1,"[1.256119200028479, 1.4559907999355346, 1.6321487000677735, 1.7201304999180138, 1.7919950999785215]",93.91915330011398,None,93.91839896999299,94.0184902001638,,,,,,,,,,,,s278_02232024,001,2024-02-23_12h35.53.210,test_typingtask_norepeats,2020.2.10,59.97285623218238,
would,would,,,,,0,1,1,1,,,,,,,,99.41845929995179,None,"['w', 'o', 'u', 'l', 'd']",1,"[0.8687337001319975, 0.9886785000562668, 1.1009959001094103, 2.348732199985534, 2.436692100018263]",99.41845929995179,None,99.41838277010247,None,,,,,,,,,,,,s278_02232024,001,2024-02-23_12h35.53.210,test_typingtask_norepeats,2020.2.10,59.97285623218238,
belly,belly,,,,,0,2,2,2,,,,,,,,104.91852080007084,None,"['b', 'e', 'l', 'l', 'y']",1,"[0.7206596999894828, 0.8008003998547792, 1.0485908999107778, 1.1765689000021666, 1.3607445999514312]",104.91852080007084,None,104.91840966995805,None,,,,,,,,,,,,s278_02232024,001,2024-02-23_12h35.53.210,test_typingtask_norepeats,2020.2.10,59.97285623218238,
vodka,vodka,,,,,0,3,3,3,,,,,,,,110.4185504000634,None,"['v', 'o', 'd', 'k', 'e', 'a']",0,"[1.2205549001228064, 1.3406804001424462, 1.4685796000994742, 1.7405821001157165, 1.8046311000362039, 2.5008459000382572]",110.4185504000634,None,110.41841537011787,None,,,,,,,,,,,,s278_02232024,001,2024-02-23_12h35.53.210,test_typingtask_norepeats,2020.2.10,59.97285623218238,
buddy,buddy,,,,,0,4,4,4,,,,,,,,115.91856510005891,None,"['b', 'u', 'u', 'd', 'd', 'y']",0,"[0.8328064999077469, 0.9846042999997735, 1.1687089998740703, 1.3205698998644948, 1.840602699900046, 2.344605299877003]",115.91856510005891,None,115.91846407013945,None,,,,,,,,,,,,s278_02232024,001,2024-02-23_12h35.53.210,test_typingtask_norepeats,2020.2.10,59.97285623218238,
vodka,vodka,,,,,0,5,5,5,,,,,,,,121.41857230011374,None,"['v', 'o', 'd', 'k', 'a']",1,"[1.052581099793315, 1.3165444999467582, 1.5165702998638153, 1.772605499951169, 1.8287359999958426]",121.41857230011374,None,121.41844947002828,None,,,,,,,,,,,,s278_02232024,001,2024-02-23_12h35.53.210,test_typingtask_norepeats,2020.2.10,59.97285623218238,
there,there,,,,,0,6,6,6,,,,,,,,126.91857239999808,None,"['t', 'h', 'e', 'r', 'e']",1,"[0.6486328998580575, 0.7045827999245375, 0.8085601998027414, 0.9288376998156309, 1.048685599816963]",126.91857239999808,None,126.91847386998124,None,,,,,,,,,,,,s278_02232024,001,2024-02-23_12h35.53.210,test_typingtask_norepeats,2020.2.10,59.97285623218238,
belly,belly,,,,,0,7,7,7,,,,,,,,132.41862140013836,None,"['b', 'e', 'l', 'l', 'y']",1,"[0.7164798001758754, 0.8285624000709504, 1.788613900076598, 1.9405354000627995, 2.0124712001997977]",132.41862140013836,None,132.41850126995706,None,,,,,,,,,,,,s278_02232024,001,2024-02-23_12h35.53.210,test_typingtask_norepeats,2020.2.10,59.97285623218238,
druze,druze,,,,,0,8,8,8,,,,,,,,137.91863900003955,None,"['d', 'r', 'u', 'z', 'e']",1,"[0.6166046999860555, 0.8485679000150412, 1.040581300156191, 2.2085540001280606, 2.408514500129968]",137.91863900003955,None,137.91849537002855,None,,,,,,,,,,,,s278_02232024,001,2024-02-23_12h35.53.210,test_typingtask_norepeats,2020.2.10,59.97285623218238,
haole,haole,,,,,0,9,9,9,,,,,,,,143.4187191000674,None,"['h', 'a', 'o', 'l', 'e']",1,"[0.9644569999072701, 1.0523982997983694, 1.5085857999511063, 1.6765189999714494, 1.7804835999850184]",143.4187191000674,None,143.4185309700668,None,,,,,,,,,,,,s278_02232024,001,2024-02-23_12h35.53.210,test_typingtask_norepeats,2020.2.10,59.97285623218238,
there,there,,,,,0,10,10,10,,,,,,,,148.9187378999777,None,"['t', 'h', 'e', 'r', 'e']",1,"[0.6564140000846237, 0.7764673000201583, 0.9364394000731409, 1.0084556001238525, 1.1125477000605315]",148.9187378999777,None,148.9185857700184,None,,,,,,,,,,,,s278_02232024,001,2024-02-23_12h35.53.210,test_typingtask_norepeats,2020.2.10,59.97285623218238,
faqir,faqir,,,,,0,11,11,11,,,,,,,,154.4187175000552,None,"['f', 'a', 'q', 'w', 'i', 'r']",0,"[1.0284064000006765, 1.4125054001342505, 1.6924946000799537, 1.7405373000074178, 2.0365321000572294, 2.1244291001930833]",154.4187175000552,None,154.41857167002746,None,,,,,,,,,,,,s278_02232024,001,2024-02-23_12h35.53.210,test_typingtask_norepeats,2020.2.10,59.97285623218238,
think,think,,,,,0,12,12,12,,,,,,,,159.91872179997154,None,"['t', 'h', 'i', 'n', 'k']",1,"[0.6964714000932872, 0.7924788999371231, 0.8804136998951435, 1.0965140000917017, 1.1204999999608845]",159.91872179997154,None,159.9186176701449,None,,,,,,,,,,,,s278_02232024,001,2024-02-23_12h35.53.210,test_typingtask_norepeats,2020.2.10,59.97285623218238,
therm,therm,,,,,0,13,13,13,,,,,,,,165.41876170015894,None,"['t', 'h', 'e', 'r', 'm']",1,"[0.7004358000122011, 0.8043521998915821, 0.9004980998579413, 0.9484375999309123, 1.0204485999420285]",165.41876170015894,None,165.4186129699927,None,,,,,,,,,,,,s278_02232024,001,2024-02-23_12h35.53.210,test_typingtask_norepeats,2020.2.10,59.97285623218238,
kremp,kremp,,,,,0,14,14,14,,,,,,,,170.91878019995056,None,"['k', 'r', 'e', 'm', 'p']",1,"[0.8643215999472886, 1.032405799953267, 1.0803282000124454, 1.1763830999843776, 1.4723753998987377]",170.91878019995056,None,170.91865637009033,None,,,,,,,,,,,,s278_02232024,001,2024-02-23_12h35.53.210,test_typingtask_norepeats,2020.2.10,59.97285623218238,
about,about,,,,,0,15,15,15,,,,,,,,176.4188347000163,None,"['a', 'b', 'o', 'u', 't']",1,"[0.6043549999594688, 0.7163635001052171, 0.9964306000620127, 1.1242961999960244, 1.2362367999739945]",176.4188347000163,None,176.41867016996258,None,,,,,,,,,,,,s278_02232024,001,2024-02-23_12h35.53.210,test_typingtask_norepeats,2020.2.10,59.97285623218238,
think,think,,,,,0,16,16,16,,,,,,,,181.91882250015624,None,"['t', 'h', 'a', 'i', 'n', 'k']",0,"[0.6403330999892205, 0.8402939999941736, 1.0243035999592394, 1.7764948999974877, 1.9203546999488026, 1.984500200022012]",181.91882250015624,None,181.91874877009542,None,,,,,,,,,,,,s278_02232024,001,2024-02-23_12h35.53.210,test_typingtask_norepeats,2020.2.10,59.97285623218238,
zibja,zibja,,,,,0,17,17,17,,,,,,,,187.41880200011656,None,"['z', 'i', 'b', 'j', 'a']",1,"[1.6042766000609845, 1.8283082998823375, 2.012269000057131, 3.4203595998696983, 3.460376000031829]",187.41880200011656,None,187.41871426994913,None,,,,,,,,,,,,s278_02232024,001,2024-02-23_12h35.53.210,test_typingtask_norepeats,2020.2.10,59.97285623218238,
vodka,vodka,,,,,0,18,18,18,,,,,,,,192.91880880016834,None,"['v', 'o', 'd', 'k', 'a']",1,"[1.1442908002063632, 2.040410300018266, 2.1123714002314955, 2.240404700161889, 2.2962269000709057]",192.91880880016834,None,192.91873387009838,None,,,,,,,,,,,,s278_02232024,001,2024-02-23_12h35.53.210,test_typingtask_norepeats,2020.2.10,59.97285623218238,
zibja,zibja,,,,,0,19,19,19,,,,,,,,198.41882120002992,None,"['z', 'i', 'j', 'a']",0,"[1.3962117000482976, 1.5643655001185834, 2.2685186001472175, 2.3243257000576705]",198.41882120002992,None,198.4188044701703,None,,,,,,,,,,,,s278_02232024,001,2024-02-23_12h35.53.210,test_typingtask_norepeats,2020.2.10,59.97285623218238,
heond,heond,,,,,0,20,20,20,,,,,,,,203.91886780015193,None,"['h', 'e', 'o', 'n', 'd']",1,"[1.0402069999836385, 1.2005772001575679, 1.6802229001186788, 1.824181200005114, 1.9122455001343042]",203.91886780015193,None,203.91878547002563,None,,,,,,,,,,,,s278_02232024,001,2024-02-23_12h35.53.210,test_typingtask_norepeats,2020.2.10,59.97285623218238,
haole,haole,,,,,0,21,21,21,,,,,,,,209.4189021999482,None,"['h', 'a', 'o', 'l', 'e']",1,"[0.8682399000972509, 0.9482293000910431, 1.076127199921757, 1.2681497000157833, 1.3323073000647128]",209.4189021999482,None,209.4187889701687,None,,,,,,,,,,,,s278_02232024,001,2024-02-23_12h35.53.210,test_typingtask_norepeats,2020.2.10,59.97285623218238,
buddy,buddy,,,,,0,22,22,22,,,,,,,,214.91884419997223,None,"['b', 'u', 'd', 'd', 'y']",1,"[0.760218600044027, 0.9202944000717252, 1.0722024999558926, 1.2161531001329422, 1.3123073999304324]",214.91884419997223,None,214.91874317005278,None,,,,,,,,,,,,s278_02232024,001,2024-02-23_12h35.53.210,test_typingtask_norepeats,2020.2.10,59.97285623218238,
lucky,lucky,,,,,0,23,23,23,,,,,,,,220.4189051000867,None,"['l', 'u', 'c', 'k', 'y']",1,"[1.068245599977672, 1.2522106999531388, 1.3321050000377, 1.444112499943003, 1.6921273998450488]",220.4189051000867,None,220.41875387001784,None,,,,,,,,,,,,s278_02232024,001,2024-02-23_12h35.53.210,test_typingtask_norepeats,2020.2.10,59.97285623218238,
edthe,edthe,,,,,0,24,24,24,,,,,,,,225.91892830003053,None,"['e', 'd', 't', 'h', 'e']",1,"[1.4641128000803292, 2.160132999997586, 2.3921010999474674, 2.4882181000430137, 2.576037500053644]",225.91892830003053,None,225.9188181701582,None,,,,,,,,,,,,s278_02232024,001,2024-02-23_12h35.53.210,test_typingtask_norepeats,2020.2.10,59.97285623218238,
puppy,puppy,,,,,0,25,25,25,,,,,,,,231.41895670001395,None,"['p', 'u', 'p', 'p', 'y']",1,"[1.9080684001091868, 2.228095500031486, 2.475994799984619, 2.652072299970314, 2.900455499999225]",231.41895670001395,None,231.41880886997097,None,,,,,,,,,,,,s278_02232024,001,2024-02-23_12h35.53.210,test_typingtask_norepeats,2020.2.10,59.97285623218238,
pykka,pykka,,,,,0,26,26,26,,,,,,,,236.91897460003383,None,"['p', 'y', 'k', 'k', 'a']",1,"[1.3120935000479221, 1.4641522001475096, 1.840163700049743, 1.9440322001464665, 2.0560101000592113]",236.91897460003383,None,236.9188574701082,None,,,,,,,,,,,,s278_02232024,001,2024-02-23_12h35.53.210,test_typingtask_norepeats,2020.2.10,59.97285623218238,
about,about,,,,,0,27,27,27,,,,,,,,242.41898209997453,None,"['a', 'b', 'u', 't']",0,"[0.6120756000746042, 0.6920262000057846, 0.9721244999673218, 1.8122648000717163]",242.41898209997453,None,242.4188522700686,None,,,,,,,,,,,,s278_02232024,001,2024-02-23_12h35.53.210,test_typingtask_norepeats,2020.2.10,59.97285623218238,
theme,theme,,,,,0,28,28,28,,,,,,,,247.91903300001286,None,"['t', 'h', 'e', 'm', 'e']",1,"[0.7120139999315143, 0.8161802999675274, 0.9682299999985844, 1.367987500037998, 1.4959241000469774]",247.91903300001286,None,247.91888656998054,None,,,,,,,,,,,,s278_02232024,001,2024-02-23_12h35.53.210,test_typingtask_norepeats,2020.2.10,59.97285623218238,
therm,therm,,,,,0,29,29,29,,,,,,,,253.4190255999565,None,"['t', 'h', 'e', 'm']",0,"[0.6280863999854773, 0.7239353999029845, 0.8120410998817533, 0.9720383000094444]",253.4190255999565,None,253.41886686994695,None,,,,,,,,,,,,s278_02232024,001,2024-02-23_12h35.53.210,test_typingtask_norepeats,2020.2.10,59.97285623218238,
think,think,,,,,0,30,30,30,,,,,,,,258.91904620011337,None,"['t', 'h', 'i', 'n', 'k']",1,"[0.6399997998960316, 0.7519444997888058, 0.8479570997878909, 1.032006099820137, 1.1120186999905854]",258.91904620011337,None,258.9189205700066,None,,,,,,,,,,,,s278_02232024,001,2024-02-23_12h35.53.210,test_typingtask_norepeats,2020.2.10,59.97285623218238,
kremp,kremp,,,,,0,31,31,31,,,,,,,,264.4190645001363,None,"['k', 'r', 'e', 'm', 'p']",1,"[0.7479483000934124, 0.8999147999566048, 0.9640283999033272, 1.0358845998998731, 1.2200454999692738]",264.4190645001363,None,264.4189223700203,264.51907339994796,,,,,,,,,,,,s278_02232024,001,2024-02-23_12h35.53.210,test_typingtask_norepeats,2020.2.10,59.97285623218238,
champ,champ,,,,,0,32,32,32,,,,,,,,269.91910030017607,None,"['c', 'h', 'a', 'm', 'o', 'p']",0,"[0.6879557000938803, 0.7920842999592423, 0.8080295000690967, 1.05589530011639, 1.5359037001617253, 2.487942500039935]",269.91910030017607,None,269.9189392700326,270.01910810009576,,,,,,,,,,,,s278_02232024,001,2024-02-23_12h35.53.210,test_typingtask_norepeats,2020.2.10,59.97285623218238,
there,there,,,,,0,33,33,33,,,,,,,,275.4191115000285,None,"['t', 'h', 'e', 'r', 'e']",1,"[0.6198998999316245, 0.7879985000472516, 0.9318806000519544, 1.0198806999251246, 1.139923800015822]",275.4191115000285,None,275.41895257001744,275.51913779997267,,,,,,,,,,,,s278_02232024,001,2024-02-23_12h35.53.210,test_typingtask_norepeats,2020.2.10,59.97285623218238,
lucky,lucky,,,,,0,34,34,34,,,,,,,,280.91929850005545,None,"['l', 'u', 'c', 'k', 'y']",1,"[1.2636901999358088, 1.487674199976027, 1.5598967999685556, 1.687701900023967, 1.8396815999876708]",280.91929850005545,None,280.9189736700617,281.01912930002436,,,,,,,,,,,,s278_02232024,001,2024-02-23_12h35.53.210,test_typingtask_norepeats,2020.2.10,59.97285623218238,
faqir,faqir,,,,,0,35,35,35,,,,,,,,286.4191545001231,None,"['f', 'a', 'q', 'i', 'r']",1,"[0.915981899946928, 1.4600103998091072, 2.363846799824387, 2.5719522999133915, 2.6358005998190492]",286.4191545001231,None,286.41902987002396,286.5191592001356,,,,,,,,,,,,s278_02232024,001,2024-02-23_12h35.53.210,test_typingtask_norepeats,2020.2.10,59.97285623218238,
vanru,vanru,,,,,0,36,36,36,,,,,,,,291.9191455000546,None,"['v', 'a', 'n', 'r', 'u']",1,"[0.9118466000072658, 0.9919453000184149, 1.1201174999587238, 1.2398109000641853, 1.3918641998898238]",291.9191455000546,None,291.91905887001195,292.0191753001418,,,,,,,,,,,,s278_02232024,001,2024-02-23_12h35.53.210,test_typingtask_norepeats,2020.2.10,59.97285623218238,
faqir,faqir,,,,,0,37,37,37,,,,,,,,297.4192223001737,None,"['f', 'a', 'w', 'i', 'r']",0,"[0.9797841000836343, 1.2357111000455916, 1.58773160004057, 1.900023499969393, 2.027852199971676]",297.4192223001737,None,297.41907497001813,297.51917830016464,,,,,,,,,,,,s278_02232024,001,2024-02-23_12h35.53.210,test_typingtask_norepeats,2020.2.10,59.97285623218238,
tithe,tithe,,,,,0,38,38,38,,,,,,,,302.91921310010366,None,"['t', 'i', 't', 'h', 'e']",1,"[1.2237714000511914, 1.3677747999317944, 1.5039125001057982, 1.6717987000010908, 1.7756904000416398]",302.91921310010366,None,302.91909847008066,None,,,,,,,,,,,,s278_02232024,001,2024-02-23_12h35.53.210,test_typingtask_norepeats,2020.2.10,59.97285623218238,
edthe,edthe,,,,,0,39,39,39,,,,,,,,308.4192282001022,None,"['e', 'd', 't', 'h', 'e']",1,"[1.7158316001296043, 1.779819600051269, 2.0437469999305904, 2.13190110004507, 2.219707600073889]",308.4192282001022,None,308.4191187701188,None,,,,,,,,,,,,s278_02232024,001,2024-02-23_12h35.53.210,test_typingtask_norepeats,2020.2.10,59.97285623218238,
haole,haole,,,,,0,40,40,40,,,,,,,,313.9192348001525,None,"['h', 'a', 'o', 'l', 'e']",1,"[0.9117371998727322, 1.0318400000687689, 1.4237080998718739, 1.6078291998710483, 1.6638285999651998]",313.9192348001525,None,313.91912417015993,None,,,,,,,,,,,,s278_02232024,001,2024-02-23_12h35.53.210,test_typingtask_norepeats,2020.2.10,59.97285623218238,
puppy,puppy,,,,,0,41,41,41,,,,,,,,319.41924110008404,None,"['o', 'u', 'u', 'o', 'y']",0,"[0.9798812000080943, 1.1636942001059651, 1.8677282000426203, 2.1557720000855625, 2.419684699969366]",319.41924110008404,None,319.41915996996687,None,,,,,,,,,,,,s278_02232024,001,2024-02-23_12h35.53.210,test_typingtask_norepeats,2020.2.10,59.97285623218238,
belly,belly,,,,,0,42,42,42,,,,,,,,324.9193019999657,None,"['b', 'e', 'l', 'l', 'y']",1,"[0.8876591001171619, 0.9996829000301659, 1.7836738000623882, 1.95964469993487, 2.031631800113246]",324.9193019999657,None,324.91918337014505,None,,,,,,,,,,,,s278_02232024,001,2024-02-23_12h35.53.210,test_typingtask_norepeats,2020.2.10,59.97285623218238,
druze,druze,,,,,0,43,43,43,,,,,,,,330.41930439998396,None,"['d', 'r', 'u', 'z', 'e']",1,"[1.3716829000040889, 1.5636421998497099, 1.7317492999136448, 2.035640300018713, 2.2197430999949574]",330.41930439998396,None,330.41920586996713,None,,,,,,,,,,,,s278_02232024,001,2024-02-23_12h35.53.210,test_typingtask_norepeats,2020.2.10,59.97285623218238,
haole,haole,,,,,0,44,44,44,,,,,,,,335.9193434000481,None,"['h', 'a', 'o', 'l', 'e']",1,"[0.9596293000504375, 1.0397376001346856, 1.207642300054431, 1.4235943001694977, 1.4875794001854956]",335.9193434000481,None,335.9192219699733,None,,,,,,,,,,,,s278_02232024,001,2024-02-23_12h35.53.210,test_typingtask_norepeats,2020.2.10,59.97285623218238,
champ,champ,,,,,0,45,45,45,,,,,,,,341.41936910012737,None,"['c', 'h', 'a', 'm', 'p']",1,"[1.0997695000842214, 1.2115511000156403, 1.2997447000816464, 1.4355796999298036, 2.4276318999473006]",341.41936910012737,None,341.4192528700922,None,,,,,,,,,,,,s278_02232024,001,2024-02-23_12h35.53.210,test_typingtask_norepeats,2020.2.10,59.97285623218238,
theme,theme,,,,,0,46,46,46,,,,,,,,346.9194184001535,None,"['t', 'h', 'e', 'm', 'e']",1,"[0.6956140000838786, 0.8074877001345158, 0.935445100069046, 1.0554567000363022, 1.1754521999973804]",346.9194184001535,None,346.91925687012264,None,,,,,,,,,,,,s278_02232024,001,2024-02-23_12h35.53.210,test_typingtask_norepeats,2020.2.10,59.97285623218238,
there,there,,,,,0,47,47,47,,,,,,,,352.4193739001639,None,"['t', 'h', 'e', 'r', 'e']",1,"[0.6755404998548329, 0.7796543999575078, 0.9315329000819474, 1.0116329998709261, 1.1315343999303877]",352.4193739001639,None,352.4193000699859,None,,,,,,,,,,,,s278_02232024,001,2024-02-23_12h35.53.210,test_typingtask_norepeats,2020.2.10,59.97285623218238,
pykka,pykka,,,,,0,48,48,48,,,,,,,,357.9194072999526,None,"['o', 'y', 'k', 'k', 'a']",0,"[1.2715404001064599, 1.5995368999429047, 2.0156012000516057, 2.1516003001015633, 2.2316384001169354]",357.9194072999526,None,357.91931556998753,None,,,,,,,,,,,,s278_02232024,001,2024-02-23_12h35.53.210,test_typingtask_norepeats,2020.2.10,59.97285623218238,
champ,champ,,,,,0,49,49,49,,,,,,,,363.41945690009743,None,"['c', 'h', 'a', 'm', 'p']",1,"[0.9394787000492215, 1.0354303000494838, 1.1315532000735402, 1.2840364000294358, 1.53948469995521]",363.41945690009743,None,363.41933937016876,None,,,,,,,,,,,,s278_02232024,001,2024-02-23_12h35.53.210,test_typingtask_norepeats,2020.2.10,59.97285623218238,
vanru,vanru,,,,,0,50,50,50,,,,,,,,368.91947080008686,None,"['v', 'a', 'n', 'r', 'u']",1,"[1.015552300028503, 1.0874499999918044, 1.2074372000060976, 1.3116746000014246, 1.4395657998975366]",368.91947080008686,None,368.91932487017476,None,,,,,,,,,,,,s278_02232024,001,2024-02-23_12h35.53.210,test_typingtask_norepeats,2020.2.10,59.97285623218238,
pykka,pykka,,,,,0,51,51,51,,,,,,,,374.419462100137,None,"['p', 'y', 'k', 'k', 'a']",1,"[1.6355614000931382, 1.9954471001401544, 2.363466300070286, 2.4835514000151306, 2.571586800040677]",374.419462100137,None,374.41938257003204,None,,,,,,,,,,,,s278_02232024,001,2024-02-23_12h35.53.210,test_typingtask_norepeats,2020.2.10,59.97285623218238,
druze,druze,,,,,0,52,52,52,,,,,,,,379.91953260009177,None,"['d', 'r', 'u', 'z', 'e']",1,"[1.1113803999032825, 1.287481299834326, 1.8873794998507947, 2.087489199824631, 2.287354900036007]",379.91953260009177,None,379.91940997000785,None,,,,,,,,,,,,s278_02232024,001,2024-02-23_12h35.53.210,test_typingtask_norepeats,2020.2.10,59.97285623218238,
theme,theme,,,,,0,53,53,53,,,,,,,,385.4195731000509,None,"['t', 'h', 'e', 'm', 'e']",1,"[0.6754267001524568, 0.803331500152126, 0.9073523001279682, 1.0514360000379384, 1.1475973001215607]",385.4195731000509,None,385.4194266700186,None,,,,,,,,,,,,s278_02232024,001,2024-02-23_12h35.53.210,test_typingtask_norepeats,2020.2.10,59.97285623218238,
cheer,cheer,,,,,0,54,54,54,,,,,,,,390.91959060006775,None,"['c', 'h', 'e', 'e', 'r']",1,"[0.6073330000508577, 0.7034760999958962, 0.8312951999250799, 0.9752611999865621, 1.095259399851784]",390.91959060006775,None,390.919426070014,None,,,,,,,,,,,,s278_02232024,001,2024-02-23_12h35.53.210,test_typingtask_norepeats,2020.2.10,59.97285623218238,
belly,belly,,,,,0,55,55,55,,,,,,,,396.419572400162,None,"['b', 'e', 'l', 'l', 'y']",1,"[0.7475517999846488, 0.8514383998699486, 1.2992483000271022, 1.4514224999584258, 1.5474580998998135]",396.419572400162,None,396.4194437700324,None,,,,,,,,,,,,s278_02232024,001,2024-02-23_12h35.53.210,test_typingtask_norepeats,2020.2.10,59.97285623218238,
puppy,puppy,,,,,0,56,56,56,,,,,,,,401.9196218000725,None,"['p', 'u', 'u', 'p', 'p', 'y']",0,"[1.055271300021559, 1.3272409001365304, 1.487362600164488, 2.151267600012943, 2.495336400112137, 2.647303899982944]",401.9196218000725,None,401.91946747009644,None,,,,,,,,,,,,s278_02232024,001,2024-02-23_12h35.53.210,test_typingtask_norepeats,2020.2.10,59.97285623218238,
tithe,tithe,,,,,0,57,57,57,,,,,,,,407.4196479001548,None,"['t', 'i', 't', 'h', 'e']",1,"[0.8192894000094384, 1.0992198002059013, 1.2751821000128984, 1.4032020000740886, 1.4832859002053738]",407.4196479001548,None,407.419493969949,None,,,,,,,,,,,,s278_02232024,001,2024-02-23_12h35.53.210,test_typingtask_norepeats,2020.2.10,59.97285623218238,
theme,theme,,,,,0,58,58,58,,,,,,,,412.92039470002055,None,"['t', 'h', 'e', 'm', 'e']",1,"[0.7744800001382828, 0.9106386001221836, 1.0625182001385838, 1.2144274001475424, 1.2944446001201868]",412.92039470002055,None,412.9195559699554,None,,,,,,,,,,,,s278_02232024,001,2024-02-23_12h35.53.210,test_typingtask_norepeats,2020.2.10,59.97285623218238,
would,would,,,,,0,59,59,59,,,,,,,,418.4197168000974,None,"['w', 'o', 'u', 'l', 'd']",1,"[0.6911658998578787, 0.8592461999505758, 0.9471912998706102, 1.4672566999215633, 1.6272539999336004]",418.4197168000974,None,418.41958487005905,None,,,,,,,,,,,,s278_02232024,001,2024-02-23_12h35.53.210,test_typingtask_norepeats,2020.2.10,59.97285623218238,
cheer,cheer,,,,,0,60,60,60,,,,,,,,423.91977789998055,None,"['c', 'h', 'e', 'e', 'r']",1,"[0.5910880002193153, 0.7030888001900166, 0.8149854000657797, 0.9591685000341386, 1.0791302002035081]",423.91977789998055,None,423.91963557009586,None,,,,,,,,,,,,s278_02232024,001,2024-02-23_12h35.53.210,test_typingtask_norepeats,2020.2.10,59.97285623218238,
druze,druze,,,,,0,61,61,61,,,,,,,,429.41973419999704,None,"['d', 'r', 'u', 'z', 'e']",1,"[0.9711591999512166, 1.1391205000691116, 1.3871738999150693, 1.7792968000285327, 1.955082500120625]",429.41973419999704,None,429.4196421701461,None,,,,,,,,,,,,s278_02232024,001,2024-02-23_12h35.53.210,test_typingtask_norepeats,2020.2.10,59.97285623218238,
therm,therm,,,,,0,62,62,62,,,,,,,,434.919763199985,None,"['t', 'h', 'e', 'r', 'm', 'space']",0,"[0.6711067000869662, 0.8150404000189155, 0.9111878999974579, 0.9675894000101835, 1.0550321999471635, 1.2072340999729931]",434.919763199985,None,434.91966346995906,None,,,,,,,,,,,,s278_02232024,001,2024-02-23_12h35.53.210,test_typingtask_norepeats,2020.2.10,59.97285623218238,
puppy,puppy,,,,,0,63,63,63,,,,,,,,440.4197925000917,None,"['p', 'u', 'p', 'p', 'y']",1,"[1.5390790000092238, 1.8190488000400364, 2.0510499000083655, 2.2350441000889987, 2.434992300113663]",440.4197925000917,None,440.4196700700093,None,,,,,,,,,,,,s278_02232024,001,2024-02-23_12h35.53.210,test_typingtask_norepeats,2020.2.10,59.97285623218238,
cooed,cooed,,,,,0,64,64,64,,,,,,,,445.9198195000645,None,"['c', 'o', 'o', 'e', 'd']",1,"[0.8070507999509573, 0.9510416998527944, 1.0871127999853343, 1.199126899940893, 1.3670448998454958]",445.9198195000645,None,445.9197319701314,None,,,,,,,,,,,,s278_02232024,001,2024-02-23_12h35.53.210,test_typingtask_norepeats,2020.2.10,59.97285623218238,
vodka,vodka,,,,,0,65,65,65,,,,,,,,451.4198406001087,None,"['v', 'o', 'd', 'k', 'a']",1,"[0.923008400015533, 1.130998299922794, 1.9230173998512328, 2.0429805999156088, 2.091220999835059]",451.4198406001087,None,451.4197679701727,None,,,,,,,,,,,,s278_02232024,001,2024-02-23_12h35.53.210,test_typingtask_norepeats,2020.2.10,59.97285623218238,
about,about,,,,,0,66,66,66,,,,,,,,456.9198618000373,None,"['a', 'b', 'o', 'u', 't']",1,"[0.6390259000472724, 0.7350697999354452, 0.974909899989143, 1.0949323999229819, 1.2230749998707324]",456.9198618000373,None,456.91975926999004,None,,,,,,,,,,,,s278_02232024,001,2024-02-23_12h35.53.210,test_typingtask_norepeats,2020.2.10,59.97285623218238,
zibja,zibja,,,,,0,67,67,67,,,,,,,,462.41990980017,None,"['z', 'i', 'b', 'j', 'a']",1,"[1.2269490000326186, 1.4109059998299927, 1.6349130999296904, 2.0029010998550802, 2.090907800011337]",462.41990980017,None,462.4197419699747,None,,,,,,,,,,,,s278_02232024,001,2024-02-23_12h35.53.210,test_typingtask_norepeats,2020.2.10,59.97285623218238,
cheer,cheer,,,,,0,68,68,68,,,,,,,,467.9199214000255,None,"['c', 'h', 'e', 'e', 'r']",1,"[1.190916399937123, 1.2709701000712812, 1.4068837999366224, 1.5748407999053597, 1.6548436000011861]",467.9199214000255,None,467.9197637701407,None,,,,,,,,,,,,s278_02232024,001,2024-02-23_12h35.53.210,test_typingtask_norepeats,2020.2.10,59.97285623218238,
buddy,buddy,,,,,0,69,69,69,,,,,,,,473.419925800059,None,"['b', 'u', 'd', 'd', 'y']",1,"[0.7791836000978947, 0.9230053001083434, 1.0429257000796497, 1.1788745999801904, 1.323015500092879]",473.419925800059,None,473.4198333699722,None,,,,,,,,,,,,s278_02232024,001,2024-02-23_12h35.53.210,test_typingtask_norepeats,2020.2.10,59.97285623218238,
lucky,lucky,,,,,0,70,70,70,,,,,,,,478.91993650002405,None,"['l', 'u', 'c', 'k', 'y']",1,"[0.7670470001176, 0.9589842001441866, 1.0548194001894444, 1.1748657000716776, 1.3588626000564545]",478.91993650002405,None,478.9198585701641,None,,,,,,,,,,,,s278_02232024,001,2024-02-23_12h35.53.210,test_typingtask_norepeats,2020.2.10,59.97285623218238,
belly,belly,,,,,0,71,71,71,,,,,,,,484.4199993000366,None,"['b', 'e', 'l', 'l', 'y']",1,"[0.6908241999335587, 0.8027745999861509, 1.6588186998851597, 1.8188225999474525, 1.9147324999794364]",484.4199993000366,None,484.41988086998464,None,,,,,,,,,,,,s278_02232024,001,2024-02-23_12h35.53.210,test_typingtask_norepeats,2020.2.10,59.97285623218238,
zibja,zibja,,,,,0,72,72,72,,,,,,,,489.92004100000486,None,"['z', 'i', 'b', 'j', 'a']",1,"[1.0307905001100153, 1.1510650999844074, 1.326880499953404, 1.4867448001168668, 1.5670298000331968]",489.92004100000486,None,489.9199175701477,None,,,,,,,,,,,,s278_02232024,001,2024-02-23_12h35.53.210,test_typingtask_norepeats,2020.2.10,59.97285623218238,
buddy,buddy,,,,,0,73,73,73,,,,,,,,495.4200745001435,None,"['b', 'u', 'd', 'd', 'y']",1,"[0.8907375000417233, 1.0107064000330865, 1.1307092001661658, 1.2828736000228673, 1.378713299985975]",495.4200745001435,None,495.4199291700032,None,,,,,,,,,,,,s278_02232024,001,2024-02-23_12h35.53.210,test_typingtask_norepeats,2020.2.10,59.97285623218238,
think,think,,,,,0,74,74,74,,,,,,,,500.9200424000155,None,"['t', 'h', 'i', 'n', 'k']",1,"[0.6867656998801976, 0.8146776999346912, 0.8708550999872386, 1.086733999894932, 1.1828624999616295]",500.9200424000155,None,500.91996627016925,None,,,,,,,,,,,,s278_02232024,001,2024-02-23_12h35.53.210,test_typingtask_norepeats,2020.2.10,59.97285623218238,
heond,heond,,,,,0,75,75,75,,,,,,,,506.42008369998075,None,"['h', 'e', 'o', 'n', 'd']",1,"[0.7949600999709219, 0.9068107998464257, 1.0106787998229265, 1.1629585998598486, 1.2507483998779207]",506.42008369998075,None,506.4199891699944,None,,,,,,,,,,,,s278_02232024,001,2024-02-23_12h35.53.210,test_typingtask_norepeats,2020.2.10,59.97285623218238,
buddy,buddy,,,,,0,76,76,76,,,,,,,,511.92010210012086,None,"['b', 'u', 'd', 'd', 'y']",1,"[0.7107263000216335, 0.8546315000858158, 0.9906582999974489, 1.1266650999896228, 1.246726900106296]",511.92010210012086,None,511.92002187012696,None,,,,,,,,,,,,s278_02232024,001,2024-02-23_12h35.53.210,test_typingtask_norepeats,2020.2.10,59.97285623218238,
champ,champ,,,,,0,77,77,77,,,,,,,,517.4201297000982,None,"['c', 'h', 'a', 'm']",0,"[0.6266659998800606, 0.7388358998578042, 0.8587697998154908, 1.0027524998877198]",517.4201297000982,None,517.4200422700494,517.5201511001214,,,,,,,,,,,,s278_02232024,001,2024-02-23_12h35.53.210,test_typingtask_norepeats,2020.2.10,59.97285623218238,
therm,therm,,,,,0,78,78,78,,,,,,,,522.920143000083,None,"['t', 'h', 'e', 'r', 'm']",1,"[0.9826472999993712, 1.078779499977827, 1.190633999882266, 1.230747199850157, 1.350754699902609]",522.920143000083,None,522.9200778700877,None,,,,,,,,,,,,s278_02232024,001,2024-02-23_12h35.53.210,test_typingtask_norepeats,2020.2.10,59.97285623218238,
druze,druze,,,,,0,79,79,79,,,,,,,,528.4202962000854,None,"['d', 'r', 'u', 'e']",0,"[0.8744929998647422, 1.0906286998651922, 1.2904659998603165, 1.8424741998314857]",528.4202962000854,None,528.4200547700282,None,,,,,,,,,,,,s278_02232024,001,2024-02-23_12h35.53.210,test_typingtask_norepeats,2020.2.10,59.97285623218238,
about,about,,,,,0,80,80,80,,,,,,,,533.9202306000516,None,"['a', 'b', 'o', 'u', 't']",1,"[1.0785477000754327, 1.1986829000525177, 1.3905346998944879, 1.4465194998774678, 1.5585131999105215]",533.9202306000516,None,533.920086370036,None,,,,,,,,,,,,s278_02232024,001,2024-02-23_12h35.53.210,test_typingtask_norepeats,2020.2.10,59.97285623218238,
would,would,,,,,0,81,81,81,,,,,,,,539.4202261001337,None,"['w', 'o', 'u', 'l', 'd']",1,"[0.618506700033322, 0.7705125999636948, 0.8426461999770254, 0.994486500043422, 1.1066926999483258]",539.4202261001337,None,539.420153570082,None,,,,,,,,,,,,s278_02232024,001,2024-02-23_12h35.53.210,test_typingtask_norepeats,2020.2.10,59.97285623218238,
about,about,,,,,0,82,82,82,,,,,,,,544.9202874000184,None,"['a', 'b', 'o', 'u', 't']",1,"[0.5344726000912488, 0.6467804000712931, 0.8544987000059336, 0.8946031001396477, 1.0466061001643538]",544.9202874000184,None,544.920213469956,None,,,,,,,,,,,,s278_02232024,001,2024-02-23_12h35.53.210,test_typingtask_norepeats,2020.2.10,59.97285623218238,
tithe,tithe,,,,,0,83,83,83,,,,,,,,550.4203176000156,None,"['t', 'i', 't', 'h', 'e']",1,"[1.322442299919203, 1.4744068998843431, 1.5624563000164926, 1.6824131000321358, 1.746436000103131]",550.4203176000156,None,550.4201950700487,None,,,,,,,,,,,,s278_02232024,001,2024-02-23_12h35.53.210,test_typingtask_norepeats,2020.2.10,59.97285623218238,
vanru,vanru,,,,,0,84,84,84,,,,,,,,555.9203425999731,None,"['v', 'a', 'n', 'r', 'u']",1,"[0.9984173998236656, 1.1985011999495327, 1.3985011999029666, 1.5823855998460203, 1.7105264000128955]",555.9203425999731,None,555.9202142699621,None,,,,,,,,,,,,s278_02232024,001,2024-02-23_12h35.53.210,test_typingtask_norepeats,2020.2.10,59.97285623218238,
kremp,kremp,,,,,0,85,85,85,,,,,,,,561.4203638001345,None,"['k', 'r', 'e', 'm', 'p']",1,"[1.210391400149092, 1.3143098000437021, 1.3706211000680923, 1.4903745001647621, 1.642495300155133]",561.4203638001345,None,561.4202401700429,None,,,,,,,,,,,,s278_02232024,001,2024-02-23_12h35.53.210,test_typingtask_norepeats,2020.2.10,59.97285623218238,
puppy,puppy,,,,,0,86,86,86,,,,,,,,566.920397200156,None,"['p', 'u', 'p', 'p', 'y']",1,"[1.646395399933681, 1.9103794998954982, 2.1825156998820603, 2.3823007999453694, 2.79832569998689]",566.920397200156,None,566.9202592700719,None,,,,,,,,,,,,s278_02232024,001,2024-02-23_12h35.53.210,test_typingtask_norepeats,2020.2.10,59.97285623218238,
vodka,vodka,,,,,0,87,87,87,,,,,,,,572.4204574001487,None,"['v', 'o', 'd', 'k', 'a']",1,"[0.9783085999079049, 1.8742823998909444, 1.9622890998143703, 2.1142616998404264, 2.170255099888891]",572.4204574001487,None,572.4203133701346,None,,,,,,,,,,,,s278_02232024,001,2024-02-23_12h35.53.210,test_typingtask_norepeats,2020.2.10,59.97285623218238,
would,would,,,,,0,88,88,88,,,,,,,,577.9204343000893,None,"['w', 'o', 'u', 'l', 'd']",1,"[0.6943720001727343, 0.8304190000053495, 0.8942924002185464, 1.1023090002126992, 1.1903089000843465]",577.9204343000893,None,577.920381769957,None,,,,,,,,,,,,s278_02232024,001,2024-02-23_12h35.53.210,test_typingtask_norepeats,2020.2.10,59.97285623218238,
zibja,zibja,,,,,0,89,89,89,,,,,,,,583.4205406000838,None,"['z', 'i', 'b', 'j', 'a']",1,"[1.4742113000247627, 1.6262556998990476, 1.8342879998963326, 1.9861697000451386, 2.082266699988395]",583.4205406000838,None,583.4204086700454,None,,,,,,,,,,,,s278_02232024,001,2024-02-23_12h35.53.210,test_typingtask_norepeats,2020.2.10,59.97285623218238,
cooed,cooed,,,,,0,90,90,90,,,,,,,,588.9205063001718,None,"['c', 'o', 'o', 'e', 'd']",1,"[0.9262605998665094, 1.0941918999888003, 1.246236199978739, 1.3583032998722047, 1.5102215998340398]",588.9205063001718,None,588.920405470021,None,,,,,,,,,,,,s278_02232024,001,2024-02-23_12h35.53.210,test_typingtask_norepeats,2020.2.10,59.97285623218238,
heond,heond,,,,,0,91,91,91,,,,,,,,594.4206191000994,None,"['h', 'e', 'o', 'n', 'd']",1,"[0.8021798999980092, 0.9621276999823749, 1.0661194999702275, 1.2180904000997543, 1.2981203999370337]",594.4206191000994,None,594.4204596699681,None,,,,,,,,,,,,s278_02232024,001,2024-02-23_12h35.53.210,test_typingtask_norepeats,2020.2.10,59.97285623218238,
kremp,kremp,,,,,0,92,92,92,,,,,,,,599.9206312999595,None,"['k', 'r', 'e', 'm', 'o', 'p']",0,"[1.2061666999943554, 1.3261014998424798, 1.3739799000322819, 1.478009699843824, 1.6060452000238001, 3.2300890998449177]",599.9206312999595,None,599.9205134701449,None,,,,,,,,,,,,s278_02232024,001,2024-02-23_12h35.53.210,test_typingtask_norepeats,2020.2.10,59.97285623218238,
lucky,lucky,,,,,0,93,93,93,,,,,,,,605.4206692001317,None,"['l', 'u', 'c', 'k', 'y']",1,"[0.8420877000316978, 1.0101449999492615, 1.0900938999839127, 1.2100641999859363, 1.4020871999673545]",605.4206692001317,None,605.4205911701545,None,,,,,,,,,,,,s278_02232024,001,2024-02-23_12h35.53.210,test_typingtask_norepeats,2020.2.10,59.97285623218238,
pykka,pykka,,,,,0,94,94,94,,,,,,,,610.9207016001455,None,"['p', 'y', 'k', 'k', 'a']",1,"[1.1500158000271767, 1.4380169999785721, 1.6460000998340547, 1.7739929999224842, 1.8700452998746186]",610.9207016001455,None,610.9205895701423,None,,,,,,,,,,,,s278_02232024,001,2024-02-23_12h35.53.210,test_typingtask_norepeats,2020.2.10,59.97285623218238,
heond,heond,,,,,0,95,95,95,,,,,,,,616.4206858000252,None,"['h', 'e', 'o', 'n', 'd']",1,"[1.1380865001119673, 1.2658969000913203, 1.3700108001939952, 1.5621672000270337, 1.6582823002245277]",616.4206858000252,None,616.4205793700646,None,,,,,,,,,,,,s278_02232024,001,2024-02-23_12h35.53.210,test_typingtask_norepeats,2020.2.10,59.97285623218238,
faqir,faqir,,,,,0,96,96,96,,,,,,,,621.9207095000893,None,"['f', 'a', 'q', 'i', 'r']",1,"[1.181988599942997, 1.542113000061363, 1.989969100104645, 2.261919799959287, 2.4060668000020087]",621.9207095000893,None,621.9205887701362,622.0206822999753,,,,,,,,,,,,s278_02232024,001,2024-02-23_12h35.53.210,test_typingtask_norepeats,2020.2.10,59.97285623218238,
lucky,lucky,,,,,0,97,97,97,,,,,,,,627.420665099984,None,"['l', 'u', 'c', 'k', 'y']",1,"[0.9060166000854224, 1.1059868999291211, 1.1942404999863356, 1.2901201001368463, 1.441989100072533]",627.420665099984,None,627.4205785700585,627.5207764001098,,,,,,,,,,,,s278_02232024,001,2024-02-23_12h35.53.210,test_typingtask_norepeats,2020.2.10,59.97285623218238,
edthe,edthe,,,,,0,98,98,98,,,,,,,,632.9207282001153,None,"['e', 'd', 't', 'h', 'e']",1,"[0.8699773999396712, 0.9899502000771463, 1.2060414999723434, 1.3019391000270844, 1.3420490000862628]",632.9207282001153,None,632.9206179701257,633.0207363001537,,,,,,,,,,,,s278_02232024,001,2024-02-23_12h35.53.210,test_typingtask_norepeats,2020.2.10,59.97285623218238,
pykka,pykka,,,,,0,99,99,99,,,,,,,,638.4207481001504,None,"['p', 'y', 'k', 'k', 'a']",1,"[1.0899348000530154, 1.3138792999088764, 1.5059994000475854, 1.6499111000448465, 1.7460236998740584]",638.4207481001504,None,638.4206111700739,638.5207623001188,,,,,,,,,,,,s278_02232024,001,2024-02-23_12h35.53.210,test_typingtask_norepeats,2020.2.10,59.97285623218238,
haole,haole,,,,,0,100,100,100,,,,,,,,643.9207854999695,None,"['h', 'a', 'o', 'l', 'e']",1,"[0.8939062999561429, 0.9418734000064433, 1.0938254999928176, 1.293821700150147, 1.3661440000869334]",643.9207854999695,None,643.9206631700042,644.0207851000596,,,,,,,,,,,,s278_02232024,001,2024-02-23_12h35.53.210,test_typingtask_norepeats,2020.2.10,59.97285623218238,
vanru,vanru,,,,,0,101,101,101,,,,,,,,649.4207860000897,None,"['v', 'a', 'n', 'r', 'u']",1,"[1.0339760000351816, 1.1138341000769287, 1.22595029999502, 1.361928700003773, 1.4818408000282943]",649.4207860000897,None,649.420699370047,649.5208097000141,,,,,,,,,,,,s278_02232024,001,2024-02-23_12h35.53.210,test_typingtask_norepeats,2020.2.10,59.97285623218238,
there,there,,,,,0,102,102,102,,,,,,,,654.920837600017,None,"['t', 'h', 'e', 'r', 'e']",1,"[0.7580534999724478, 0.8937536999583244, 1.0379337999038398, 1.1417974000796676, 1.261917999945581]",654.920837600017,None,654.9207230701111,655.0208511999808,,,,,,,,,,,,s278_02232024,001,2024-02-23_12h35.53.210,test_typingtask_norepeats,2020.2.10,59.97285623218238,
heond,heond,,,,,0,103,103,103,,,,,,,,660.4208649001084,None,"['h', 'e', 'o', 'n', 'd']",1,"[0.7377902998123318, 0.8578464998863637, 0.9380161999724805, 1.0578852000180632, 1.1537253998685628]",660.4208649001084,None,660.4207539699971,660.5209007000085,,,,,,,,,,,,s278_02232024,001,2024-02-23_12h35.53.210,test_typingtask_norepeats,2020.2.10,59.97285623218238,
champ,champ,,,,,0,104,104,104,,,,,,,,665.9208714000415,None,"['c', 'h', 'a', 'm', 'p', 'y']",0,"[0.7417979000601918, 0.8297653999179602, 0.9417465999722481, 1.077906700083986, 1.2137064998969436, 1.3417535999324173]",665.9208714000415,None,665.9207766700536,None,,,,,,,,,,,,s278_02232024,001,2024-02-23_12h35.53.210,test_typingtask_norepeats,2020.2.10,59.97285623218238,
cheer,cheer,,,,,0,105,105,105,,,,,,,,671.4209630000405,None,"['c', 'h', 'e', 'e', 'r']",1,"[0.729689700063318, 0.8336308998987079, 0.945676299976185, 1.1136125999037176, 1.2017576000653207]",671.4209630000405,None,671.4208013701252,671.5208970999811,,,,,,,,,,,,s278_02232024,001,2024-02-23_12h35.53.210,test_typingtask_norepeats,2020.2.10,59.97285623218238,
kremp,kremp,,,,,0,106,106,106,,,,,,,,676.9209561999887,None,"['k', 'r', 'e', 'a', 'm', 'p']",0,"[0.7496986000332981, 0.9256607000716031, 0.9976788000203669, 1.0857253998983651, 1.2456513999495655, 1.6056685999501497]",676.9209561999887,None,676.920825669961,None,,,,,,,,,,,,s278_02232024,001,2024-02-23_12h35.53.210,test_typingtask_norepeats,2020.2.10,59.97285623218238,
would,would,,,,,0,107,107,107,,,,,,,,682.4209855999798,None,"['w', 'o', 'u', 'l', 'd']",1,"[0.6177385000046343, 0.7458375999704003, 0.8416472999379039, 1.0096281000878662, 1.089796599932015]",682.4209855999798,None,682.4208744700998,682.5209980001673,,,,,,,,,,,,s278_02232024,001,2024-02-23_12h35.53.210,test_typingtask_norepeats,2020.2.10,59.97285623218238,
cooed,cooed,,,,,0,108,108,108,,,,,,,,687.9209847000893,None,"['c', 'o', 'o', 'e', 'd']",1,"[0.6056413999758661, 0.749798099976033, 0.8855971000157297, 0.9898562000598758, 1.1737897999119014]",687.9209847000893,None,687.9208748701028,688.021011600038,,,,,,,,,,,,s278_02232024,001,2024-02-23_12h35.53.210,test_typingtask_norepeats,2020.2.10,59.97285623218238,
edthe,edthe,,,,,0,109,109,109,,,,,,,,693.4209959001746,None,"['e', 'd', 't', 'h', 'e']",1,"[0.753672500140965, 0.9696053001098335, 1.177608700003475, 1.2977207000367343, 1.3616291999351233]",693.4209959001746,None,693.4209201700985,693.5210600001737,,,,,,,,,,,,s278_02232024,001,2024-02-23_12h35.53.210,test_typingtask_norepeats,2020.2.10,59.97285623218238,
think,think,,,,,0,110,110,110,,,,,,,,698.9210569001734,None,"['t', 'h', 'i', 'k']",0,"[0.677562199998647, 0.8055579999927431, 0.9097362998872995, 1.1895481999963522]",698.9210569001734,None,698.9209262700285,None,,,,,,,,,,,,s278_02232024,001,2024-02-23_12h35.53.210,test_typingtask_norepeats,2020.2.10,59.97285623218238,
theme,theme,,,,,0,111,111,111,,,,,,,,704.4210829001386,None,"['t', 'h', 'e', 'm', 'e']",1,"[0.5937125999480486, 0.7055277000181377, 0.8256306000985205, 0.9534583000931889, 1.0337358999531716]",704.4210829001386,None,704.4209804699756,704.521083700005,,,,,,,,,,,,s278_02232024,001,2024-02-23_12h35.53.210,test_typingtask_norepeats,2020.2.10,59.97285623218238,
therm,therm,,,,,0,112,112,112,,,,,,,,709.9211143001448,None,"['t', 'h', 'e', 'r', 'm']",1,"[0.6694976999424398, 0.7734062999952585, 0.8616694998927414, 0.9254703000187874, 1.0215288000181317]",709.9211143001448,None,709.9209835701156,710.0211201000493,,,,,,,,,,,,s278_02232024,001,2024-02-23_12h35.53.210,test_typingtask_norepeats,2020.2.10,59.97285623218238,
cheer,cheer,,,,,0,113,113,113,,,,,,,,715.4211049999576,None,"['c', 'h', 'e', 'e', 'r']",1,"[0.625490500126034, 0.7456740001216531, 0.8416091001126915, 1.1296310001052916, 1.3375381000805646]",715.4211049999576,None,715.420984070003,715.5211724000983,,,,,,,,,,,,s278_02232024,001,2024-02-23_12h35.53.210,test_typingtask_norepeats,2020.2.10,59.97285623218238,
cooed,cooed,,,,,0,114,114,114,,,,,,,,720.9211711001117,None,"['c', 'o', 'o', 'e', 'd']",1,"[0.5574761999305338, 0.7255571999121457, 0.8615294999908656, 0.957426100037992, 1.149491999996826]",720.9211711001117,None,720.921018070029,721.0211845999584,,,,,,,,,,,,s278_02232024,001,2024-02-23_12h35.53.210,test_typingtask_norepeats,2020.2.10,59.97285623218238,
tithe,tithe,,,,,0,115,115,115,,,,,,,,726.4218755001202,None,"['t', 'i', 't', 'h', 'e']",1,"[1.0967228999361396, 1.2326527999248356, 1.360758899943903, 1.5047303000465035, 1.6167256000917405]",726.4218755001202,None,726.4210970701649,726.521522300085,,,,,,,,,,,,s278_02232024,001,2024-02-23_12h35.53.210,test_typingtask_norepeats,2020.2.10,59.97285623218238,
vanru,vanru,,,,,0,116,116,116,,,,,,,,731.9212212001439,None,"['v', 'a', 'n', 'r', 'u']",1,"[0.9733406999148428, 1.085359799908474, 1.2053429000079632, 1.3254829000215977, 1.4773623999208212]",731.9212212001439,None,731.9211043701041,732.0211950000376,,,,,,,,,,,,s278_02232024,001,2024-02-23_12h35.53.210,test_typingtask_norepeats,2020.2.10,59.97285623218238,
tithe,tithe,,,,,0,117,117,117,,,,,,,,737.4212605000939,None,"['t', 'i', 't', 'h', 'e']",1,"[0.8413329001050442, 1.00931330001913, 1.1372940000146627, 1.2892990000545979, 1.361373000079766]",737.4212605000939,None,737.4211574701592,737.5212622000836,,,,,,,,,,,,s278_02232024,001,2024-02-23_12h35.53.210,test_typingtask_norepeats,2020.2.10,59.97285623218238,
faqir,faqir,,,,,0,118,118,118,,,,,,,,742.9212395001668,None,"['f', 'a', 'q', 'i', 'r']",1,"[0.86934749991633, 1.061491800006479, 2.8534627000335604, 2.981457300018519, 3.1015331000089645]",742.9212395001668,None,742.921167670004,None,,,,,,,,,,,,s278_02232024,001,2024-02-23_12h35.53.210,test_typingtask_norepeats,2020.2.10,59.97285623218238,
cooed,cooed,,,,,0,119,119,119,,,,,,,,748.4213058000896,None,"['c', 'o', 'o', 'e', 'd']",1,"[0.6972802998498082, 0.8093967000022531, 0.945306499954313, 1.0333572998642921, 1.2013017998542637]",748.4213058000896,None,748.4211869700346,748.5213095000945,,,,,,,,,,,,s278_02232024,001,2024-02-23_12h35.53.210,test_typingtask_norepeats,2020.2.10,59.97285623218238,
think,think,,,,,,,,,0,0,0,0,,,,,,,,,,,,,753.921334200073,None,762.7050201001111,None,"['t', 'h', 'i', 'n', 'k']",1,"[0.6775466999970376, 0.7735276001039892, 0.8694994999095798, 1.0136134000495076, 1.077530600130558]",762.7050201001111,None,762.7046080701518,762.8048330000602,s278_02232024,001,2024-02-23_12h35.53.210,test_typingtask_norepeats,2020.2.10,59.97285623218238,
there,there,,,,,,,,,0,1,1,1,,,,,,,,,,,,,,,768.2047520000488,None,"['t', 'h', 'e', 'r', 'e']",1,"[0.5458226001355797, 0.6340070001315325, 0.7137872001621872, 0.7860209001228213, 0.8657811000011861]",768.2047520000488,None,768.2045885701198,None,s278_02232024,001,2024-02-23_12h35.53.210,test_typingtask_norepeats,2020.2.10,59.97285623218238,
lucky,lucky,,,,,,,,,0,2,2,2,,,,,,,,,,,,,,,773.7047884000931,None,"['l', 'u', 'c', 'k', 'y']",1,"[1.317779199918732, 1.4857361000031233, 1.5737542000133544, 1.685851200018078, 1.7897196998819709]",773.7047884000931,None,773.7046181701123,None,s278_02232024,001,2024-02-23_12h35.53.210,test_typingtask_norepeats,2020.2.10,59.97285623218238,
heond,heond,,,,,,,,,0,3,3,3,,,,,,,,,,,,,,,779.2047978001647,None,"['h', 'e', 'o', 'n', 'd']",1,"[0.7377704998943955, 0.8257464000489563, 0.9060535999014974, 0.985842099878937, 1.0657860999926925]",779.2047978001647,None,779.2046864700503,None,s278_02232024,001,2024-02-23_12h35.53.210,test_typingtask_norepeats,2020.2.10,59.97285623218238,
about,about,,,,,,,,,0,4,4,4,,,,,,,,,,,,,,,784.7048502999824,None,"['a', 'b', 'o', 'u', 't']",1,"[0.5498081999830902, 0.6296847998164594, 0.757675499888137, 0.8137473999522626, 0.8936828000005335]",784.7048502999824,None,784.7047119701281,None,s278_02232024,001,2024-02-23_12h35.53.210,test_typingtask_norepeats,2020.2.10,59.97285623218238,
puppy,puppy,,,,,,,,,0,5,5,5,,,,,,,,,,,,,,,790.2048939999659,None,"['p', 'u', 'p', 'p', 'y']",1,"[1.105646399781108, 1.2816604999825358, 1.553623299812898, 1.66575609985739, 1.9216178997885436]",790.2048939999659,None,790.2047430700156,None,s278_02232024,001,2024-02-23_12h35.53.210,test_typingtask_norepeats,2020.2.10,59.97285623218238,
pykka,pykka,,,,,,,,,0,6,6,6,,,,,,,,,,,,,,,795.7049203000497,None,"['p', 'y', 'k', 'k', 'a']",1,"[1.1175878001376987, 1.317712499992922, 2.077761000022292, 2.205589900026098, 2.341697399970144]",795.7049203000497,None,795.7047763701528,None,s278_02232024,001,2024-02-23_12h35.53.210,test_typingtask_norepeats,2020.2.10,59.97285623218238,
theme,theme,,,,,,,,,0,7,7,7,,,,,,,,,,,,,,,801.2050040999893,None,"['t', 'h', 'e', 'm', 'e']",1,"[0.6094754999503493, 0.68944579991512, 0.7694394998252392, 0.8894481998868287, 0.9454808000009507]",801.2050040999893,None,801.2047700699884,None,s278_02232024,001,2024-02-23_12h35.53.210,test_typingtask_norepeats,2020.2.10,59.97285623218238,
belly,belly,,,,,,,,,0,8,8,8,,,,,,,,,,,,,,,806.7049452001229,None,"['b', 'e', 'l', 'l', 'y']",1,"[0.7095673999283463, 0.8056721999309957, 0.9415867999196053, 1.0936775000300258, 1.3337193001061678]",806.7049452001229,None,806.7048262699507,None,s278_02232024,001,2024-02-23_12h35.53.210,test_typingtask_norepeats,2020.2.10,59.97285623218238,
puppy,puppy,,,,,,,,,0,9,9,9,,,,,,,,,,,,,,,812.2049789000303,None,"['p', 'u', 'p', 'p', 'y']",1,"[1.049703599885106, 1.281650099903345, 1.4736103999894112, 1.61755959992297, 1.7856395998969674]",812.2049789000303,None,812.2048707701731,None,s278_02232024,001,2024-02-23_12h35.53.210,test_typingtask_norepeats,2020.2.10,59.97285623218238,
buddy,buddy,,,,,,,,,0,10,10,10,,,,,,,,,,,,,,,817.7050137999468,None,"['b', 'u', 'd', 'd', 'y']",1,"[0.8615009998902678, 1.0215218998491764, 1.1576254998799413, 1.3014762999955565, 1.4055472000036389]",817.7050137999468,None,817.7048537700437,None,s278_02232024,001,2024-02-23_12h35.53.210,test_typingtask_norepeats,2020.2.10,59.97285623218238,
faqir,faqir,,,,,,,,,0,11,11,11,,,,,,,,,,,,,,,823.2050106001552,None,"['f', 'a', 'q', 'i', 'r']",1,"[1.5135049000382423, 1.6416433001868427, 2.0574638000689447, 2.2894576000981033, 2.441540500149131]",823.2050106001552,None,823.2049269701354,None,s278_02232024,001,2024-02-23_12h35.53.210,test_typingtask_norepeats,2020.2.10,59.97285623218238,
there,there,,,,,,,,,0,12,12,12,,,,,,,,,,,,,,,828.7050793999806,None,"['t', 'h', 'e', 'r', 'e']",1,"[0.581587300170213, 0.7015256001614034, 0.7574709001928568, 0.837676600087434, 0.9255583002232015]",828.7050793999806,None,828.7049447700381,None,s278_02232024,001,2024-02-23_12h35.53.210,test_typingtask_norepeats,2020.2.10,59.97285623218238,
heond,heond,,,,,,,,,0,13,13,13,,,,,,,,,,,,,,,834.2051324001513,None,"['h', 'e', 'o', 'n', 'd']",1,"[0.7773714000359178, 1.1133733000606298, 1.3054780999664217, 1.4335153000429273, 1.5375224999152124]",834.2051324001513,None,834.2049418701324,None,s278_02232024,001,2024-02-23_12h35.53.210,test_typingtask_norepeats,2020.2.10,59.97285623218238,
therm,therm,,,,,,,,,0,14,14,14,,,,,,,,,,,,,,,839.7051095999777,None,"['t', 'h', 'e', 'r', 'm']",1,"[0.6133860000409186, 0.7013741000555456, 0.7892718999646604, 0.8455364999826998, 0.9334400000516325]",839.7051095999777,None,839.7050084701739,None,s278_02232024,001,2024-02-23_12h35.53.210,test_typingtask_norepeats,2020.2.10,59.97285623218238,
kremp,kremp,,,,,,,,,0,15,15,15,,,,,,,,,,,,,,,845.2051157001406,None,"['k', 'r', 'e', 'm', 'p']",1,"[1.1213831999339163, 1.2414969000965357, 1.2894184000324458, 1.4015700998716056, 1.537412199890241]",845.2051157001406,None,845.205035570031,None,s278_02232024,001,2024-02-23_12h35.53.210,test_typingtask_norepeats,2020.2.10,59.97285623218238,
zibja,zibja,,,,,,,,,0,16,16,16,,,,,,,,,,,,,,,850.705459299963,None,"['i', 'b', 'j', 'a']",0,"[1.6451252000406384, 1.8530204000417143, 1.9652719998266548, 2.0529898998793215]",850.705459299963,None,850.7050682701636,None,s278_02232024,001,2024-02-23_12h35.53.210,test_typingtask_norepeats,2020.2.10,59.97285623218238,
buddy,buddy,,,,,,,,,0,17,17,17,,,,,,,,,,,,,,,856.2052158999722,None,"['b', 'u', 'd', 'd', 'y']",1,"[1.249309099977836, 1.37724049994722, 1.4813791001215577, 1.6092282999306917, 1.7131952000781894]",856.2052158999722,None,856.2050973700359,None,s278_02232024,001,2024-02-23_12h35.53.210,test_typingtask_norepeats,2020.2.10,59.97285623218238,
vodka,vodka,,,,,,,,,0,18,18,18,,,,,,,,,,,,,,,861.705312800128,None,"['v', 'o', 'd', 'k', 'a']",1,"[1.1411852999590337, 1.397128399927169, 2.26912650000304, 2.461147600086406, 2.541193899931386]",861.705312800128,None,861.7050860700663,None,s278_02232024,001,2024-02-23_12h35.53.210,test_typingtask_norepeats,2020.2.10,59.97285623218238,
lucky,lucky,,,,,,,,,0,19,19,19,,,,,,,,,,,,,,,867.205260500079,None,"['l', 'u', 'c', 'k', 'y']",1,"[1.3852230999618769, 1.6731855999678373, 1.7535038001369685, 1.8732720001135021, 2.033421800006181]",867.205260500079,None,867.2051625700667,867.3052861001343,s278_02232024,001,2024-02-23_12h35.53.210,test_typingtask_norepeats,2020.2.10,59.97285623218238,
tithe,tithe,,,,,,,,,0,20,20,20,,,,,,,,,,,,,,,872.7053032000549,None,"['t', 'i', 't', 'h', 'e']",1,"[0.7411601999774575, 1.485203699907288, 1.6131426999345422, 1.7492132000625134, 1.8373787999153137]",872.7053032000549,None,872.7051814700942,None,s278_02232024,001,2024-02-23_12h35.53.210,test_typingtask_norepeats,2020.2.10,59.97285623218238,
heond,heond,,,,,,,,,0,21,21,21,,,,,,,,,,,,,,,878.2053190001752,None,"['h', 'e', 'o', 'n', 'd']",1,"[0.7771991000045091, 0.9133082998450845, 1.017443499993533, 1.1290889999363571, 1.257202300010249]",878.2053190001752,None,878.2051764700561,878.3052976999898,s278_02232024,001,2024-02-23_12h35.53.210,test_typingtask_norepeats,2020.2.10,59.97285623218238,
champ,champ,,,,,,,,,0,22,22,22,,,,,,,,,,,,,,,883.7054024001118,None,"['c', 'h', 'a', 'm', 'p']",1,"[0.6691628999542445, 0.7571998999919742, 0.8371462000068277, 0.9650777000933886, 1.1170371000189334]",883.7054024001118,None,883.7052426700945,883.8053633000236,s278_02232024,001,2024-02-23_12h35.53.210,test_typingtask_norepeats,2020.2.10,59.97285623218238,
belly,belly,,,,,,,,,0,23,23,23,,,,,,,,,,,,,,,889.2054179001134,None,"['b', 'e', 'l', 'l', 'y']",1,"[0.6810435999650508, 0.8330492000095546, 0.9531302000395954, 1.0889930999837816, 1.2490087999030948]",889.2054179001134,None,889.2052703699562,889.3053705999628,s278_02232024,001,2024-02-23_12h35.53.210,test_typingtask_norepeats,2020.2.10,59.97285623218238,
there,there,,,,,,,,,0,24,24,24,,,,,,,,,,,,,,,894.7053716999944,None,"['t', 'h', 'e', 'r', 'e']",1,"[0.693110299995169, 0.813047599978745, 0.9331165999174118, 1.005055099958554, 1.1250675998162478]",894.7053716999944,None,894.7052734700962,894.8053985000588,s278_02232024,001,2024-02-23_12h35.53.210,test_typingtask_norepeats,2020.2.10,59.97285623218238,
cheer,cheer,,,,,,,,,0,25,25,25,,,,,,,,,,,,,,,900.205463499995,None,"['c', 'h', 'e', 'e', 'r']",1,"[0.7129846999887377, 0.8329289997927845, 0.9210663000121713, 1.0809530999977142, 1.1689003999345005]",900.205463499995,None,900.2053409700281,900.3054603999481,s278_02232024,001,2024-02-23_12h35.53.210,test_typingtask_norepeats,2020.2.10,59.97285623218238,
lucky,lucky,,,,,,,,,0,26,26,26,,,,,,,,,,,,,,,905.7054177999962,None,"['l', 'u', 'c', 'k', 'y']",1,"[0.8050132999196649, 0.9809729000553489, 1.0689240000210702, 1.2049565999768674, 1.5009969999082386]",905.7054177999962,None,905.7053658701013,None,s278_02232024,001,2024-02-23_12h35.53.210,test_typingtask_norepeats,2020.2.10,59.97285623218238,
druze,druze,,,,,,,,,0,27,27,27,,,,,,,,,,,,,,,911.2055864001159,None,"['d', 'r', 'u', 'z', 'e']",1,"[1.160852300003171, 1.376822300022468, 1.9288824999239296, 2.376832799986005, 2.5929525000974536]",911.2055864001159,None,911.2054009700194,911.3054341999814,s278_02232024,001,2024-02-23_12h35.53.210,test_typingtask_norepeats,2020.2.10,59.97285623218238,
buddy,buddy,,,,,,,,,0,28,28,28,,,,,,,,,,,,,,,916.7055532000959,None,"['b', 'u', 'd', 'd', 'y']",1,"[0.6448641000315547, 0.8368578001391143, 0.9487809001002461, 1.0929672000929713, 1.2369808999355882]",916.7055532000959,None,916.7054198700469,None,s278_02232024,001,2024-02-23_12h35.53.210,test_typingtask_norepeats,2020.2.10,59.97285623218238,
tithe,tithe,,,,,,,,,0,29,29,29,,,,,,,,,,,,,,,922.2055687000975,None,"['t', 'i', 't', 'h', 'e']",1,"[0.7928981999866664, 0.9449191000312567, 1.056819099932909, 1.2087700001429766, 1.3209297000430524]",922.2055687000975,None,922.2054358701687,None,s278_02232024,001,2024-02-23_12h35.53.210,test_typingtask_norepeats,2020.2.10,59.97285623218238,
cheer,cheer,,,,,,,,,0,30,30,30,,,,,,,,,,,,,,,927.7056054000277,None,"['c', 'h', 'e', 'e', 'r']",1,"[0.5568160000257194, 0.6687334000598639, 0.7809014001395553, 0.9249211000278592, 1.0529128001071513]",927.7056054000277,None,927.7054787701461,None,s278_02232024,001,2024-02-23_12h35.53.210,test_typingtask_norepeats,2020.2.10,59.97285623218238,
kremp,kremp,,,,,,,,,0,31,31,31,,,,,,,,,,,,,,,933.2057370000985,None,"['l', 'r', 'e', 'm', 'p']",0,"[0.9126792000606656, 1.0407612000126392, 1.104768600082025, 1.2007607999257743, 1.3686230999883264]",933.2057370000985,None,933.2054954701568,None,s278_02232024,001,2024-02-23_12h35.53.210,test_typingtask_norepeats,2020.2.10,59.97285623218238,
cooed,cooed,,,,,,,,,0,32,32,32,,,,,,,,,,,,,,,938.7056907000951,None,"['c', 'o', 'o', 'e', 'd']",1,"[0.5806523999199271, 0.692692199954763, 0.8447532998397946, 0.9487208998762071, 1.1246978999115527]",938.7056907000951,None,938.7055265700444,None,s278_02232024,001,2024-02-23_12h35.53.210,test_typingtask_norepeats,2020.2.10,59.97285623218238,
faqir,faqir,,,,,,,,,0,33,33,33,,,,,,,,,,,,,,,944.2057135000359,None,"['f', 'a', 'w', 'i', 'r']",0,"[0.9046950000338256, 1.0808107000775635, 1.7207064998801798, 1.912658599903807, 2.0086457999423146]",944.2057135000359,None,944.2055446700658,None,s278_02232024,001,2024-02-23_12h35.53.210,test_typingtask_norepeats,2020.2.10,59.97285623218238,
cheer,cheer,,,,,,,,,0,34,34,34,,,,,,,,,,,,,,,949.7056989001576,None,"['c', 'h', 'e', 'e', 'r']",1,"[1.1486953999847174, 1.2447448000311852, 1.3486237998586148, 1.492668499937281, 1.5729113998822868]",949.7056989001576,None,949.7056108701042,None,s278_02232024,001,2024-02-23_12h35.53.210,test_typingtask_norepeats,2020.2.10,59.97285623218238,
druze,druze,,,,,,,,,0,35,35,35,,,,,,,,,,,,,,,955.2057571001351,None,"['d', 'r', 'u', 'z', 'e']",1,"[1.00087060010992, 1.240625100210309, 2.2646461999975145, 2.440646600211039, 2.712613700190559]",955.2057571001351,None,955.205602770159,None,s278_02232024,001,2024-02-23_12h35.53.210,test_typingtask_norepeats,2020.2.10,59.97285623218238,
theme,theme,,,,,,,,,0,36,36,36,,,,,,,,,,,,,,,960.7057928000577,None,"['t', 'h', 'e', 'm', 'e']",1,"[0.6765958999749273, 0.8206597999669611, 0.9328052999917418, 1.092573800124228, 1.196579100098461]",960.7057928000577,None,960.7056270699948,None,s278_02232024,001,2024-02-23_12h35.53.210,test_typingtask_norepeats,2020.2.10,59.97285623218238,
would,would,,,,,,,,,0,37,37,37,,,,,,,,,,,,,,,966.2058168000076,None,"['w', 'o', 'u', 'l', 'd']",1,"[0.600635499926284, 0.800612999824807, 0.8565897999797016, 1.0646652998402715, 1.1684782998636365]",966.2058168000076,None,966.2057051700074,None,s278_02232024,001,2024-02-23_12h35.53.210,test_typingtask_norepeats,2020.2.10,59.97285623218238,
think,think,,,,,,,,,0,38,38,38,,,,,,,,,,,,,,,971.7058856999502,None,"['t', 'h', 'i', 'n', 'k']",1,"[0.5885207999963313, 0.6845090999267995, 0.7884559999220073, 0.9164644000120461, 0.9964616999495775]",971.7058856999502,None,971.7057363700121,None,s278_02232024,001,2024-02-23_12h35.53.210,test_typingtask_norepeats,2020.2.10,59.97285623218238,
vodka,vodka,,,,,,,,,0,39,39,39,,,,,,,,,,,,,,,977.2058684001677,None,"['v', 'i', 'd', 'k', 'a']",0,"[1.232504100073129, 1.440486100036651, 1.776519700186327, 1.9764760001562536, 2.0966573001351207]",977.2058684001677,None,977.2057657700032,None,s278_02232024,001,2024-02-23_12h35.53.210,test_typingtask_norepeats,2020.2.10,59.97285623218238,
cooed,cooed,,,,,,,,,0,40,40,40,,,,,,,,,,,,,,,982.7058858999517,None,"['c', 'o', 'o', 'e', 'd']",1,"[0.980492000002414, 1.2444788999855518, 1.604481799993664, 1.8684746001381427, 2.116429900052026]",982.7058858999517,None,982.7057862700428,None,s278_02232024,001,2024-02-23_12h35.53.210,test_typingtask_norepeats,2020.2.10,59.97285623218238,
theme,theme,,,,,,,,,0,41,41,41,,,,,,,,,,,,,,,988.2059311999474,None,"['t', 'h', 'e', 'm', 'e']",1,"[0.6644078001845628, 0.8083335000555962, 0.952411700040102, 1.1203716001473367, 1.232512200018391]",988.2059311999474,None,988.2058208700735,None,s278_02232024,001,2024-02-23_12h35.53.210,test_typingtask_norepeats,2020.2.10,59.97285623218238,
cooed,cooed,,,,,,,,,0,42,42,42,,,,,,,,,,,,,,,993.7059297000524,None,"['c', 'o', 'o', 'e', 'd']",1,"[0.5644282000139356, 0.7163823998998851, 0.8683780999854207, 1.0125229000113904, 1.196532699977979]",993.7059297000524,None,993.7058560701087,None,s278_02232024,001,2024-02-23_12h35.53.210,test_typingtask_norepeats,2020.2.10,59.97285623218238,
would,would,,,,,,,,,0,43,43,43,,,,,,,,,,,,,,,999.2060082999524,None,"['w', 'o', 'u', 'l', 'd']",1,"[0.8883232001680881, 1.0883061001077294, 1.1603922001086175, 1.384319300064817, 1.4883214000146836]",999.2060082999524,None,999.2058843699749,None,s278_02232024,001,2024-02-23_12h35.53.210,test_typingtask_norepeats,2020.2.10,59.97285623218238,
there,there,,,,,,,,,0,44,44,44,,,,,,,,,,,,,,,1004.7060607001185,None,"['t', 'h', 'e', 'r', 'e']",1,"[0.7322700000368059, 0.8363606000784785, 0.9483740001451224, 1.0282083000056446, 1.1322428002022207]",1004.7060607001185,None,1004.7059156700968,None,s278_02232024,001,2024-02-23_12h35.53.210,test_typingtask_norepeats,2020.2.10,59.97285623218238,
buddy,buddy,,,,,,,,,0,45,45,45,,,,,,,,,,,,,,,1010.2063435001764,None,"['b', 'u', 'd', 'd', 'y']",1,"[0.7440114000346512, 0.9039362999610603, 1.0320950001478195, 1.1759803001768887, 1.3120441001374274]",1010.2063435001764,None,1010.2059440700802,None,s278_02232024,001,2024-02-23_12h35.53.210,test_typingtask_norepeats,2020.2.10,59.97285623218238,
therm,therm,,,,,,,,,0,46,46,46,,,,,,,,,,,,,,,1015.7060638000257,None,"['t', 'h', 'e', 'r', 'm']",1,"[0.6922747001517564, 0.8122802001889795, 0.8842500001192093, 0.9323892001993954, 1.044367300113663]",1015.7060638000257,None,1015.7059583700727,None,s278_02232024,001,2024-02-23_12h35.53.210,test_typingtask_norepeats,2020.2.10,59.97285623218238,
about,about,,,,,,,,,0,47,47,47,,,,,,,,,,,,,,,1021.2060922000092,None,"['a', 'b', 'o', 'u', 't']",1,"[0.600271699950099, 0.696233999915421, 0.9043352999724448, 0.9682505999226123, 1.1042126999236643]",1021.2060922000092,None,1021.2060438701417,None,s278_02232024,001,2024-02-23_12h35.53.210,test_typingtask_norepeats,2020.2.10,59.97285623218238,
haole,haole,,,,,,,,,0,48,48,48,,,,,,,,,,,,,,,1026.7061091000214,None,"['h', 'a', 'o', 'l', 'e']",1,"[0.8522211001254618, 0.9481709999963641, 1.1162227001041174, 1.3162324000149965, 1.3723211002070457]",1026.7061091000214,None,1026.7060339699499,None,s278_02232024,001,2024-02-23_12h35.53.210,test_typingtask_norepeats,2020.2.10,59.97285623218238,
cheer,cheer,,,,,,,,,0,49,49,49,,,,,,,,,,,,,,,1032.206152800005,None,"['c', 'h', 'e', 'e', 'r']",1,"[0.6003407998941839, 0.7121491997968405, 0.8003450999967754, 0.9601934999227524, 1.0642251998651773]",1032.206152800005,None,1032.2060842699836,None,s278_02232024,001,2024-02-23_12h35.53.210,test_typingtask_norepeats,2020.2.10,59.97285623218238,
faqir,faqir,,,,,,,,,0,50,50,50,,,,,,,,,,,,,,,1037.706215800019,None,"['f', 'a', 'q', 'i', 'r']",1,"[1.0441525001078844, 1.5002156998962164, 2.4360928998794407, 2.6520815000403672, 2.7322088999208063]",1037.706215800019,None,1037.706095870072,None,s278_02232024,001,2024-02-23_12h35.53.210,test_typingtask_norepeats,2020.2.10,59.97285623218238,
zibja,zibja,,,,,,,,,0,51,51,51,,,,,,,,,,,,,,,1043.2062580001075,None,"['z', 'i', 'b', 'j', 'a']",1,"[2.144061699975282, 2.367981299990788, 2.5920465998351574, 2.7120212998706847, 2.807990500004962]",1043.2062580001075,None,1043.2061594700906,None,s278_02232024,001,2024-02-23_12h35.53.210,test_typingtask_norepeats,2020.2.10,59.97285623218238,
vodka,vodka,,,,,,,,,0,52,52,52,,,,,,,,,,,,,,,1048.7062717000954,None,"['v', 'o', 'd', 'k', 'a']",1,"[1.180041000014171, 2.1080652000382543, 2.22002310003154, 2.3400858999229968, 2.420133300125599]",1048.7062717000954,None,1048.7061745700892,None,s278_02232024,001,2024-02-23_12h35.53.210,test_typingtask_norepeats,2020.2.10,59.97285623218238,
edthe,edthe,,,,,,,,,0,53,53,53,,,,,,,,,,,,,,,1054.2062810000498,None,"['e', 'd', 't', 'h', 'e']",1,"[1.0480591000523418, 1.2161904000677168, 1.8881415000651032, 1.96811530017294, 2.032108800020069]",1054.2062810000498,None,1054.206194370007,None,s278_02232024,001,2024-02-23_12h35.53.210,test_typingtask_norepeats,2020.2.10,59.97285623218238,
vanru,vanru,,,,,,,,,0,54,54,54,,,,,,,,,,,,,,,1059.70629979996,None,"['v', 'a', 'n', 'r', 'u']",1,"[0.8519956001546234, 0.9399866999592632, 1.0679500000551343, 1.1720921001397073, 1.3079498000442982]",1059.70629979996,None,1059.7062255700118,None,s278_02232024,001,2024-02-23_12h35.53.210,test_typingtask_norepeats,2020.2.10,59.97285623218238,
belly,belly,,,,,,,,,0,55,55,55,,,,,,,,,,,,,,,1065.2063339001033,None,"['b', 'e', 'l', 'l', 'y']",1,"[0.6319563998840749, 0.7361825997941196, 0.8720709998160601, 1.0159395998343825, 1.207893499871716]",1065.2063339001033,None,1065.2062518700957,None,s278_02232024,001,2024-02-23_12h35.53.210,test_typingtask_norepeats,2020.2.10,59.97285623218238,
therm,therm,,,,,,,,,0,56,56,56,,,,,,,,,,,,,,,1070.706388300052,None,"['t', 'h', 'e', 'r', 'm']",1,"[0.6039489000104368, 0.6841825000010431, 0.7960917998570949, 0.8599717998877168, 0.9318929000291973]",1070.706388300052,None,1070.706288970029,None,s278_02232024,001,2024-02-23_12h35.53.210,test_typingtask_norepeats,2020.2.10,59.97285623218238,
would,would,,,,,,,,,0,57,57,57,,,,,,,,,,,,,,,1076.2064193000551,None,"['w', 'o', 'u', 'l', 'd']",1,"[0.5680351001210511, 0.7198557001538575, 0.7759666000492871, 0.967810400063172, 1.0798353001009673]",1076.2064193000551,None,1076.20630357014,None,s278_02232024,001,2024-02-23_12h35.53.210,test_typingtask_norepeats,2020.2.10,59.97285623218238,
vanru,vanru,,,,,,,,,0,58,58,58,,,,,,,,,,,,,,,1081.7064398999792,None,"['v', 'a', 'n', 'r', 'u']",1,"[1.0038412001449615, 1.0841636001132429, 1.1959400000050664, 1.2599335999693722, 1.427766100037843]",1081.7064398999792,None,1081.7063160701189,None,s278_02232024,001,2024-02-23_12h35.53.210,test_typingtask_norepeats,2020.2.10,59.97285623218238,
tithe,tithe,,,,,,,,,0,59,59,59,,,,,,,,,,,,,,,1087.2064565001056,None,"['t', 'i', 't', 'h', 'e']",1,"[0.8238237998448312, 0.9677654998376966, 1.1119071999564767, 1.231919099809602, 1.3198977999854833]",1087.2064565001056,None,1087.2063963701482,None,s278_02232024,001,2024-02-23_12h35.53.210,test_typingtask_norepeats,2020.2.10,59.97285623218238,
faqir,faqir,,,,,,,,,0,60,60,60,,,,,,,,,,,,,,,1092.7064855000935,None,"['f', 'a', 'q', 'i', 'r']",1,"[0.8758721000049263, 0.9797789000440389, 1.8841184000484645, 2.259766299976036, 2.3398903999477625]",1092.7064855000935,None,1092.7064075700007,None,s278_02232024,001,2024-02-23_12h35.53.210,test_typingtask_norepeats,2020.2.10,59.97285623218238,
theme,theme,,,,,,,,,0,61,61,61,,,,,,,,,,,,,,,1098.2065524000209,None,"['t', 'h', 'e', 'm', 'e']",1,"[0.6557087001856416, 0.7757228000555187, 0.8638083999976516, 1.0237512001767755, 1.055794200161472]",1098.2065524000209,None,1098.2064390701241,None,s278_02232024,001,2024-02-23_12h35.53.210,test_typingtask_norepeats,2020.2.10,59.97285623218238,
haole,haole,,,,,,,,,0,62,62,62,,,,,,,,,,,,,,,1103.7065898999572,None,"['h', 'a', 'o', 'l', 'e']",1,"[0.8197166998870671, 0.9076012999285012, 1.0436370999086648, 1.2276057999115437, 1.2756608999334276]",1103.7065898999572,None,1103.7064765700604,None,s278_02232024,001,2024-02-23_12h35.53.210,test_typingtask_norepeats,2020.2.10,59.97285623218238,
puppy,puppy,,,,,,,,,0,63,63,63,,,,,,,,,,,,,,,1109.206622699974,None,"['p', 'u', 'p', 'p', 'y']",1,"[1.1677325998898596, 1.367523199878633, 1.5596102999988943, 1.7116942999418825, 1.8796337998937815]",1109.206622699974,None,1109.2065296701155,None,s278_02232024,001,2024-02-23_12h35.53.210,test_typingtask_norepeats,2020.2.10,59.97285623218238,
belly,belly,,,,,,,,,0,64,64,64,,,,,,,,,,,,,,,1114.7066816000734,None,"['b', 'e', 'l', 'l', 'y']",1,"[0.5876284998375922, 0.6996009000577033, 0.9396079999860376, 1.091569900047034, 1.2755543000530452]",1114.7066816000734,None,1114.7065327700227,None,s278_02232024,001,2024-02-23_12h35.53.210,test_typingtask_norepeats,2020.2.10,59.97285623218238,
think,think,,,,,,,,,0,65,65,65,,,,,,,,,,,,,,,1120.206712699961,None,"['t', 'h', 'i', 'n', 'k']",1,"[0.6795328999869525, 0.7596269999630749, 0.9035139000043273, 1.1035725001711398, 1.1436324000824243]",1120.206712699961,None,1120.2065602701157,None,s278_02232024,001,2024-02-23_12h35.53.210,test_typingtask_norepeats,2020.2.10,59.97285623218238,
pykka,pykka,,,,,,,,,0,66,66,66,,,,,,,,,,,,,,,1125.7066775001585,None,"['p', 'y', 'k', 'k', 'a']",1,"[1.1155411000363529, 1.9235830001998693, 2.4115540999919176, 2.5874761000741273, 2.6995634001214057]",1125.7066775001585,None,1125.7065946701448,None,s278_02232024,001,2024-02-23_12h35.53.210,test_typingtask_norepeats,2020.2.10,59.97285623218238,
tithe,tithe,,,,,,,,,0,67,67,67,,,,,,,,,,,,,,,1131.2067492001224,None,"['t', 'i', 't', 'h', 'e']",1,"[0.871484300121665, 0.9755998000036925, 1.1195457999128848, 1.2394542000256479, 1.327581899939105]",1131.2067492001224,None,1131.206632469967,None,s278_02232024,001,2024-02-23_12h35.53.210,test_typingtask_norepeats,2020.2.10,59.97285623218238,
vodka,vodka,,,,,,,,,0,68,68,68,,,,,,,,,,,,,,,1136.7067730999552,None,"['v', 'o', 'd', 'k', 'a']",1,"[1.1874446000438184, 1.4034494999796152, 2.0839020998682827, 2.3474161999765784, 2.4754341999068856]",1136.7067730999552,None,1136.7066283700522,None,s278_02232024,001,2024-02-23_12h35.53.210,test_typingtask_norepeats,2020.2.10,59.97285623218238,
haole,haole,,,,,,,,,0,69,69,69,,,,,,,,,,,,,,,1142.206809700001,None,"['h', 'a', 'o', 'l', 'e']",1,"[1.0793969999067485, 1.2393868998624384, 1.3593980998266488, 1.5354055999778211, 1.591370299924165]",1142.206809700001,None,1142.2066467699594,None,s278_02232024,001,2024-02-23_12h35.53.210,test_typingtask_norepeats,2020.2.10,59.97285623218238,
belly,belly,,,,,,,,,0,70,70,70,,,,,,,,,,,,,,,1147.7068354999647,None,"['b', 'e', 'l', 'l', 'y']",1,"[1.0353913998696953, 1.1873168000020087, 1.3234002999961376, 1.467343800002709, 1.723517799982801]",1147.7068354999647,None,1147.7067002700176,None,s278_02232024,001,2024-02-23_12h35.53.210,test_typingtask_norepeats,2020.2.10,59.97285623218238,
therm,therm,,,,,,,,,0,71,71,71,,,,,,,,,,,,,,,1153.2068360000849,None,"['t', 'h', 'e', 'r', 'm']",1,"[0.6793742999434471, 0.831485299859196, 0.8953568998258561, 0.9594564998988062, 1.0794632998295128]",1153.2068360000849,None,1153.206758069992,None,s278_02232024,001,2024-02-23_12h35.53.210,test_typingtask_norepeats,2020.2.10,59.97285623218238,
about,about,,,,,,,,,0,72,72,72,,,,,,,,,,,,,,,1158.7069053000305,None,"['a', 'b', 'o', 'u', 't']",1,"[0.7073036001529545, 0.7872576001100242, 0.995316400192678, 1.0594940001610667, 1.1792817001696676]",1158.7069053000305,None,1158.7067833700683,None,s278_02232024,001,2024-02-23_12h35.53.210,test_typingtask_norepeats,2020.2.10,59.97285623218238,
would,would,,,,,,,,,0,73,73,73,,,,,,,,,,,,,,,1164.2069425999653,None,"['w', 'o', 'u', 'l', 'd']",1,"[0.623260400025174, 0.7512401000130922, 0.8312262000981718, 0.9913558000698686, 1.095287499949336]",1164.2069425999653,None,1164.2068166699726,None,s278_02232024,001,2024-02-23_12h35.53.210,test_typingtask_norepeats,2020.2.10,59.97285623218238,
edthe,edthe,,,,,,,,,0,74,74,74,,,,,,,,,,,,,,,1169.7069725000765,None,"['e', 'd', 't', 'h', 'e']",1,"[0.6673870999366045, 0.859251799993217, 1.0512121999636292, 1.1792088998481631, 1.2675419999286532]",1169.7069725000765,None,1169.70684426995,None,s278_02232024,001,2024-02-23_12h35.53.210,test_typingtask_norepeats,2020.2.10,59.97285623218238,
champ,champ,,,,,,,,,0,75,75,75,,,,,,,,,,,,,,,1175.2069839001633,None,"['c', 'h', 'a', 'n', 'p', 'y']",0,"[0.655435899971053, 0.8632004000246525, 0.9510870999656618, 1.1513066000770777, 1.383178000105545, 1.567411300027743]",1175.2069839001633,None,1175.2068384701386,None,s278_02232024,001,2024-02-23_12h35.53.210,test_typingtask_norepeats,2020.2.10,59.97285623218238,
vanru,vanru,,,,,,,,,0,76,76,76,,,,,,,,,,,,,,,1180.707023800118,None,"['v', 'a', 'n', 'r', 'u']",1,"[0.8591598998755217, 0.947328899987042, 1.0911323998589069, 1.1631610998883843, 1.315320799825713]",1180.707023800118,None,1180.706924470095,None,s278_02232024,001,2024-02-23_12h35.53.210,test_typingtask_norepeats,2020.2.10,59.97285623218238,
buddy,buddy,,,,,,,,,0,77,77,77,,,,,,,,,,,,,,,1186.207042900147,None,"['b', 'u', 'd', 'd', 'y']",1,"[0.9431398999877274, 1.0791249999310821, 1.199235700070858, 1.3432211000472307, 1.4554093000479043]",1186.207042900147,None,1186.2069487701635,None,s278_02232024,001,2024-02-23_12h35.53.210,test_typingtask_norepeats,2020.2.10,59.97285623218238,
druze,druze,,,,,,,,,0,78,78,78,,,,,,,,,,,,,,,1191.7070902001578,None,"['d', 'r', 'u', 'e']",0,"[0.9070805001538247, 1.1069773000199348, 1.3550915999803692, 2.027136400109157]",1191.7070902001578,None,1191.7069833699613,None,s278_02232024,001,2024-02-23_12h35.53.210,test_typingtask_norepeats,2020.2.10,59.97285623218238,
edthe,edthe,,,,,,,,,0,79,79,79,,,,,,,,,,,,,,,1197.2071217000484,None,"['e', 'd', 't', 'h', 'e']",1,"[0.8712879000231624, 1.0550424000248313, 1.271023399895057, 1.3990182999987155, 1.4231527000665665]",1197.2071217000484,None,1197.2070228701457,None,s278_02232024,001,2024-02-23_12h35.53.210,test_typingtask_norepeats,2020.2.10,59.97285623218238,
zibja,zibja,,,,,,,,,0,80,80,80,,,,,,,,,,,,,,,1202.7071818001568,None,"['z', 'i', 'b', 'j', 'a']",1,"[0.8509843999054283, 1.0430793999694288, 1.250989899970591, 1.4029547998216003, 1.4832182000391185]",1202.7071818001568,None,1202.7070163699798,None,s278_02232024,001,2024-02-23_12h35.53.210,test_typingtask_norepeats,2020.2.10,59.97285623218238,
about,about,,,,,,,,,0,81,81,81,,,,,,,,,,,,,,,1208.2071857999545,None,"['a', 'b', 'o', 'u', 't']",1,"[0.7349710001144558, 0.8309647999703884, 1.2469399000983685, 1.3749685001093894, 1.5110059001017362]",1208.2071857999545,None,1208.2070386700332,None,s278_02232024,001,2024-02-23_12h35.53.210,test_typingtask_norepeats,2020.2.10,59.97285623218238,
champ,champ,,,,,,,,,0,82,82,82,,,,,,,,,,,,,,,1213.7071875000838,None,"['c', 'h', 'a', 'm', 'p']",1,"[1.0509728000033647, 1.1549570998176932, 1.2990222999360412, 1.722944299923256, 1.9389551000203937]",1213.7071875000838,None,1213.7071085699833,None,s278_02232024,001,2024-02-23_12h35.53.210,test_typingtask_norepeats,2020.2.10,59.97285623218238,
lucky,lucky,,,,,,,,,0,83,83,83,,,,,,,,,,,,,,,1219.2072346000932,None,"['l', 'u', 'c', 'k', 'y']",1,"[0.614946800051257, 0.8149256000760943, 0.9188971999101341, 1.0310075001325458, 1.23893509991467]",1219.2072346000932,None,1219.2071443700231,1219.3072144000325,s278_02232024,001,2024-02-23_12h35.53.210,test_typingtask_norepeats,2020.2.10,59.97285623218238,
theme,theme,,,,,,,,,0,84,84,84,,,,,,,,,,,,,,,1224.7072833999991,None,"['t', 'h', 'e', 'm', 'e']",1,"[0.6908626998774707, 0.8347547999583185, 0.9788478999398649, 1.1468001999892294, 1.2429346998687834]",1224.7072833999991,None,1224.7071808699518,None,s278_02232024,001,2024-02-23_12h35.53.210,test_typingtask_norepeats,2020.2.10,59.97285623218238,
pykka,pykka,,,,,,,,,0,85,85,85,,,,,,,,,,,,,,,1230.2073142000008,None,"['p', 'y', 'k', 'k', 'a']",1,"[0.9669391999486834, 1.1428161000367254, 1.3588290999177843, 1.5028007000219077, 1.614795699948445]",1230.2073142000008,None,1230.207190570142,1230.3073273000773,s278_02232024,001,2024-02-23_12h35.53.210,test_typingtask_norepeats,2020.2.10,59.97285623218238,
vanru,vanru,,,,,,,,,0,86,86,86,,,,,,,,,,,,,,,1235.70735469996,None,"['v', 'a', 'n', 'r', 'u']",1,"[0.8508417999837548, 0.9867458001244813, 1.4828300001099706, 1.66672100010328, 1.7867125000339001]",1235.70735469996,None,1235.7072193701285,1235.8073943001218,s278_02232024,001,2024-02-23_12h35.53.210,test_typingtask_norepeats,2020.2.10,59.97285623218238,
kremp,kremp,,,,,,,,,0,87,87,87,,,,,,,,,,,,,,,1241.2073802000377,None,"['k', 'r', 'e', 'm', 'p']",1,"[0.9027776999864727, 1.0066895000636578, 1.086707300040871, 1.1748444999102503, 1.3266793000511825]",1241.2073802000377,None,1241.20724967001,1241.3073947001249,s278_02232024,001,2024-02-23_12h35.53.210,test_typingtask_norepeats,2020.2.10,59.97285623218238,
heond,heond,,,,,,,,,0,88,88,88,,,,,,,,,,,,,,,1246.707463100087,None,"['h', 'e', 'o', 'n', 'd']",1,"[0.8906622000504285, 1.0186296000611037, 1.082783400081098, 1.2186435000039637, 1.2906285000499338]",1246.707463100087,None,1246.7072724699508,1246.8074322000612,s278_02232024,001,2024-02-23_12h35.53.210,test_typingtask_norepeats,2020.2.10,59.97285623218238,
think,think,,,,,,,,,0,89,89,89,,,,,,,,,,,,,,,1252.2074432000518,None,"['t', 'h', 'i', 'n', 'k']",1,"[0.6626955999527127, 0.7747007999569178, 0.886701500043273, 1.0546843998599797, 1.102786700008437]",1252.2074432000518,None,1252.2073385701049,1252.307444800157,s278_02232024,001,2024-02-23_12h35.53.210,test_typingtask_norepeats,2020.2.10,59.97285623218238,
druze,druze,,,,,,,,,0,90,90,90,,,,,,,,,,,,,,,1257.7074697001372,None,"['d', 'r', 'u', 'z', 'e']",1,"[0.7067423001863062, 0.9146202001720667, 1.0586282000876963, 2.626775300130248, 2.906596900196746]",1257.7074697001372,None,1257.7073919700458,None,s278_02232024,001,2024-02-23_12h35.53.210,test_typingtask_norepeats,2020.2.10,59.97285623218238,
there,there,,,,,,,,,0,91,91,91,,,,,,,,,,,,,,,1263.2075206001755,None,"['t', 'h', 'e', 'r', 'e']",1,"[0.6465771000366658, 0.7828122000209987, 0.9025554000400007, 1.0306027999613434, 1.1346195000223815]",1263.2075206001755,None,1263.2074060700368,1263.3075331000146,s278_02232024,001,2024-02-23_12h35.53.210,test_typingtask_norepeats,2020.2.10,59.97285623218238,
puppy,puppy,,,,,,,,,0,92,92,92,,,,,,,,,,,,,,,1268.7075493000448,None,"['p', 'u', 'p', 'p', 'y']",1,"[1.4266927998978645, 1.7385747998487204, 1.9305324999149889, 2.090527300024405, 2.3625461999326944]",1268.7075493000448,None,1268.707388270134,None,s278_02232024,001,2024-02-23_12h35.53.210,test_typingtask_norepeats,2020.2.10,59.97285623218238,
druze,druze,,,,,,,,,0,93,93,93,,,,,,,,,,,,,,,1274.2075859000906,None,"['d', 'u', 'r']",0,"[1.1905191000550985, 1.6944766000378877, 3.406504899961874]",1274.2075859000906,None,1274.207504969975,None,s278_02232024,001,2024-02-23_12h35.53.210,test_typingtask_norepeats,2020.2.10,59.97285623218238,
would,would,,,,,,,,,0,94,94,94,,,,,,,,,,,,,,,1279.7076079000253,None,"['w', 'o', 'u', 'l', 'd']",1,"[0.6665169999469072, 0.8424772000871599, 0.874448399990797, 1.10641900007613, 1.1864390999544412]",1279.7076079000253,None,1279.7074984700419,None,s278_02232024,001,2024-02-23_12h35.53.210,test_typingtask_norepeats,2020.2.10,59.97285623218238,
champ,champ,,,,,,,,,0,95,95,95,,,,,,,,,,,,,,,1285.2076402001549,None,"['c', 'h', 'a', 'm', 'p']",1,"[0.7424508999101818, 0.8544618000742048, 0.9506202000193298, 1.102447499986738, 1.2945614999625832]",1285.2076402001549,None,1285.2075249701272,None,s278_02232024,001,2024-02-23_12h35.53.210,test_typingtask_norepeats,2020.2.10,59.97285623218238,
cooed,cooed,,,,,,,,,0,96,96,96,,,,,,,,,,,,,,,1290.7076618999708,None,"['c', 'o', 'o', 'e', 'd']",1,"[0.6509523999411613, 0.8104394001420587, 0.978540499927476, 1.1223808999639004, 1.2984337999951094]",1290.7076618999708,None,1290.707553069992,None,s278_02232024,001,2024-02-23_12h35.53.210,test_typingtask_norepeats,2020.2.10,59.97285623218238,
pykka,pykka,,,,,,,,,0,97,97,97,,,,,,,,,,,,,,,1296.2076996001415,None,"['p', 'y', 'k', 'k', 'a']",1,"[0.9826009999960661, 1.494357000105083, 1.734576900023967, 1.9023637000937015, 2.1103937001898885]",1296.2076996001415,None,1296.2075831701047,None,s278_02232024,001,2024-02-23_12h35.53.210,test_typingtask_norepeats,2020.2.10,59.97285623218238,
vodka,vodka,,,,,,,,,0,98,98,98,,,,,,,,,,,,,,,1301.7077767001465,None,"['v', 'i', 'd', 'k', 'a']",0,"[1.0823061000555754, 1.2822699001990259, 1.3862229001242667, 1.5223914000671357, 1.626247800188139]",1301.7077767001465,None,1301.7076212700456,None,s278_02232024,001,2024-02-23_12h35.53.210,test_typingtask_norepeats,2020.2.10,59.97285623218238,
kremp,kremp,,,,,,,,,0,99,99,99,,,,,,,,,,,,,,,1307.208067300031,None,"['k', 'r', 'e', 'm', 'p']",1,"[0.9420160001609474, 1.0939588001929224, 1.133965500164777, 1.2539763001259416, 1.4139862000010908]",1307.208067300031,None,1307.2076494700275,None,s278_02232024,001,2024-02-23_12h35.53.210,test_typingtask_norepeats,2020.2.10,59.97285623218238,
heond,heond,,,,,,,,,0,100,100,100,,,,,,,,,,,,,,,1312.7078029001132,None,"['h', 'e', 'o', 'n', 'd']",1,"[0.7462607999332249, 0.8742716999258846, 1.002327400026843, 1.1382792999502271, 1.2502007000148296]",1312.7078029001132,None,1312.7076898701023,None,s278_02232024,001,2024-02-23_12h35.53.210,test_typingtask_norepeats,2020.2.10,59.97285623218238,
edthe,edthe,,,,,,,,,0,101,101,101,,,,,,,,,,,,,,,1318.2078665001318,None,"['e', 'd', 't', 'h', 'e']",1,"[0.7581990999169648, 0.9422087999992073, 1.0461510999593884, 1.2141776999924332, 1.2381615000776947]",1318.2078665001318,None,1318.2076950701419,None,s278_02232024,001,2024-02-23_12h35.53.210,test_typingtask_norepeats,2020.2.10,59.97285623218238,
cooed,cooed,,,,,,,,,0,102,102,102,,,,,,,,,,,,,,,1323.7078375001438,None,"['c', 'o', 'o', 'e', 'd']",1,"[0.7142173000611365, 0.8823198999743909, 1.0261802999302745, 1.1381772998720407, 1.3061687999870628]",1323.7078375001438,None,1323.7077571700327,None,s278_02232024,001,2024-02-23_12h35.53.210,test_typingtask_norepeats,2020.2.10,59.97285623218238,
lucky,lucky,,,,,,,,,0,103,103,103,,,,,,,,,,,,,,,1329.207874899963,None,"['k', 'e', 'i', 'c', 'k', 'y']",0,"[0.9021920999512076, 1.0381370999384671, 2.7262981000822037, 2.9102465000469238, 3.054263300029561, 3.2863078000955284]",1329.207874899963,None,1329.2078102700877,None,s278_02232024,001,2024-02-23_12h35.53.210,test_typingtask_norepeats,2020.2.10,59.97285623218238,
haole,haole,,,,,,,,,0,104,104,104,,,,,,,,,,,,,,,1334.7079227999784,None,"['h', 'a', 'o', 'l', 'e']",1,"[0.7462705001235008, 0.842216799966991, 0.9541522001381963, 1.1060550000984222, 1.1702417000196874]",1334.7079227999784,None,1334.7078410700894,None,s278_02232024,001,2024-02-23_12h35.53.210,test_typingtask_norepeats,2020.2.10,59.97285623218238,
pykka,pykka,,,,,,,,,0,105,105,105,,,,,,,,,,,,,,,1340.2079157000408,None,"['p', 'y', 'k', 'k', 'a']",1,"[0.9262359000276774, 1.1662109000608325, 1.32608040003106, 1.4782980000600219, 1.590242699952796]",1340.2079157000408,None,1340.2078789700288,None,s278_02232024,001,2024-02-23_12h35.53.210,test_typingtask_norepeats,2020.2.10,59.97285623218238,
champ,champ,,,,,,,,,0,106,106,106,,,,,,,,,,,,,,,1345.7079980000854,None,"['c', 'h', 'a', 'm', 'p']",1,"[0.6580409000162035, 0.7620484000071883, 0.8660150999203324, 1.0020452998578548, 1.1540335998870432]",1345.7079980000854,None,1345.7079039699863,None,s278_02232024,001,2024-02-23_12h35.53.210,test_typingtask_norepeats,2020.2.10,59.97285623218238,
faqir,faqir,,,,,,,,,0,107,107,107,,,,,,,,,,,,,,,1351.208030299982,None,"['f', 'a', 'q', 'i', 'r']",1,"[1.038010099902749, 1.1659158999100327, 1.910000099800527, 2.1341311999130994, 2.2700972999446094]",1351.208030299982,None,1351.2079094701446,None,s278_02232024,001,2024-02-23_12h35.53.210,test_typingtask_norepeats,2020.2.10,59.97285623218238,
think,think,,,,,,,,,0,108,108,108,,,,,,,,,,,,,,,1356.7082241000608,None,"['t', 'h', 'i', 'n', 'k']",1,"[0.6098100000526756, 0.7297630000393838, 0.8419113999698311, 0.937738599954173, 1.033934700069949]",1356.7082241000608,None,1356.7079058701172,None,s278_02232024,001,2024-02-23_12h35.53.210,test_typingtask_norepeats,2020.2.10,59.97285623218238,
kremp,kremp,,,,,,,,,0,109,109,109,,,,,,,,,,,,,,,1362.2080953000113,None,"['k', 'r', 'e', 'm', 'p']",1,"[0.7499394998885691, 0.8778979999478906, 0.9499717999715358, 1.045873599825427, 1.1979253999888897]",1362.2080953000113,None,1362.2079456699546,None,s278_02232024,001,2024-02-23_12h35.53.210,test_typingtask_norepeats,2020.2.10,59.97285623218238,
haole,haole,,,,,,,,,0,110,110,110,,,,,,,,,,,,,,,1367.7080868999474,None,"['h', 'a', 'o', 'l', 'e']",1,"[0.7779351000208408, 0.8739632000215352, 0.9942557001486421, 1.177935800049454, 1.2501104001421481]",1367.7080868999474,None,1367.708007669961,None,s278_02232024,001,2024-02-23_12h35.53.210,test_typingtask_norepeats,2020.2.10,59.97285623218238,
about,about,,,,,,,,,0,111,111,111,,,,,,,,,,,,,,,1373.2081385999918,None,"['a', 'b', 'o', 'u', 't']",1,"[0.5578352999873459, 0.6618532000575215, 0.8458177000284195, 0.9100293000228703, 1.0138566999230534]",1373.2081385999918,None,1373.2080798700451,None,s278_02232024,001,2024-02-23_12h35.53.210,test_typingtask_norepeats,2020.2.10,59.97285623218238,
zibja,zibja,,,,,,,,,0,112,112,112,,,,,,,,,,,,,,,1378.7081907000393,None,"['z', 'i', 'b', 'j', 'a']",1,"[1.9698463999666274, 2.297792199999094, 2.6818057999480516, 2.993802099954337, 3.1697972000110894]",1378.7081907000393,None,1378.708098170068,None,s278_02232024,001,2024-02-23_12h35.53.210,test_typingtask_norepeats,2020.2.10,59.97285623218238,
therm,therm,,,,,,,,,0,113,113,113,,,,,,,,,,,,,,,1384.2082255999558,None,"['t', 'h', 'e', 'r', 'm']",1,"[0.7097804001532495, 0.8138252000790089, 0.8939418001100421, 0.9418748000171036, 1.0379900999832898]",1384.2082255999558,None,1384.208068370074,None,s278_02232024,001,2024-02-23_12h35.53.210,test_typingtask_norepeats,2020.2.10,59.97285623218238,
cheer,cheer,,,,,,,,,0,114,114,114,,,,,,,,,,,,,,,1389.7082348000258,None,"['c', 'h', 'e', 'e', 'r']",1,"[0.6257548001594841, 0.7538710001390427, 0.9138031001202762, 1.0737593001686037, 1.1698514001909643]",1389.7082348000258,None,1389.7080967700574,None,s278_02232024,001,2024-02-23_12h35.53.210,test_typingtask_norepeats,2020.2.10,59.97285623218238,
edthe,edthe,,,,,,,,,0,115,115,115,,,,,,,,,,,,,,,1395.208399000112,None,"['e', 'd', 't', 'h', 'e']",1,"[0.7175968000665307, 0.8776349001564085, 1.0695865000598133, 1.1895358001347631, 1.2455804999917746]",1395.208399000112,None,1395.2081411701627,None,s278_02232024,001,2024-02-23_12h35.53.210,test_typingtask_norepeats,2020.2.10,59.97285623218238,
vanru,vanru,,,,,,,,,0,116,116,116,,,,,,,,,,,,,,,1400.7082817000337,None,"['v', 'a', 'n', 'r', 'u']",1,"[1.281719900202006, 1.409698200179264, 1.5056644000578672, 1.6656307000666857, 2.2498668001499027]",1400.7082817000337,None,1400.708208470093,None,s278_02232024,001,2024-02-23_12h35.53.210,test_typingtask_norepeats,2020.2.10,59.97285623218238,
zibja,zibja,,,,,,,,,0,117,117,117,,,,,,,,,,,,,,,1406.2083209999837,None,"['z', 'i', 'b', 'j', 'a']",1,"[1.3736592999193817, 1.605589599814266, 1.8377531999722123, 1.9897355998400599, 2.109914699802175]",1406.2083209999837,None,1406.208231770154,None,s278_02232024,001,2024-02-23_12h35.53.210,test_typingtask_norepeats,2020.2.10,59.97285623218238,
puppy,puppy,,,,,,,,,0,118,118,118,,,,,,,,,,,,,,,1411.7083819999825,None,"['p', 'u', 'p', 'p', 'y']",1,"[0.9856734999921173, 1.1936131999827921, 1.3616959999781102, 1.5136963999830186, 1.7296835000161082]",1411.7083819999825,None,1411.7082732701208,None,s278_02232024,001,2024-02-23_12h35.53.210,test_typingtask_norepeats,2020.2.10,59.97285623218238,
tithe,tithe,,,,,,,,,0,119,119,119,,,,,,,,,,,,,,,1417.208415800007,None,"['t', 'i', 't', 'h', 'e']",1,"[0.7815610999241471, 0.9017252000048757, 1.013650800101459, 1.117544800043106, 1.1977860999759287]",1417.208415800007,None,1417.2083016701042,None,s278_02232024,001,2024-02-23_12h35.53.210,test_typingtask_norepeats,2020.2.10,59.97285623218238,
