string,corrAns,practice_trials.thisRepN,practice_trials.thisTrialN,practice_trials.thisN,practice_trials.thisIndex,trials_1.thisRepN,trials_1.thisTrialN,trials_1.thisN,trials_1.thisIndex,trials_2.thisRepN,trials_2.thisTrialN,trials_2.thisN,trials_2.thisIndex,key_resp_0.keys,key_resp_0.corr,key_resp_0.rt,text_1.started,text_1.stopped,key_resp_1.keys,key_resp_1.corr,key_resp_1.rt,key_resp_1.started,key_resp_1.stopped,sound_1A_1.started,sound_1A_1.stopped,break_time.started,break_time.stopped,text_2.started,text_2.stopped,key_resp_2.keys,key_resp_2.corr,key_resp_2.rt,key_resp_2.started,key_resp_2.stopped,sound_1A_2.started,sound_1A_2.stopped,participant,session,date,expName,psychopyVersion,frameRate,
fresh,fresh,0,0,0,0,,,,,,,,,"['f', 'r', 'e']",0,"[2.676560299936682, 3.0284442000556737, 3.268619899870828]",,,,,,,,,,,,,,,,,,,,,s279_02232024,001,2024-02-23_14h26.30.640,test_typingtask_norepeats,2020.2.10,59.98566347089622,
dream,dream,0,1,1,1,,,,,,,,,"['d', 'r', 'e', 'a', 'm']",1,"[1.8484239999670535, 2.152415500022471, 2.4566190999466926, 2.720470800064504, 2.952397200046107]",,,,,,,,,,,,,,,,,,,,,s279_02232024,001,2024-02-23_14h26.30.640,test_typingtask_norepeats,2020.2.10,59.98566347089622,
slime,slime,0,2,2,2,,,,,,,,,"['s', 'l', 'i', 'm', 'e']",1,"[1.236651600105688, 1.4925436000339687, 1.756437199888751, 1.9964401999022812, 2.1486384000163525]",,,,,,,,,,,,,,,,,,,,,s279_02232024,001,2024-02-23_14h26.30.640,test_typingtask_norepeats,2020.2.10,59.98566347089622,
there,there,,,,,0,0,0,0,,,,,,,,119.96359479986131,None,"['t', 'h', 'e', 'r', 'e']",1,"[1.1363932001404464, 1.3445065000560135, 1.5524903000332415, 1.8563757000956684, 2.056497999932617]",119.96359479986131,None,119.96359114996157,120.06355359987356,,,,,,,,,,,,s279_02232024,001,2024-02-23_14h26.30.640,test_typingtask_norepeats,2020.2.10,59.98566347089622,
belly,belly,,,,,0,1,1,1,,,,,,,,125.46360739995725,None,"['b', 'e', 'l', 'l', 'y']",1,"[1.08441390004009, 1.3645689999684691, 1.6763959999661893, 1.8204772998578846, 2.2443822999484837]",125.46360739995725,None,125.46360155004076,125.56357209989801,,,,,,,,,,,,s279_02232024,001,2024-02-23_14h26.30.640,test_typingtask_norepeats,2020.2.10,59.98566347089622,
buddy,buddy,,,,,0,2,2,2,,,,,,,,130.96367540000938,None,"['b', 'u', 'd', 'd', 'y']",1,"[1.064297999953851, 1.3442952998448163, 1.608320300001651, 1.808293999871239, 2.0643342998810112]",130.96367540000938,None,130.96360984998756,None,,,,,,,,,,,,s279_02232024,001,2024-02-23_14h26.30.640,test_typingtask_norepeats,2020.2.10,59.98566347089622,
pykka,pykka,,,,,0,3,3,3,,,,,,,,136.46363479993306,None,"['p', 'y', 'k', 'k', 'a']",1,"[1.3323435001075268, 1.700320400064811, 2.2123398000840098, 2.3724544001743197, 2.540359199978411]",136.46363479993306,None,136.46363874985838,None,,,,,,,,,,,,s279_02232024,001,2024-02-23_14h26.30.640,test_typingtask_norepeats,2020.2.10,59.98566347089622,
buddy,buddy,,,,,0,4,4,4,,,,,,,,141.9636148000136,None,"['b', 'u', 'd', 'd', 'y']",1,"[1.1363349999301136, 1.4164128999691457, 1.8644671998918056, 2.072463900083676, 2.3283243998885155]",141.9636148000136,None,141.9636100499891,None,,,,,,,,,,,,s279_02232024,001,2024-02-23_14h26.30.640,test_typingtask_norepeats,2020.2.10,59.98566347089622,
lucky,lucky,,,,,0,5,5,5,,,,,,,,147.463654599851,None,"['l', 'u', 'c', 'k', 'y']",1,"[1.1403189999982715, 1.53250480000861, 1.8124420000240207, 2.0523047999013215, 2.3722979000303894]",147.463654599851,None,147.46367305000314,None,,,,,,,,,,,,s279_02232024,001,2024-02-23_14h26.30.640,test_typingtask_norepeats,2020.2.10,59.98566347089622,
would,would,,,,,0,6,6,6,,,,,,,,152.9636719999835,None,"['w', 'o', 'u', 'l', 'd']",1,"[1.0722983998712152, 1.4002586998976767, 1.6482656998559833, 2.1122672997880727, 2.384298199787736]",152.9636719999835,None,152.96366164991633,None,,,,,,,,,,,,s279_02232024,001,2024-02-23_14h26.30.640,test_typingtask_norepeats,2020.2.10,59.98566347089622,
therm,therm,,,,,0,7,7,7,,,,,,,,158.46365389996208,None,"['t', 'h', 'e', 'r', 'm']",1,"[0.9323140000924468, 1.172370000043884, 1.364419300109148, 1.5722827999852598, 1.7803764001000673]",158.46365389996208,None,158.46370394988918,None,,,,,,,,,,,,s279_02232024,001,2024-02-23_14h26.30.640,test_typingtask_norepeats,2020.2.10,59.98566347089622,
belly,belly,,,,,0,8,8,8,,,,,,,,163.96370489988476,None,"['b', 'e', 'l', 'l', 'l', 'y']",0,"[0.8722568000666797, 1.128472999902442, 1.376266699982807, 1.5203390000388026, 2.1522405999712646, 2.5362255999352783]",163.96370489988476,None,163.96369834984654,None,,,,,,,,,,,,s279_02232024,001,2024-02-23_14h26.30.640,test_typingtask_norepeats,2020.2.10,59.98566347089622,
vanru,vanru,,,,,0,9,9,9,,,,,,,,169.4636907998938,None,"['v', 'a', 'n', 'r', 'u']",1,"[1.0602549000177532, 1.3722310001030564, 1.6763977000955492, 1.9002932999283075, 2.124222799902782]",169.4636907998938,None,169.46368094994688,169.56368609983474,,,,,,,,,,,,s279_02232024,001,2024-02-23_14h26.30.640,test_typingtask_norepeats,2020.2.10,59.98566347089622,
kremp,kremp,,,,,0,10,10,10,,,,,,,,174.9637275999412,None,"['k', 'r', 'e', 'm', 'p']",1,"[1.6004636001307517, 1.9202189999632537, 2.1761931001674384, 2.352376200025901, 2.64832659997046]",174.9637275999412,None,174.9636982499622,None,,,,,,,,,,,,s279_02232024,001,2024-02-23_14h26.30.640,test_typingtask_norepeats,2020.2.10,59.98566347089622,
think,think,,,,,0,11,11,11,,,,,,,,180.46373589988798,None,"['t', 'h', 'i', 'n', 'k']",1,"[0.9642123999074101, 1.1961965998634696, 1.4041810999624431, 1.6761859999969602, 1.8682848999742419]",180.46373589988798,None,180.46375375003555,None,,,,,,,,,,,,s279_02232024,001,2024-02-23_14h26.30.640,test_typingtask_norepeats,2020.2.10,59.98566347089622,
vodka,vodka,,,,,0,12,12,12,,,,,,,,185.96376139996573,None,"['v', 'o', 'd', 'k', 'a']",1,"[1.0481694000773132, 1.4081685000564903, 1.7361755000893027, 2.136113899992779, 2.4003695000428706]",185.96376139996573,None,185.96379044996576,None,,,,,,,,,,,,s279_02232024,001,2024-02-23_14h26.30.640,test_typingtask_norepeats,2020.2.10,59.98566347089622,
think,think,,,,,0,13,13,13,,,,,,,,191.46378639992326,None,"['t', 'h', 'i', 'n', 'k']",1,"[0.8681495999917388, 1.1401895999442786, 1.3562344000674784, 1.636368100065738, 1.8361237000208348]",191.46378639992326,None,191.4637802498881,None,,,,,,,,,,,,s279_02232024,001,2024-02-23_14h26.30.640,test_typingtask_norepeats,2020.2.10,59.98566347089622,
about,about,,,,,0,14,14,14,,,,,,,,196.96383120003156,None,"['a', 'b', 'o', 'u', 't']",1,"[0.7843376998789608, 1.1280867999885231, 1.4080872999038547, 1.7040881998836994, 1.896085900021717]",196.96383120003156,None,196.96383914998734,None,,,,,,,,,,,,s279_02232024,001,2024-02-23_14h26.30.640,test_typingtask_norepeats,2020.2.10,59.98566347089622,
think,think,,,,,0,15,15,15,,,,,,,,202.46380489994772,None,"['t', 'h', 'i', 'n', 'k']",1,"[0.8441432998515666, 1.0761130000464618, 1.308115900028497, 1.5720998998731375, 1.8362697998527437]",202.46380489994772,None,202.4637890499551,None,,,,,,,,,,,,s279_02232024,001,2024-02-23_14h26.30.640,test_typingtask_norepeats,2020.2.10,59.98566347089622,
faqir,faqir,,,,,0,16,16,16,,,,,,,,207.96384299988858,None,"['f', 'a', 'q', 'u', 'i', 'r']",0,"[1.1120887000579387, 1.4400911000557244, 1.944078299915418, 2.21626319992356, 2.472168799955398, 2.6561859000939876]",207.96384299988858,None,207.96378295002506,None,,,,,,,,,,,,s279_02232024,001,2024-02-23_14h26.30.640,test_typingtask_norepeats,2020.2.10,59.98566347089622,
cheer,cheer,,,,,0,17,17,17,,,,,,,,213.46387650002725,None,"['c', 'h', 'e', 'e', 'r']",1,"[1.0120222000405192, 1.2840207000263035, 1.5560419000685215, 1.7240039999596775, 1.972024800023064]",213.46387650002725,None,213.46384584992194,None,,,,,,,,,,,,s279_02232024,001,2024-02-23_14h26.30.640,test_typingtask_norepeats,2020.2.10,59.98566347089622,
theme,theme,,,,,0,18,18,18,,,,,,,,218.96385239996016,None,"['t', 'h', 'e', 'm', 'e']",1,"[0.896061799954623, 1.1361040999181569, 1.3841208999510854, 1.6001426000148058, 1.808152899844572]",218.96385239996016,None,218.96388934990392,None,,,,,,,,,,,,s279_02232024,001,2024-02-23_14h26.30.640,test_typingtask_norepeats,2020.2.10,59.98566347089622,
vanru,vanru,,,,,0,19,19,19,,,,,,,,224.46391459996812,None,"['v', 'a', 'n', 'r', 'u']",1,"[1.1559480000287294, 1.411973400041461, 1.692128400085494, 1.9320968999527395, 2.172121800016612]",224.46391459996812,None,224.4638482499402,None,,,,,,,,,,,,s279_02232024,001,2024-02-23_14h26.30.640,test_typingtask_norepeats,2020.2.10,59.98566347089622,
edthe,edthe,,,,,0,20,20,20,,,,,,,,229.96390129998326,None,"['e', 'd', 't', 'h', 'e']",1,"[1.5279959000181407, 1.7759982999414206, 2.151985300006345, 2.351912199985236, 2.5600890000350773]",229.96390129998326,None,229.96385805001484,None,,,,,,,,,,,,s279_02232024,001,2024-02-23_14h26.30.640,test_typingtask_norepeats,2020.2.10,59.98566347089622,
haole,haole,,,,,0,21,21,21,,,,,,,,235.46391789987683,None,"['h', 'a', 'o', 'l', 'e']",1,"[1.363983399933204, 1.851960300002247, 2.0679596001282334, 2.332214100053534, 2.5160807000938803]",235.46391789987683,None,235.46391234984623,None,,,,,,,,,,,,s279_02232024,001,2024-02-23_14h26.30.640,test_typingtask_norepeats,2020.2.10,59.98566347089622,
puppy,puppy,,,,,0,22,22,22,,,,,,,,240.96392000000924,None,"['p', 'u', 'p', 'p', 'y']",1,"[1.0639734999276698, 1.4239467999432236, 1.7599661001004279, 1.9440665999427438, 2.271940500009805]",240.96392000000924,None,240.96390084987507,None,,,,,,,,,,,,s279_02232024,001,2024-02-23_14h26.30.640,test_typingtask_norepeats,2020.2.10,59.98566347089622,
edthe,edthe,,,,,0,23,23,23,,,,,,,,246.464178299997,None,"['e', 'd', 't', 'h', 'e']",1,"[1.2116793000604957, 1.5076482000295073, 1.8595926999114454, 2.0676547999028116, 2.2757844000589103]",246.464178299997,None,246.46394164995291,None,,,,,,,,,,,,s279_02232024,001,2024-02-23_14h26.30.640,test_typingtask_norepeats,2020.2.10,59.98566347089622,
faqir,faqir,,,,,0,24,24,24,,,,,,,,251.9639624999836,None,"['f', 'a', 'q', 'i', 'r']",1,"[1.1199096001219004, 1.4318838000763208, 1.9119011999573559, 2.239888400072232, 2.471901100128889]",251.9639624999836,None,251.96396224987694,None,,,,,,,,,,,,s279_02232024,001,2024-02-23_14h26.30.640,test_typingtask_norepeats,2020.2.10,59.98566347089622,
vanru,vanru,,,,,0,25,25,25,,,,,,,,257.46398949995637,None,"['v', 'a', 'n', 'r', 'u']",1,"[1.0119492998346686, 1.3318773999344558, 1.6039352000225335, 1.803992799948901, 2.027861800044775]",257.46398949995637,None,257.4639776499942,None,,,,,,,,,,,,s279_02232024,001,2024-02-23_14h26.30.640,test_typingtask_norepeats,2020.2.10,59.98566347089622,
pykka,pykka,,,,,0,26,26,26,,,,,,,,262.96400449983776,None,"['p', 'y', 'k', 'k', 'a']",1,"[1.0958582998719066, 1.5838676998391747, 2.023839399917051, 2.183839499950409, 2.40782369999215]",262.96400449983776,None,262.96399924992585,263.06400409992784,,,,,,,,,,,,s279_02232024,001,2024-02-23_14h26.30.640,test_typingtask_norepeats,2020.2.10,59.98566347089622,
about,about,,,,,0,27,27,27,,,,,,,,268.463990499964,None,"['a', 'b', 'o', 'u', 't']",1,"[0.8918728998396546, 1.1798699998762459, 1.4678581999614835, 1.755939999828115, 1.9559976998716593]",268.463990499964,None,268.4640320499428,268.56402059993707,,,,,,,,,,,,s279_02232024,001,2024-02-23_14h26.30.640,test_typingtask_norepeats,2020.2.10,59.98566347089622,
haole,haole,,,,,0,28,28,28,,,,,,,,273.96404180000536,None,"['h', 'a', 'o', 'l', 'e']",1,"[1.0078636000398546, 1.2637591001112014, 1.5518034000415355, 1.8798136000987142, 2.0557848000898957]",273.96404180000536,None,273.96404034988956,274.0640340000391,,,,,,,,,,,,s279_02232024,001,2024-02-23_14h26.30.640,test_typingtask_norepeats,2020.2.10,59.98566347089622,
zibja,zibja,,,,,0,29,29,29,,,,,,,,279.46406039991416,None,"['z', 'i', 'b', 'j', 'a']",1,"[1.2678021001629531, 1.667862000176683, 2.267792100086808, 2.507803900167346, 2.707834600005299]",279.46406039991416,None,279.4640640499536,279.5640864998568,,,,,,,,,,,,s279_02232024,001,2024-02-23_14h26.30.640,test_typingtask_norepeats,2020.2.10,59.98566347089622,
heond,heond,,,,,0,30,30,30,,,,,,,,284.9640548999887,None,"['h', 'e', 'o', 'n', 'd']",1,"[1.1277906999457628, 1.4717647000215948, 1.8798014998901635, 2.303780399961397, 2.655775299994275]",284.9640548999887,None,284.96407405002975,285.0640846998431,,,,,,,,,,,,s279_02232024,001,2024-02-23_14h26.30.640,test_typingtask_norepeats,2020.2.10,59.98566347089622,
puppy,puppy,,,,,0,31,31,31,,,,,,,,290.4640915999189,None,"['p', 'u', 'p', 'p', 'y']",1,"[0.9477729999925941, 1.2757618001196533, 1.6038605000358075, 1.7956898000556976, 2.0996926000807434]",290.4640915999189,None,290.4641026500147,290.5641810998786,,,,,,,,,,,,s279_02232024,001,2024-02-23_14h26.30.640,test_typingtask_norepeats,2020.2.10,59.98566347089622,
vodka,vodka,,,,,0,32,32,32,,,,,,,,295.9641006998718,None,"['v', 'o', 'd', 'k', 'a']",1,"[0.9917362998239696, 1.335706999991089, 1.7037227000109851, 2.023728499887511, 2.159850599942729]",295.9641006998718,None,295.96409654985183,296.06408230005763,,,,,,,,,,,,s279_02232024,001,2024-02-23_14h26.30.640,test_typingtask_norepeats,2020.2.10,59.98566347089622,
kremp,kremp,,,,,0,33,33,33,,,,,,,,301.464111499954,None,"['k', 'r', 'e', 'm', 'p']",1,"[1.411716900067404, 1.715697400039062, 1.9558143999893218, 2.155718900030479, 2.419704800006002]",301.464111499954,None,301.46413614992053,None,,,,,,,,,,,,s279_02232024,001,2024-02-23_14h26.30.640,test_typingtask_norepeats,2020.2.10,59.98566347089622,
edthe,edthe,,,,,0,34,34,34,,,,,,,,306.96413109987043,None,"['e', 'd', 't', 'h', 'e']",1,"[1.007689000107348, 1.2637925001326948, 1.5757836000993848, 1.807695999974385, 1.9997173000592738]",306.96413109987043,None,306.9641525500454,307.0641212000046,,,,,,,,,,,,s279_02232024,001,2024-02-23_14h26.30.640,test_typingtask_norepeats,2020.2.10,59.98566347089622,
cooed,cooed,,,,,0,35,35,35,,,,,,,,312.4643242000602,None,"['c', 'o', 'o', 'e', 'd']",1,"[1.0674858000129461, 1.4836425001267344, 1.6755914001259953, 1.8834436000324786, 2.155478300061077]",312.4643242000602,None,312.46417824989186,312.5641467999667,,,,,,,,,,,,s279_02232024,001,2024-02-23_14h26.30.640,test_typingtask_norepeats,2020.2.10,59.98566347089622,
there,there,,,,,0,36,36,36,,,,,,,,317.96420100005344,None,"['t', 'h', 'e', 'r', 'e']",1,"[0.879621900152415, 1.1115997000597417, 1.2715449000243098, 1.5515383000019938, 1.8076184999663383]",317.96420100005344,None,317.9641629498918,None,,,,,,,,,,,,s279_02232024,001,2024-02-23_14h26.30.640,test_typingtask_norepeats,2020.2.10,59.98566347089622,
tithe,tithe,,,,,0,37,37,37,,,,,,,,323.4642074999865,None,"['t', 'i', 't', 'h', 'e']",1,"[1.099711700109765, 1.3236084000673145, 1.5396901001222432, 1.7317393000703305, 1.931699400069192]",323.4642074999865,None,323.4641994500533,None,,,,,,,,,,,,s279_02232024,001,2024-02-23_14h26.30.640,test_typingtask_norepeats,2020.2.10,59.98566347089622,
vanru,vanru,,,,,0,38,38,38,,,,,,,,328.96423180005513,None,"['v', 'a', 'n', 'r', 'u']",1,"[0.9035895999986678, 1.1837407001294196, 1.4236720001790673, 1.7756592000368983, 2.023558000102639]",328.96423180005513,None,328.9642396498937,329.0642424998805,,,,,,,,,,,,s279_02232024,001,2024-02-23_14h26.30.640,test_typingtask_norepeats,2020.2.10,59.98566347089622,
think,think,,,,,0,39,39,39,,,,,,,,334.46422860003076,None,"['t', 'h', 'i', 'n', 'k']",1,"[0.8997514001093805, 1.1475609000772238, 1.3716830001212656, 1.6595772001892328, 1.8835344000253826]",334.46422860003076,None,334.4642480499577,334.5642546999734,,,,,,,,,,,,s279_02232024,001,2024-02-23_14h26.30.640,test_typingtask_norepeats,2020.2.10,59.98566347089622,
cheer,cheer,,,,,0,40,40,40,,,,,,,,339.96429280005395,None,"['c', 'h', 'e', 'e', 'r']",1,"[1.023505600169301, 1.3195160999894142, 1.5835780000779778, 1.783771000104025, 2.063493200112134]",339.96429280005395,None,339.96427504993045,340.0642828999553,,,,,,,,,,,,s279_02232024,001,2024-02-23_14h26.30.640,test_typingtask_norepeats,2020.2.10,59.98566347089622,
lucky,lucky,,,,,0,41,41,41,,,,,,,,345.4643023000099,None,"['l', 'u', 'c', 'k', 'y']",1,"[0.9394950999412686, 1.3714813999831676, 1.5954704999458045, 1.835454999934882, 2.139467000029981]",345.4643023000099,None,345.4642559499014,345.5642969000619,,,,,,,,,,,,s279_02232024,001,2024-02-23_14h26.30.640,test_typingtask_norepeats,2020.2.10,59.98566347089622,
haole,haole,,,,,0,42,42,42,,,,,,,,350.96431909990497,None,"['h', 'a', 'o', 'l', 'e']",1,"[1.0154649000614882, 1.26357590011321, 1.5594298001378775, 1.8074434001464397, 1.9994346001185477]",350.96431909990497,None,350.96430764994585,351.06432570004836,,,,,,,,,,,,s279_02232024,001,2024-02-23_14h26.30.640,test_typingtask_norepeats,2020.2.10,59.98566347089622,
druze,druze,,,,,0,43,43,43,,,,,,,,356.4643313998822,None,"['d', 'r', 'u', 'z', 'e']",1,"[0.9074495998211205, 1.2754369999747723, 1.6674625999294221, 1.8674272999633104, 2.195423899916932]",356.4643313998822,None,356.4643097498454,356.564363299869,,,,,,,,,,,,s279_02232024,001,2024-02-23_14h26.30.640,test_typingtask_norepeats,2020.2.10,59.98566347089622,
lucky,lucky,,,,,0,44,44,44,,,,,,,,361.9643906999845,None,"['l', 'u', 'c', 'k', 'y']",1,"[0.9433786999434233, 1.3114368000533432, 1.5513502000831068, 1.7594097000546753, 2.103360200067982]",361.9643906999845,None,361.96432884987445,362.06436269986443,,,,,,,,,,,,s279_02232024,001,2024-02-23_14h26.30.640,test_typingtask_norepeats,2020.2.10,59.98566347089622,
buddy,buddy,,,,,0,45,45,45,,,,,,,,367.4643585998565,None,"['b', 'u', 'd', 'd', 'y']",1,"[0.9794115999247879, 1.2674264998640865, 1.555417399853468, 1.7553470998536795, 2.1634803998749703]",367.4643585998565,None,367.4643825499341,367.5643904998433,,,,,,,,,,,,s279_02232024,001,2024-02-23_14h26.30.640,test_typingtask_norepeats,2020.2.10,59.98566347089622,
cooed,cooed,,,,,0,46,46,46,,,,,,,,372.9643769999966,None,"['c', 'o', 'o', 'e', 'd']",1,"[1.0153936999849975, 1.4553787000477314, 1.6153526999987662, 1.8393596999812871, 2.095378200057894]",372.9643769999966,None,372.96440174984747,373.06438470003195,,,,,,,,,,,,s279_02232024,001,2024-02-23_14h26.30.640,test_typingtask_norepeats,2020.2.10,59.98566347089622,
druze,druze,,,,,0,47,47,47,,,,,,,,378.46442790003493,None,"['d', 'r', 'u', 'z', 'e']",1,"[1.115338700124994, 1.4353473000228405, 1.7553183001000434, 1.9474216001108289, 2.3073250001762062]",378.46442790003493,None,378.4644265500363,378.564399600029,,,,,,,,,,,,s279_02232024,001,2024-02-23_14h26.30.640,test_typingtask_norepeats,2020.2.10,59.98566347089622,
belly,belly,,,,,0,48,48,48,,,,,,,,383.9644522999879,None,"['b', 'e', 'l', 'l', 'y']",1,"[0.9513274000491947, 1.2232935000211, 1.4952648999169469, 1.6393208000808954, 1.9912996999919415]",383.9644522999879,None,383.964445849834,384.0644515999593,,,,,,,,,,,,s279_02232024,001,2024-02-23_14h26.30.640,test_typingtask_norepeats,2020.2.10,59.98566347089622,
vodka,vodka,,,,,0,49,49,49,,,,,,,,389.4644799998496,None,"['v', 'o', 'd', 'k', 'a']",1,"[1.0512679000385106, 1.3792612999677658, 1.6193835998419672, 1.87535829981789, 2.067315199878067]",389.4644799998496,None,389.46442644991913,389.5644652999472,,,,,,,,,,,,s279_02232024,001,2024-02-23_14h26.30.640,test_typingtask_norepeats,2020.2.10,59.98566347089622,
puppy,puppy,,,,,0,50,50,50,,,,,,,,394.96448159986176,None,"['p', 'u', 'p', 'p', 'y']",1,"[0.9513002999592572, 1.2792279000859708, 1.6072222001384944, 1.7913111001253128, 2.1033723999280483]",394.96448159986176,None,394.9645100498572,395.06449509994127,,,,,,,,,,,,s279_02232024,001,2024-02-23_14h26.30.640,test_typingtask_norepeats,2020.2.10,59.98566347089622,
vodka,vodka,,,,,0,51,51,51,,,,,,,,400.46451970003545,None,"['v', 'o', 'd', 'k', 'a']",1,"[0.9552227999083698, 1.2912095999345183, 1.5632158999796957, 1.7711946999188513, 2.0832108999602497]",400.46451970003545,None,400.4645341499243,400.56453339988366,,,,,,,,,,,,s279_02232024,001,2024-02-23_14h26.30.640,test_typingtask_norepeats,2020.2.10,59.98566347089622,
tithe,tithe,,,,,0,52,52,52,,,,,,,,405.9645537000615,None,"['t', 'i', 't', 'h', 'e']",1,"[0.9752110000699759, 1.2071734999772161, 1.4233457001391798, 1.6312945999670774, 1.855156100122258]",405.9645537000615,None,405.964563450031,406.0645767999813,,,,,,,,,,,,s279_02232024,001,2024-02-23_14h26.30.640,test_typingtask_norepeats,2020.2.10,59.98566347089622,
there,there,,,,,0,53,53,53,,,,,,,,411.4645785000175,None,"['t', 'h', 'e', 'r', 'e']",1,"[0.9631588999181986, 1.1871247999370098, 1.3952444000169635, 1.6511611000169069, 1.883151900023222]",411.4645785000175,None,411.464522549836,411.56456530001014,,,,,,,,,,,,s279_02232024,001,2024-02-23_14h26.30.640,test_typingtask_norepeats,2020.2.10,59.98566347089622,
therm,therm,,,,,0,54,54,54,,,,,,,,416.9645737998653,None,"['t', 'h', 'e', 'r', 'm']",1,"[0.9833463998511434, 1.1833032998256385, 1.3592656999826431, 1.559241799870506, 1.7830953998491168]",416.9645737998653,None,416.9645768499002,417.06459399987943,,,,,,,,,,,,s279_02232024,001,2024-02-23_14h26.30.640,test_typingtask_norepeats,2020.2.10,59.98566347089622,
cheer,cheer,,,,,0,55,55,55,,,,,,,,422.4646077998914,None,"['c', 'h', 'e', 'e', 'r']",1,"[0.9871207000687718, 1.2750886001158506, 1.4831606999505311, 1.6673816998954862, 1.8675228001084179]",422.4646077998914,None,422.46457575000824,422.5646251998842,,,,,,,,,,,,s279_02232024,001,2024-02-23_14h26.30.640,test_typingtask_norepeats,2020.2.10,59.98566347089622,
belly,belly,,,,,0,56,56,56,,,,,,,,427.9646270999219,None,"['b', 'e', 'l', 'l', 'y', 'space']",0,"[0.871133100008592, 1.1270894000772387, 1.4070838999468833, 1.5751934999134392, 1.90322560002096, 2.1270773999858648]",427.9646270999219,None,427.96459874995054,428.06463299994357,,,,,,,,,,,,s279_02232024,001,2024-02-23_14h26.30.640,test_typingtask_norepeats,2020.2.10,59.98566347089622,
theme,theme,,,,,0,57,57,57,,,,,,,,433.46462209988385,None,"['t', 'h', 'e', 'm', 'e']",1,"[0.8991096999961883, 1.1072426999453455, 1.315074399812147, 1.5470658999402076, 1.7149961998220533]",433.46462209988385,None,433.4646749498323,433.5646212999709,,,,,,,,,,,,s279_02232024,001,2024-02-23_14h26.30.640,test_typingtask_norepeats,2020.2.10,59.98566347089622,
lucky,lucky,,,,,0,58,58,58,,,,,,,,438.9646763999481,None,"['l', 'u', 'c', 'k', 'y']",1,"[0.9032757999375463, 1.25503859994933, 1.4631358999758959, 1.671111400006339, 1.9510279998648912]",438.9646763999481,None,438.964665349992,439.064645400038,,,,,,,,,,,,s279_02232024,001,2024-02-23_14h26.30.640,test_typingtask_norepeats,2020.2.10,59.98566347089622,
kremp,kremp,,,,,0,59,59,59,,,,,,,,444.46469819988124,None,"['k', 'r', 'e', 'm', 'p']",1,"[1.0510022998787463, 1.2910380999092013, 1.4989852998405695, 1.6670115999877453, 1.9069955998566002]",444.46469819988124,None,444.4646907499526,444.56470569991507,,,,,,,,,,,,s279_02232024,001,2024-02-23_14h26.30.640,test_typingtask_norepeats,2020.2.10,59.98566347089622,
pykka,pykka,,,,,0,60,60,60,,,,,,,,449.96472429996356,None,"['p', 'y', 'k', 'k', 'a']",1,"[1.0789946999866515, 1.4229626001324505, 1.870977200102061, 2.007086999947205, 2.222952099982649]",449.96472429996356,None,449.96468854993583,450.06472310004756,,,,,,,,,,,,s279_02232024,001,2024-02-23_14h26.30.640,test_typingtask_norepeats,2020.2.10,59.98566347089622,
buddy,buddy,,,,,0,61,61,61,,,,,,,,455.46471560001373,None,"['b', 'u', 'd', 'd', 'y']",1,"[1.0990143998060375, 1.3789332997985184, 1.6349615999497473, 1.7950684998650104, 1.9710949999280274]",455.46471560001373,None,455.4647449498996,455.5647863999475,,,,,,,,,,,,s279_02232024,001,2024-02-23_14h26.30.640,test_typingtask_norepeats,2020.2.10,59.98566347089622,
therm,therm,,,,,0,62,62,62,,,,,,,,460.96483169985004,None,"['t', 'h', 'e', 'r', 'm']",1,"[0.8869566000066698, 1.0948417000472546, 1.26295610005036, 1.4469294999726117, 1.6228225000668317]",460.96483169985004,None,460.96477905004286,461.064776299987,,,,,,,,,,,,s279_02232024,001,2024-02-23_14h26.30.640,test_typingtask_norepeats,2020.2.10,59.98566347089622,
kremp,kremp,,,,,0,63,63,63,,,,,,,,466.46479550004005,None,"['k', 'r', 'e', 'm', 'p']",1,"[1.0669221000280231, 1.2748706000857055, 1.474869699915871, 1.6589210000820458, 1.9389027000870556]",466.46479550004005,None,466.4649624500424,466.5647932998836,,,,,,,,,,,,s279_02232024,001,2024-02-23_14h26.30.640,test_typingtask_norepeats,2020.2.10,59.98566347089622,
therm,therm,,,,,0,64,64,64,,,,,,,,471.9647860999685,None,"['t', 'h', 'e', 'r', 'm']",1,"[0.8148831999860704, 1.0070063001476228, 1.174981800140813, 1.366866100113839, 1.5429972000420094]",471.9647860999685,None,471.9648480498698,472.0648902000394,,,,,,,,,,,,s279_02232024,001,2024-02-23_14h26.30.640,test_typingtask_norepeats,2020.2.10,59.98566347089622,
puppy,puppy,,,,,0,65,65,65,,,,,,,,477.46482319990173,None,"['p', 'u', 'p', 'p', 'y']",1,"[1.0188480999786407, 1.3468335000798106, 1.7388470000587404, 1.8989277000073344, 2.1948184999637306]",477.46482319990173,None,477.46484504984693,477.5648417000193,,,,,,,,,,,,s279_02232024,001,2024-02-23_14h26.30.640,test_typingtask_norepeats,2020.2.10,59.98566347089622,
belly,belly,,,,,0,66,66,66,,,,,,,,482.96486089983955,None,"['b', 'e', 'l', 'y']",0,"[0.9508762001059949, 1.1187839000485837, 1.5988237001001835, 2.110789699945599]",482.96486089983955,None,482.96488755005413,483.06485900003463,,,,,,,,,,,,s279_02232024,001,2024-02-23_14h26.30.640,test_typingtask_norepeats,2020.2.10,59.98566347089622,
tithe,tithe,,,,,0,67,67,67,,,,,,,,488.4648775998503,None,"['t', 'i', 't', 'h', 'e']",1,"[1.0267928999383003, 1.4670559999067336, 1.6748537998646498, 1.8588486998341978, 2.0109043999109417]",488.4648775998503,None,488.4648528499063,488.5648850998841,,,,,,,,,,,,s279_02232024,001,2024-02-23_14h26.30.640,test_typingtask_norepeats,2020.2.10,59.98566347089622,
would,would,,,,,0,68,68,68,,,,,,,,493.96487909997813,None,"['w', 'o', 'u', 'l', 'd']",1,"[0.9587765000760555, 1.1588912999723107, 1.4387545001227409, 1.814799499930814, 2.006849199999124]",493.96487909997813,None,493.96490524983966,494.0648914000485,,,,,,,,,,,,s279_02232024,001,2024-02-23_14h26.30.640,test_typingtask_norepeats,2020.2.10,59.98566347089622,
haole,haole,,,,,0,69,69,69,,,,,,,,499.4649403998628,None,"['h', 'a', 'o', 'l', 'e']",1,"[1.1387239000760019, 1.4346867001149803, 1.634800000116229, 1.8508129001129419, 2.0188134000636637]",499.4649403998628,None,499.46493065003307,499.5649063999299,,,,,,,,,,,,s279_02232024,001,2024-02-23_14h26.30.640,test_typingtask_norepeats,2020.2.10,59.98566347089622,
faqir,faqir,,,,,0,70,70,70,,,,,,,,504.96496080001816,None,"['f', 'a', 'q', 'i', 'r']",1,"[1.0466814001556486, 1.462674500187859, 2.038674300070852, 2.2626724001020193, 2.4386745002120733]",504.96496080001816,None,504.96499374993147,505.0649603998754,,,,,,,,,,,,s279_02232024,001,2024-02-23_14h26.30.640,test_typingtask_norepeats,2020.2.10,59.98566347089622,
lucky,lucky,,,,,0,71,71,71,,,,,,,,510.46499060001224,None,"['l', 'u', 'c', 'k', 'y']",1,"[1.0426556000020355, 1.3626975999213755, 1.5787428000476211, 1.7787597000133246, 2.0427568999584764]",510.46499060001224,None,510.46497255000287,510.564990399871,,,,,,,,,,,,s279_02232024,001,2024-02-23_14h26.30.640,test_typingtask_norepeats,2020.2.10,59.98566347089622,
vodka,vodka,,,,,0,72,72,72,,,,,,,,515.965028999839,None,"['v', 'o', 'd', 'k', 'a']",1,"[0.926602000137791, 1.2145663001574576, 1.3987155000213534, 1.6229471999686211, 1.7747047999873757]",515.965028999839,None,515.9650002498645,516.0650394000113,,,,,,,,,,,,s279_02232024,001,2024-02-23_14h26.30.640,test_typingtask_norepeats,2020.2.10,59.98566347089622,
cheer,cheer,,,,,0,73,73,73,,,,,,,,521.465036300011,None,"['c', 'h', 'e', 'e', 'r']",1,"[0.83466129982844, 1.1385935998987406, 1.3385645998641849, 1.5147029999643564, 1.706693499814719]",521.465036300011,None,521.4650348498951,521.5650463998318,,,,,,,,,,,,s279_02232024,001,2024-02-23_14h26.30.640,test_typingtask_norepeats,2020.2.10,59.98566347089622,
there,there,,,,,0,74,74,74,,,,,,,,526.9653944000602,None,"['t', 'h', 'e', 'r', 'e']",1,"[0.7822374000679702, 1.014212799957022, 1.1662705999333411, 1.3903961000032723, 1.5822260999120772]",526.9653944000602,None,526.9650197498966,527.0651119998656,,,,,,,,,,,,s279_02232024,001,2024-02-23_14h26.30.640,test_typingtask_norepeats,2020.2.10,59.98566347089622,
vanru,vanru,,,,,0,75,75,75,,,,,,,,532.4650838000234,None,"['v', 'a', 'n', 'r', 'u']",1,"[0.9145730000454932, 1.2105240998789668, 1.4426380000077188, 1.6346656999085099, 1.8185423999093473]",532.4650838000234,None,532.465084850043,532.5650911999401,,,,,,,,,,,,s279_02232024,001,2024-02-23_14h26.30.640,test_typingtask_norepeats,2020.2.10,59.98566347089622,
champ,champ,,,,,0,76,76,76,,,,,,,,537.9651150999125,None,"['c', 'h', 'a', 'm', 'p']",1,"[1.0304989002179354, 1.6704968002159148, 1.8864791002124548, 2.1026161001063883, 2.342612500069663]",537.9651150999125,None,537.965147050051,538.0651316998992,,,,,,,,,,,,s279_02232024,001,2024-02-23_14h26.30.640,test_typingtask_norepeats,2020.2.10,59.98566347089622,
cooed,cooed,,,,,0,77,77,77,,,,,,,,543.4651548999827,None,"['c', 'o', 'o', 'e', 'd']",1,"[0.8985176000278443, 1.2506872999947518, 1.4024046999402344, 1.5625754001084715, 1.7784460000693798]",543.4651548999827,None,543.4651147499214,543.5651447998825,,,,,,,,,,,,s279_02232024,001,2024-02-23_14h26.30.640,test_typingtask_norepeats,2020.2.10,59.98566347089622,
zibja,zibja,,,,,0,78,78,78,,,,,,,,548.9651653999463,None,"['z', 'i', 'b', 'j', 'a']",1,"[1.1026409000623971, 1.398611000040546, 1.8304548000451177, 2.04645699984394, 2.2545268998946995]",548.9651653999463,None,548.9651669498533,549.0651600998826,,,,,,,,,,,,s279_02232024,001,2024-02-23_14h26.30.640,test_typingtask_norepeats,2020.2.10,59.98566347089622,
edthe,edthe,,,,,0,79,79,79,,,,,,,,554.4651855998673,None,"['e', 'd', 't', 'h', 'e']",1,"[0.9545642999000847, 1.1625325998757035, 1.458533599972725, 1.6424186998046935, 1.8344107000157237]",554.4651855998673,None,554.4652292499784,None,,,,,,,,,,,,s279_02232024,001,2024-02-23_14h26.30.640,test_typingtask_norepeats,2020.2.10,59.98566347089622,
zibja,zibja,,,,,0,80,80,80,,,,,,,,559.9652364999056,None,"['z', 'i', 'b', 'j', 'a']",1,"[1.0063679001759738, 1.2944679001811892, 1.9024712000973523, 2.1583716000895947, 2.3343842001631856]",559.9652364999056,None,559.9652567498385,None,,,,,,,,,,,,s279_02232024,001,2024-02-23_14h26.30.640,test_typingtask_norepeats,2020.2.10,59.98566347089622,
kremp,kremp,,,,,0,81,81,81,,,,,,,,565.4652425998356,None,"['k', 'r', 'e', 'm', 'p']",1,"[1.0583742000162601, 1.2743420000188053, 1.4823294999077916, 1.6583318000193685, 1.9223589999601245]",565.4652425998356,None,565.4652552499435,None,,,,,,,,,,,,s279_02232024,001,2024-02-23_14h26.30.640,test_typingtask_norepeats,2020.2.10,59.98566347089622,
heond,heond,,,,,0,82,82,82,,,,,,,,570.9652670999058,None,"['h', 'e', 'o', 'n', 'd']",1,"[1.1743360001128167, 1.358312499942258, 1.6144242999143898, 1.9343129000626504, 2.2142922999337316]",570.9652670999058,None,570.9653526499867,None,,,,,,,,,,,,s279_02232024,001,2024-02-23_14h26.30.640,test_typingtask_norepeats,2020.2.10,59.98566347089622,
pykka,pykka,,,,,0,83,83,83,,,,,,,,576.4652888998389,None,"['p', 'y', 'k', 'k', 'a']",1,"[0.9702988001517951, 1.2822732999920845, 1.6822820999659598, 1.8262160001322627, 1.994255900150165]",576.4652888998389,None,576.4653620498254,None,,,,,,,,,,,,s279_02232024,001,2024-02-23_14h26.30.640,test_typingtask_norepeats,2020.2.10,59.98566347089622,
tithe,tithe,,,,,0,84,84,84,,,,,,,,581.9653411998879,None,"['t', 'i', 't', 'h', 'e']",1,"[0.9422357999719679, 1.1262924000620842, 1.3183464999310672, 1.502331499941647, 1.6701984000392258]",581.9653411998879,None,581.9653189498465,None,,,,,,,,,,,,s279_02232024,001,2024-02-23_14h26.30.640,test_typingtask_norepeats,2020.2.10,59.98566347089622,
about,about,,,,,0,85,85,85,,,,,,,,587.4653320000507,None,"['a', 'b', 'o', 'u', 't']",1,"[0.7382324999198318, 1.018289899919182, 1.2742091999389231, 1.5303966000210494, 1.7143045000266284]",587.4653320000507,None,587.4654982499312,None,,,,,,,,,,,,s279_02232024,001,2024-02-23_14h26.30.640,test_typingtask_norepeats,2020.2.10,59.98566347089622,
theme,theme,,,,,0,86,86,86,,,,,,,,592.9653680999763,None,"['t', 'h', 'e', 'm', 'e']",1,"[0.886204200098291, 1.1023347999434918, 1.3741985000669956, 1.6061669001355767, 1.766202999977395]",592.9653680999763,None,592.9655323498416,None,,,,,,,,,,,,s279_02232024,001,2024-02-23_14h26.30.640,test_typingtask_norepeats,2020.2.10,59.98566347089622,
there,there,,,,,0,87,87,87,,,,,,,,598.4653622999322,None,"['t', 'h', 'e', 'r', 'e']",1,"[0.8101973000448197, 0.994290699949488, 1.1781903998926282, 1.394317700061947, 1.6503761999774724]",598.4653622999322,None,598.4656777500174,None,,,,,,,,,,,,s279_02232024,001,2024-02-23_14h26.30.640,test_typingtask_norepeats,2020.2.10,59.98566347089622,
faqir,faqir,,,,,0,88,88,88,,,,,,,,603.9654131999705,None,"['f', 'a', 'q', 'i', 'r']",1,"[1.3504799001384526, 1.606156799942255, 2.030227600131184, 2.302111699944362, 2.5181247000582516]",603.9654131999705,None,603.9654164500068,None,,,,,,,,,,,,s279_02232024,001,2024-02-23_14h26.30.640,test_typingtask_norepeats,2020.2.10,59.98566347089622,
druze,druze,,,,,0,89,89,89,,,,,,,,609.465446599992,None,"['d', 'r', 'u', 'z', 'e']",1,"[1.234077800065279, 1.506099799880758, 1.8580799999181181, 2.0821467000059783, 2.4740726999007165]",609.465446599992,None,609.4654409498442,None,,,,,,,,,,,,s279_02232024,001,2024-02-23_14h26.30.640,test_typingtask_norepeats,2020.2.10,59.98566347089622,
theme,theme,,,,,0,90,90,90,,,,,,,,614.9654677000362,None,"['t', 'h', 'e', 'm', 'e']",1,"[0.9260919999796897, 1.1742501999251544, 1.4300498000811785, 1.6460649000946432, 1.7980269000399858]",614.9654677000362,None,614.9655059498734,None,,,,,,,,,,,,s279_02232024,001,2024-02-23_14h26.30.640,test_typingtask_norepeats,2020.2.10,59.98566347089622,
druze,druze,,,,,0,91,91,91,,,,,,,,620.4654703999404,None,"['d', 'r', 'u', 'z', 'e']",1,"[0.9381235998589545, 1.2420659000054002, 1.5781087998766452, 1.7380790000315756, 2.154472699854523]",620.4654703999404,None,620.4654975500423,None,,,,,,,,,,,,s279_02232024,001,2024-02-23_14h26.30.640,test_typingtask_norepeats,2020.2.10,59.98566347089622,
would,would,,,,,0,92,92,92,,,,,,,,625.9655326998327,None,"['w', 'o', 'u', 'l', 'd']",1,"[1.0300062999594957, 1.2539827001746744, 1.5179739000741392, 1.9659889000467956, 2.166163200046867]",625.9655326998327,None,625.9655408500228,626.0654944998678,,,,,,,,,,,,s279_02232024,001,2024-02-23_14h26.30.640,test_typingtask_norepeats,2020.2.10,59.98566347089622,
faqir,faqir,,,,,0,93,93,93,,,,,,,,631.4655559998937,None,"['f', 'a', 'q', 'i', 'r']",1,"[0.9139833999797702, 1.337972599780187, 1.769995499867946, 2.089971999870613, 2.2901774998754263]",631.4655559998937,None,631.4655693498905,None,,,,,,,,,,,,s279_02232024,001,2024-02-23_14h26.30.640,test_typingtask_norepeats,2020.2.10,59.98566347089622,
cheer,cheer,,,,,0,94,94,94,,,,,,,,636.9655782999471,None,"['c', 'h', 'e', 'e', 'r']",1,"[1.2299631999339908, 1.4859171998687088, 1.6859251998830587, 1.8619132998865098, 2.102065399987623]",636.9655782999471,None,636.9655442500487,None,,,,,,,,,,,,s279_02232024,001,2024-02-23_14h26.30.640,test_typingtask_norepeats,2020.2.10,59.98566347089622,
about,about,,,,,0,95,95,95,,,,,,,,642.4656089998316,None,"['a', 'b', 'o', 'u', 't']",1,"[0.7059382998850197, 0.9859277999494225, 1.2499857998918742, 1.545889399945736, 1.7378756999969482]",642.4656089998316,None,642.4656599498819,None,,,,,,,,,,,,s279_02232024,001,2024-02-23_14h26.30.640,test_typingtask_norepeats,2020.2.10,59.98566347089622,
zibja,zibja,,,,,0,96,96,96,,,,,,,,647.9656126999762,None,"['z', 'i', 'b', 'j', 'a']",1,"[1.150057899998501, 1.4538983998354524, 1.821911099832505, 2.021879500010982, 2.2220743999350816]",647.9656126999762,None,647.9656436498742,None,,,,,,,,,,,,s279_02232024,001,2024-02-23_14h26.30.640,test_typingtask_norepeats,2020.2.10,59.98566347089622,
heond,heond,,,,,0,97,97,97,,,,,,,,653.4656703998335,None,"['h', 'e', 'o', 'n', 'd']",1,"[1.0340007001068443, 1.2738147000782192, 1.4579427000135183, 1.722000400070101, 1.9058249001391232]",653.4656703998335,None,653.4656616500113,None,,,,,,,,,,,,s279_02232024,001,2024-02-23_14h26.30.640,test_typingtask_norepeats,2020.2.10,59.98566347089622,
therm,therm,,,,,0,98,98,98,,,,,,,,658.9656913999934,None,"['t', 'h', 'e', 'r', 'm']",1,"[0.8858208998572081, 1.0778212000150234, 1.2458775998093188, 1.4457880000118166, 1.6538054998964071]",658.9656913999934,None,658.9656827498227,None,,,,,,,,,,,,s279_02232024,001,2024-02-23_14h26.30.640,test_typingtask_norepeats,2020.2.10,59.98566347089622,
puppy,puppy,,,,,0,99,99,99,,,,,,,,664.4656976000406,None,"['p', 'u', 'p', 'p', 'y']",1,"[1.0339647999498993, 1.3217903999611735, 1.6257934998720884, 1.801774200052023, 2.10577329993248]",664.4656976000406,None,664.4656954500358,None,,,,,,,,,,,,s279_02232024,001,2024-02-23_14h26.30.640,test_typingtask_norepeats,2020.2.10,59.98566347089622,
edthe,edthe,,,,,0,100,100,100,,,,,,,,669.9657536998857,None,"['e', 'd', 't', 'h', 'e']",1,"[0.9577380998525769, 1.2057308999355882, 1.4937223999295384, 1.6777689999435097, 1.861837700009346]",669.9657536998857,None,669.9657350498717,None,,,,,,,,,,,,s279_02232024,001,2024-02-23_14h26.30.640,test_typingtask_norepeats,2020.2.10,59.98566347089622,
pykka,pykka,,,,,0,101,101,101,,,,,,,,675.4657719999086,None,"['p', 'y', 'k', 'k', 'a']",1,"[0.9537178000900894, 1.3379093001130968, 1.7296870001591742, 1.865777000086382, 2.049673300003633]",675.4657719999086,None,675.4657203498762,None,,,,,,,,,,,,s279_02232024,001,2024-02-23_14h26.30.640,test_typingtask_norepeats,2020.2.10,59.98566347089622,
heond,heond,,,,,0,102,102,102,,,,,,,,680.9657701998949,None,"['h', 'e', 'o', 'n', 'd']",1,"[0.9417173999827355, 1.1898252998944372, 1.3738154000602663, 1.6218234000261873, 1.7977285999804735]",680.9657701998949,None,680.9657956498675,None,,,,,,,,,,,,s279_02232024,001,2024-02-23_14h26.30.640,test_typingtask_norepeats,2020.2.10,59.98566347089622,
cooed,cooed,,,,,0,103,103,103,,,,,,,,686.4658337000292,None,"['c', 'o', 'o', 'e', 'd']",1,"[0.9536552000790834, 1.2738057000096887, 1.4417481001000851, 1.5856261001899838, 1.8016403000801802]",686.4658337000292,None,686.4658217499498,None,,,,,,,,,,,,s279_02232024,001,2024-02-23_14h26.30.640,test_typingtask_norepeats,2020.2.10,59.98566347089622,
tithe,tithe,,,,,0,104,104,104,,,,,,,,691.9658725999761,None,"['t', 'i', 't', 'h', 'e']",1,"[0.9656006000004709, 1.157698799856007, 1.3416618998162448, 1.5095961999613792, 1.7015949999913573]",691.9658725999761,None,691.9658682499546,None,,,,,,,,,,,,s279_02232024,001,2024-02-23_14h26.30.640,test_typingtask_norepeats,2020.2.10,59.98566347089622,
heond,heond,,,,,0,105,105,105,,,,,,,,697.4658857998438,None,"['h', 'e', 'o', 'n', 'd']",1,"[0.9455814000684768, 1.1855856000911444, 1.3615695000626147, 1.6495624999515712, 1.8416967000812292]",697.4658857998438,None,697.465880250046,None,,,,,,,,,,,,s279_02232024,001,2024-02-23_14h26.30.640,test_typingtask_norepeats,2020.2.10,59.98566347089622,
zibja,zibja,,,,,0,106,106,106,,,,,,,,702.9659132000525,None,"['z', 'i', 'b', 'j', 'a']",1,"[1.0295494999736547, 1.309699600096792, 1.7095489001367241, 1.8936724001541734, 2.0856370001565665]",702.9659132000525,None,702.9659261500462,None,,,,,,,,,,,,s279_02232024,001,2024-02-23_14h26.30.640,test_typingtask_norepeats,2020.2.10,59.98566347089622,
champ,champ,,,,,0,107,107,107,,,,,,,,708.4659402999096,None,"['c', 'h', 'a', 'm', 'p']",1,"[0.9215269000269473, 1.1456347000785172, 1.3776690000668168, 1.6015657999087125, 1.8975066000130028]",708.4659402999096,None,708.4658866498619,None,,,,,,,,,,,,s279_02232024,001,2024-02-23_14h26.30.640,test_typingtask_norepeats,2020.2.10,59.98566347089622,
haole,haole,,,,,0,108,108,108,,,,,,,,713.965935499873,None,"['h', 'a', 'o', 'l', 'e']",1,"[1.0855189999565482, 1.3175226000603288, 1.5736793999094516, 1.8214907001238316, 2.029491600114852]",713.965935499873,None,713.9659636499825,None,,,,,,,,,,,,s279_02232024,001,2024-02-23_14h26.30.640,test_typingtask_norepeats,2020.2.10,59.98566347089622,
druze,druze,,,,,0,109,109,109,,,,,,,,719.4660054999404,None,"['d', 'r', 'u', 'z', 'e']",1,"[0.9374420000240207, 1.2094413000158966, 1.481423299992457, 1.6655542999505997, 2.0494520999491215]",719.4660054999404,None,719.4659606499597,None,,,,,,,,,,,,s279_02232024,001,2024-02-23_14h26.30.640,test_typingtask_norepeats,2020.2.10,59.98566347089622,
champ,champ,,,,,0,110,110,110,,,,,,,,724.9660246998537,None,"['c', 'h', 'a', 'm', 'p']",1,"[0.8614269001409411, 1.1094345999881625, 1.2935158000327647, 1.5175189999863505, 1.8214002000167966]",724.9660246998537,None,724.9660222499631,None,,,,,,,,,,,,s279_02232024,001,2024-02-23_14h26.30.640,test_typingtask_norepeats,2020.2.10,59.98566347089622,
would,would,,,,,0,111,111,111,,,,,,,,730.4660519999452,None,"['w', 'o', 'u', 'l', 'd']",1,"[0.9853862000163645, 1.1935066001024097, 1.4574673001188785, 1.8253848999738693, 2.0333760001230985]",730.4660519999452,None,730.4660433500073,None,,,,,,,,,,,,s279_02232024,001,2024-02-23_14h26.30.640,test_typingtask_norepeats,2020.2.10,59.98566347089622,
champ,champ,,,,,0,112,112,112,,,,,,,,735.9660836998373,None,"['c', 'h', 'a', 'm', 'p']",1,"[0.8693663000594825, 1.0693157999776304, 1.2934436998330057, 1.4853097000159323, 1.7413317998871207]",735.9660836998373,None,735.9660377499647,None,,,,,,,,,,,,s279_02232024,001,2024-02-23_14h26.30.640,test_typingtask_norepeats,2020.2.10,59.98566347089622,
theme,theme,,,,,0,113,113,113,,,,,,,,741.4660781999119,None,"['t', 'h', 'e', 'm', 'e']",1,"[0.8813477999065071, 1.0414569999556988, 1.2653188998810947, 1.4654683999251574, 1.6173274999018759]",741.4660781999119,None,741.4661006498616,None,,,,,,,,,,,,s279_02232024,001,2024-02-23_14h26.30.640,test_typingtask_norepeats,2020.2.10,59.98566347089622,
cooed,cooed,,,,,0,114,114,114,,,,,,,,746.966103799874,None,"['c', 'o', 'o', 'e', 'd']",1,"[0.8453383001033217, 1.1653869000729173, 1.3173599999863654, 1.4694370001088828, 1.7013016000855714]",746.966103799874,None,746.9661309499759,None,,,,,,,,,,,,s279_02232024,001,2024-02-23_14h26.30.640,test_typingtask_norepeats,2020.2.10,59.98566347089622,
would,would,,,,,0,115,115,115,,,,,,,,752.466169900028,None,"['w', 'o', 'u', 'l', 'd']",1,"[0.8412418998777866, 1.1132535999640822, 1.3534305000212044, 1.7532017999328673, 1.969315499998629]",752.466169900028,None,752.466161149973,None,,,,,,,,,,,,s279_02232024,001,2024-02-23_14h26.30.640,test_typingtask_norepeats,2020.2.10,59.98566347089622,
think,think,,,,,0,116,116,116,,,,,,,,757.9662168000359,None,"['t', 'h', 'i', 'n', 'k']",1,"[0.8133101998828351, 1.0131826000288129, 1.2133019999600947, 1.4692438999190927, 1.6211754998657852]",757.9662168000359,None,757.9661860500462,None,,,,,,,,,,,,s279_02232024,001,2024-02-23_14h26.30.640,test_typingtask_norepeats,2020.2.10,59.98566347089622,
champ,champ,,,,,0,117,117,117,,,,,,,,763.466189699946,None,"['c', 'h', 'a', 'm', 'p']",1,"[0.9532675999216735, 1.16931529995054, 1.3771857998799533, 1.5933377998881042, 1.857322599971667]",763.466189699946,None,763.4662102499976,None,,,,,,,,,,,,s279_02232024,001,2024-02-23_14h26.30.640,test_typingtask_norepeats,2020.2.10,59.98566347089622,
about,about,,,,,0,118,118,118,,,,,,,,768.9662591000088,None,"['a', 'b', 'o', 'u', 't']",1,"[0.7011687001213431, 0.9811591000761837, 1.2451464000623673, 1.4932570001110435, 1.6612760999705642]",768.9662591000088,None,768.9662446500267,None,,,,,,,,,,,,s279_02232024,001,2024-02-23_14h26.30.640,test_typingtask_norepeats,2020.2.10,59.98566347089622,
buddy,buddy,,,,,0,119,119,119,,,,,,,,774.4662647999357,None,"['b', 'u', 'd', 'd', 'y']",1,"[0.985136300092563, 1.2651672000065446, 1.5052334000356495, 1.6971519000362605, 1.865118999965489]",774.4662647999357,None,774.466271449998,None,,,,,,,,,,,,s279_02232024,001,2024-02-23_14h26.30.640,test_typingtask_norepeats,2020.2.10,59.98566347089622,
vanru,vanru,,,,,,,,,0,0,0,0,,,,,,,,,,,,,779.9663231000304,None,802.849754099967,None,"['v', 'a', 'n', 'r', 'u']",1,"[1.1776296000462025, 1.4256297000683844, 1.649617100134492, 1.841598100028932, 2.041588200023398]",802.849754099967,None,802.8497464500367,None,s279_02232024,001,2024-02-23_14h26.30.640,test_typingtask_norepeats,2020.2.10,59.98566347089622,
edthe,edthe,,,,,,,,,0,1,1,1,,,,,,,,,,,,,,,808.3497826999519,None,"['e', 'd', 't', 'h', 'e']",1,"[0.9415857999119908, 1.2135872000362724, 1.5095406000036746, 1.6616962999105453, 1.8215810998808593]",808.3497826999519,None,808.3497827499639,None,s279_02232024,001,2024-02-23_14h26.30.640,test_typingtask_norepeats,2020.2.10,59.98566347089622,
cooed,cooed,,,,,,,,,0,2,2,2,,,,,,,,,,,,,,,813.8498118999414,None,"['c', 'o', 'o', 'e', 'd']",1,"[1.0496425000019372, 1.3935469000134617, 1.545519300037995, 1.649533199844882, 1.889532299945131]",813.8498118999414,None,813.8498070500325,None,s279_02232024,001,2024-02-23_14h26.30.640,test_typingtask_norepeats,2020.2.10,59.98566347089622,
vanru,vanru,,,,,,,,,0,3,3,3,,,,,,,,,,,,,,,819.3498511000071,None,"['v', 'a', 'n', 'r', 'u']",1,"[0.9655214999802411, 1.213501799851656, 1.437555099837482, 1.597586499992758, 1.7735311998985708]",819.3498511000071,None,819.3498074500355,None,s279_02232024,001,2024-02-23_14h26.30.640,test_typingtask_norepeats,2020.2.10,59.98566347089622,
lucky,lucky,,,,,,,,,0,4,4,4,,,,,,,,,,,,,,,824.8498449998442,None,"['l', 'u', 'c', 'k', 'y']",1,"[0.8815119999926537, 1.177465399960056, 1.3855127000715584, 1.553604600019753, 1.809497799957171]",824.8498449998442,None,824.8498814499005,None,s279_02232024,001,2024-02-23_14h26.30.640,test_typingtask_norepeats,2020.2.10,59.98566347089622,
pykka,pykka,,,,,,,,,0,5,5,5,,,,,,,,,,,,,,,830.349891099846,None,"['p', 'y', 'k', 'k', 'a']",1,"[0.9174518000800163, 1.2854405001271516, 1.701456499984488, 1.8375987000763416, 1.9814230999909341]",830.349891099846,None,830.3498995499219,None,s279_02232024,001,2024-02-23_14h26.30.640,test_typingtask_norepeats,2020.2.10,59.98566347089622,
would,would,,,,,,,,,0,6,6,6,,,,,,,,,,,,,,,835.8499224998523,None,"['w', 'o', 'u', 'l', 'd']",1,"[0.8734325999394059, 1.0975414998829365, 1.3533887998200953, 1.6734197000041604, 1.8655347998719662]",835.8499224998523,None,835.8499287499114,None,s279_02232024,001,2024-02-23_14h26.30.640,test_typingtask_norepeats,2020.2.10,59.98566347089622,
cooed,cooed,,,,,,,,,0,7,7,7,,,,,,,,,,,,,,,841.3499437000137,None,"['c', 'o', 'o', 'e', 'd']",1,"[0.8213826001156121, 1.1253710000310093, 1.2774827000685036, 1.3974870000965893, 1.597407199908048]",841.3499437000137,None,841.3499552499968,None,s279_02232024,001,2024-02-23_14h26.30.640,test_typingtask_norepeats,2020.2.10,59.98566347089622,
druze,druze,,,,,,,,,0,8,8,8,,,,,,,,,,,,,,,846.8499846998602,None,"['d', 'r', 'u', 'z', 'e']",1,"[0.8813570998609066, 1.121345499996096, 1.4174354998394847, 1.585305199958384, 1.9453525999560952]",846.8499846998602,None,846.8499503498431,None,s279_02232024,001,2024-02-23_14h26.30.640,test_typingtask_norepeats,2020.2.10,59.98566347089622,
tithe,tithe,,,,,,,,,0,9,9,9,,,,,,,,,,,,,,,852.3500285998452,None,"['t', 'i', 't', 'h', 'e']",1,"[0.797345699975267, 0.9972981000319123, 1.141267400002107, 1.3013085001148283, 1.4772973000071943]",852.3500285998452,None,852.3499815498478,None,s279_02232024,001,2024-02-23_14h26.30.640,test_typingtask_norepeats,2020.2.10,59.98566347089622,
there,there,,,,,,,,,0,10,10,10,,,,,,,,,,,,,,,857.8500184998848,None,"['t', 'h', 'e', 'r', 'e']",1,"[0.7853002999909222, 0.9534177000168711, 1.1052741000894457, 1.3372921999543905, 1.5612874999642372]",857.8500184998848,None,857.8500403498299,None,s279_02232024,001,2024-02-23_14h26.30.640,test_typingtask_norepeats,2020.2.10,59.98566347089622,
about,about,,,,,,,,,0,11,11,11,,,,,,,,,,,,,,,863.3500787999947,None,"['a', 'b', 'o', 'u', 't']",1,"[0.6292363998945802, 0.9012410999275744, 1.1573332999832928, 1.4052200999576598, 1.5572219998575747]",863.3500787999947,None,863.3500714499503,None,s279_02232024,001,2024-02-23_14h26.30.640,test_typingtask_norepeats,2020.2.10,59.98566347089622,
faqir,faqir,,,,,,,,,0,12,12,12,,,,,,,,,,,,,,,868.8501369999722,None,"['f', 'a', 'q', 'i', 'r']",1,"[0.9452824001200497, 1.2174800001084805, 1.7211531000211835, 1.9291956000961363, 2.1211629000026733]",868.8501369999722,None,868.8501050499733,None,s279_02232024,001,2024-02-23_14h26.30.640,test_typingtask_norepeats,2020.2.10,59.98566347089622,
lucky,lucky,,,,,,,,,0,13,13,13,,,,,,,,,,,,,,,874.3501460000407,None,"['l', 'u', 'c', 'k', 'y']",1,"[0.9891603998839855, 1.2771896000485867, 1.477164200041443, 1.677150399889797, 1.9411706998944283]",874.3501460000407,None,874.3501221499871,None,s279_02232024,001,2024-02-23_14h26.30.640,test_typingtask_norepeats,2020.2.10,59.98566347089622,
think,think,,,,,,,,,0,14,14,14,,,,,,,,,,,,,,,879.8501631000545,None,"['t', 'h', 'i', 'n', 'k']",1,"[0.8091394000221044, 0.9852499000262469, 1.1932431000750512, 1.4411922001745552, 1.6091257000807673]",879.8501631000545,None,879.8501553500071,None,s279_02232024,001,2024-02-23_14h26.30.640,test_typingtask_norepeats,2020.2.10,59.98566347089622,
therm,therm,,,,,,,,,0,15,15,15,,,,,,,,,,,,,,,885.3501984998584,None,"['t', 'h', 'e', 'r', 'm']",1,"[0.7251132000237703, 0.8931303001008928, 1.141223100014031, 1.325225500157103, 1.541224299930036]",885.3501984998584,None,885.3501875500194,None,s279_02232024,001,2024-02-23_14h26.30.640,test_typingtask_norepeats,2020.2.10,59.98566347089622,
cooed,cooed,,,,,,,,,0,16,16,16,,,,,,,,,,,,,,,890.8509708000347,None,"['c', 'o', 'o', 'e', 'd']",1,"[0.9363213998731226, 1.26437019999139, 1.424444600008428, 1.6166769999545068, 1.8803163000848144]",890.8509708000347,None,890.8502058500424,None,s279_02232024,001,2024-02-23_14h26.30.640,test_typingtask_norepeats,2020.2.10,59.98566347089622,
pykka,pykka,,,,,,,,,0,17,17,17,,,,,,,,,,,,,,,896.3502894998528,None,"['p', 'y', 'k', 'k', 'a']",1,"[0.9650207001250237, 1.388996599940583, 1.8049935000017285, 1.9329717000946403, 2.2291697999462485]",896.3502894998528,None,896.3502528499346,None,s279_02232024,001,2024-02-23_14h26.30.640,test_typingtask_norepeats,2020.2.10,59.98566347089622,
kremp,kremp,,,,,,,,,0,18,18,18,,,,,,,,,,,,,,,901.8502890998498,None,"['k', 'r', 'e', 'm', 'p']",1,"[1.0331560999620706, 1.2490512998774648, 1.4970509000122547, 1.6570986998267472, 1.8810769999399781]",901.8502890998498,None,901.8502815500367,None,s279_02232024,001,2024-02-23_14h26.30.640,test_typingtask_norepeats,2020.2.10,59.98566347089622,
haole,haole,,,,,,,,,0,19,19,19,,,,,,,,,,,,,,,907.3503155999351,None,"['h', 'a', 'o', 'l', 'e']",1,"[1.092972000129521, 1.308964400086552, 1.5170250001829118, 1.7410726000089198, 1.9330025999806821]",907.3503155999351,None,907.3502753499895,None,s279_02232024,001,2024-02-23_14h26.30.640,test_typingtask_norepeats,2020.2.10,59.98566347089622,
druze,druze,,,,,,,,,0,20,20,20,,,,,,,,,,,,,,,912.8503491999581,None,"['d', 'r', 'u', 'z', 'e']",1,"[0.7929283999837935, 1.1609291001223028, 1.5609395999927074, 1.7290469000581652, 2.0489087000023574]",912.8503491999581,None,912.8503125500399,None,s279_02232024,001,2024-02-23_14h26.30.640,test_typingtask_norepeats,2020.2.10,59.98566347089622,
heond,heond,,,,,,,,,0,21,21,21,,,,,,,,,,,,,,,918.350385800004,None,"['h', 'e', 'o', 'n', 'd']",1,"[0.932988999877125, 1.1649407998193055, 1.3488661998417228, 1.572880299994722, 1.7329022998455912]",918.350385800004,None,918.3504535499494,None,s279_02232024,001,2024-02-23_14h26.30.640,test_typingtask_norepeats,2020.2.10,59.98566347089622,
belly,belly,,,,,,,,,0,22,22,22,,,,,,,,,,,,,,,923.8504087999463,None,"['b', 'e', 'l', 'l', 'y']",1,"[0.9128612999338657, 1.1369729000143707, 1.376982499845326, 1.5368294999934733, 1.840873699868098]",923.8504087999463,None,923.8504028499126,None,s279_02232024,001,2024-02-23_14h26.30.640,test_typingtask_norepeats,2020.2.10,59.98566347089622,
therm,therm,,,,,,,,,0,23,23,23,,,,,,,,,,,,,,,929.350441499846,None,"['t', 'h', 'e', 'r', 'm']",1,"[0.8048149000387639, 0.9968477999791503, 1.1889865000266582, 1.3807908999733627, 1.5968061001040041]",929.350441499846,None,929.3504301500041,None,s279_02232024,001,2024-02-23_14h26.30.640,test_typingtask_norepeats,2020.2.10,59.98566347089622,
druze,druze,,,,,,,,,0,24,24,24,,,,,,,,,,,,,,,934.8504677999299,None,"['d', 'r', 'u', 'z', 'e']",1,"[0.9767851000651717, 1.2648193999193609, 1.5848191999830306, 1.792903499910608, 2.11302990000695]",934.8504677999299,None,934.8504605500027,None,s279_02232024,001,2024-02-23_14h26.30.640,test_typingtask_norepeats,2020.2.10,59.98566347089622,
faqir,faqir,,,,,,,,,0,25,25,25,,,,,,,,,,,,,,,940.3505118999165,None,"['f', 'a', 'q', 'i', 'r']",1,"[0.9647307000122964, 1.236730600008741, 1.7807035001460463, 2.1008302001282573, 2.2687169001437724]",940.3505118999165,None,940.3505636499729,None,s279_02232024,001,2024-02-23_14h26.30.640,test_typingtask_norepeats,2020.2.10,59.98566347089622,
think,think,,,,,,,,,0,26,26,26,,,,,,,,,,,,,,,945.8505346998572,None,"['t', 'h', 'i', 'n', 'k']",1,"[0.8007177000399679, 0.9848428999539465, 1.192825899925083, 1.464709599968046, 1.6248775999993086]",945.8505346998572,None,945.8505210498813,None,s279_02232024,001,2024-02-23_14h26.30.640,test_typingtask_norepeats,2020.2.10,59.98566347089622,
theme,theme,,,,,,,,,0,27,27,27,,,,,,,,,,,,,,,951.3505448000506,None,"['t', 'h', 'e', 'm', 'e']",1,"[0.8046923000365496, 0.9966758000664413, 1.2046911001671106, 1.4286857000552118, 1.5887843000236899]",951.3505448000506,None,951.3505537500139,None,s279_02232024,001,2024-02-23_14h26.30.640,test_typingtask_norepeats,2020.2.10,59.98566347089622,
buddy,buddy,,,,,,,,,0,28,28,28,,,,,,,,,,,,,,,956.8505929999519,None,"['b', 'u', 'd', 'd', 'y']",1,"[0.8406467000022531, 1.1606148001737893, 1.3846050000283867, 1.5606386000290513, 1.6967575000599027]",956.8505929999519,None,956.850583550008,None,s279_02232024,001,2024-02-23_14h26.30.640,test_typingtask_norepeats,2020.2.10,59.98566347089622,
haole,haole,,,,,,,,,0,29,29,29,,,,,,,,,,,,,,,962.3506012000144,None,"['h', 'a', 'o', 'l', 'e']",1,"[0.892631100025028, 1.1087334000039846, 1.316687900107354, 1.5646144000347704, 1.7407839999068528]",962.3506012000144,None,962.3506048500537,None,s279_02232024,001,2024-02-23_14h26.30.640,test_typingtask_norepeats,2020.2.10,59.98566347089622,
vanru,vanru,,,,,,,,,0,30,30,30,,,,,,,,,,,,,,,967.8506344000343,None,"['v', 'a', 'n', 'r', 'u']",1,"[0.9446259001269937, 1.1605615001171827, 1.3926913000177592, 1.6085819001309574, 1.7686843001283705]",967.8506344000343,None,967.8506361499428,None,s279_02232024,001,2024-02-23_14h26.30.640,test_typingtask_norepeats,2020.2.10,59.98566347089622,
champ,champ,,,,,,,,,0,31,31,31,,,,,,,,,,,,,,,973.3506757998839,None,"['c', 'h', 'a', 'm', 'p']",1,"[0.9165801000781357, 1.1485459001269192, 1.3965308999177068, 1.5965181000065058, 1.852516199927777]",973.3506757998839,None,973.3506540499627,None,s279_02232024,001,2024-02-23_14h26.30.640,test_typingtask_norepeats,2020.2.10,59.98566347089622,
puppy,puppy,,,,,,,,,0,32,32,32,,,,,,,,,,,,,,,978.850672399858,None,"['p', 'u', 'p', 'p', 'y']",1,"[0.9365063000004739, 1.2005302000325173, 1.4645297001115978, 1.6245973999612033, 1.8725266000255942]",978.850672399858,None,978.8507153498474,None,s279_02232024,001,2024-02-23_14h26.30.640,test_typingtask_norepeats,2020.2.10,59.98566347089622,
pykka,pykka,,,,,,,,,0,33,33,33,,,,,,,,,,,,,,,984.3507001998369,None,"['p', 'y', 'k', 'k', 'a']",1,"[0.876510800095275, 1.164509000023827, 1.5325983001384884, 1.6764821000397205, 1.8204769000876695]",984.3507001998369,None,984.3507320498582,None,s279_02232024,001,2024-02-23_14h26.30.640,test_typingtask_norepeats,2020.2.10,59.98566347089622,
buddy,buddy,,,,,,,,,0,34,34,34,,,,,,,,,,,,,,,989.8507697000168,None,"['b', 'u', 'd', 'd', 'y']",1,"[0.960436400026083, 1.2644072000402957, 1.5204084001015872, 1.6885355999693274, 1.8564844001084566]",989.8507697000168,None,989.8507616498507,None,s279_02232024,001,2024-02-23_14h26.30.640,test_typingtask_norepeats,2020.2.10,59.98566347089622,
puppy,puppy,,,,,,,,,0,35,35,35,,,,,,,,,,,,,,,995.3507961998694,None,"['p', 'u', 'p', 'p', 'y']",1,"[0.8523843998555094, 1.1324088999535888, 1.3803906999528408, 1.5404215999878943, 1.788500600028783]",995.3507961998694,None,995.3508216498419,None,s279_02232024,001,2024-02-23_14h26.30.640,test_typingtask_norepeats,2020.2.10,59.98566347089622,
there,there,,,,,,,,,0,36,36,36,,,,,,,,,,,,,,,1000.850825099973,None,"['t', 'h', 'e', 'r', 'e']",1,"[0.832371300086379, 1.0325762999709696, 1.200365599943325, 1.4323493000119925, 1.6003413000144064]",1000.850825099973,None,1000.8508276498876,None,s279_02232024,001,2024-02-23_14h26.30.640,test_typingtask_norepeats,2020.2.10,59.98566347089622,
druze,druze,,,,,,,,,0,37,37,37,,,,,,,,,,,,,,,1006.3508996998426,None,"['d', 'r', 'u', 'z', 'e']",1,"[1.0602869000285864, 1.3002981999889016, 1.5724000001791865, 1.7483927002176642, 2.0442614001221955]",1006.3508996998426,None,1006.3508540498558,None,s279_02232024,001,2024-02-23_14h26.30.640,test_typingtask_norepeats,2020.2.10,59.98566347089622,
think,think,,,,,,,,,0,38,38,38,,,,,,,,,,,,,,,1011.8509205998853,None,"['t', 'h', 'i', 'n', 'k']",1,"[0.7842704001814127, 0.98424750007689, 1.176345500163734, 1.4082405001390725, 1.6082376001868397]",1011.8509205998853,None,1011.8509201500099,None,s279_02232024,001,2024-02-23_14h26.30.640,test_typingtask_norepeats,2020.2.10,59.98566347089622,
haole,haole,,,,,,,,,0,39,39,39,,,,,,,,,,,,,,,1017.3508935999125,None,"['h', 'a', 'o', 'l', 'e']",1,"[0.8762817999813706, 1.0762694999575615, 1.2602760000154376, 1.5003039999864995, 1.6843878999352455]",1017.3508935999125,None,1017.3509214499034,None,s279_02232024,001,2024-02-23_14h26.30.640,test_typingtask_norepeats,2020.2.10,59.98566347089622,
buddy,buddy,,,,,,,,,0,40,40,40,,,,,,,,,,,,,,,1022.8509579000529,None,"['b', 'u', 'd', 'd', 'y']",1,"[0.8962244000285864, 1.1923311999998987, 1.4322005999274552, 1.6083170999772847, 1.792180199874565]",1022.8509579000529,None,1022.8509428498335,None,s279_02232024,001,2024-02-23_14h26.30.640,test_typingtask_norepeats,2020.2.10,59.98566347089622,
vodka,vodka,,,,,,,,,0,41,41,41,,,,,,,,,,,,,,,1028.3510066999588,None,"['v', 'o', 'd', 'k', 'a']",1,"[0.9641609999816865, 1.2362669999711215, 1.4681754000484943, 1.740268599940464, 1.8521278998814523]",1028.3510066999588,None,1028.3509616499766,None,s279_02232024,001,2024-02-23_14h26.30.640,test_typingtask_norepeats,2020.2.10,59.98566347089622,
think,think,,,,,,,,,0,42,42,42,,,,,,,,,,,,,,,1033.8510898000095,None,"['t', 'h', 'i', 'n', 'k']",1,"[0.7600817000493407, 1.024077600101009, 1.2240945000667125, 1.4800382000394166, 1.6801324000116438]",1033.8510898000095,None,1033.8510607499163,None,s279_02232024,001,2024-02-23_14h26.30.640,test_typingtask_norepeats,2020.2.10,59.98566347089622,
edthe,edthe,,,,,,,,,0,43,43,43,,,,,,,,,,,,,,,1039.3510439000092,None,"['e', 'd', 't', 'h', 'e']",1,"[0.8841407999861985, 1.1322036997880787, 1.428122399840504, 1.5960872999858111, 1.7802042998373508]",1039.3510439000092,None,1039.3510380498599,None,s279_02232024,001,2024-02-23_14h26.30.640,test_typingtask_norepeats,2020.2.10,59.98566347089622,
buddy,buddy,,,,,,,,,0,44,44,44,,,,,,,,,,,,,,,1044.85106060002,None,"['b', 'u', 'd', 'd', 'y']",1,"[0.8401357000693679, 1.0720953000709414, 1.2800724999979138, 1.4641566001810133, 1.6401869000401348]",1044.85106060002,None,1044.851081949845,None,s279_02232024,001,2024-02-23_14h26.30.640,test_typingtask_norepeats,2020.2.10,59.98566347089622,
tithe,tithe,,,,,,,,,0,45,45,45,,,,,,,,,,,,,,,1050.3510751998983,None,"['t', 'i', 't', 'h', 'e']",1,"[0.8680799000430852, 1.0841884000692517, 1.26018669991754, 1.420133899897337, 1.6121737998910248]",1050.3510751998983,None,1050.3511092499364,None,s279_02232024,001,2024-02-23_14h26.30.640,test_typingtask_norepeats,2020.2.10,59.98566347089622,
would,would,,,,,,,,,0,46,46,46,,,,,,,,,,,,,,,1055.8511417000555,None,"['w', 'o', 'u', 'l', 'd']",1,"[0.8320858001243323, 1.0879893000237644, 1.3519598999992013, 1.6960020000115037, 1.8559884000569582]",1055.8511417000555,None,1055.851152650034,None,s279_02232024,001,2024-02-23_14h26.30.640,test_typingtask_norepeats,2020.2.10,59.98566347089622,
cheer,cheer,,,,,,,,,0,47,47,47,,,,,,,,,,,,,,,1061.3511876000557,None,"['c', 'h', 'e', 'e', 'r']",1,"[1.011945400154218, 1.228037300053984, 1.4199771001003683, 1.587914900155738, 1.772031300002709]",1061.3511876000557,None,1061.3511528500355,None,s279_02232024,001,2024-02-23_14h26.30.640,test_typingtask_norepeats,2020.2.10,59.98566347089622,
lucky,lucky,,,,,,,,,0,48,48,48,,,,,,,,,,,,,,,1066.8511926999781,None,"['l', 'u', 'c', 'k', 'y']",1,"[0.8879447998479009, 1.207951399963349, 1.3838899999391288, 1.5842054998502135, 1.8559520998969674]",1066.8511926999781,None,1066.8511906498577,None,s279_02232024,001,2024-02-23_14h26.30.640,test_typingtask_norepeats,2020.2.10,59.98566347089622,
think,think,,,,,,,,,0,49,49,49,,,,,,,,,,,,,,,1072.351225499995,None,"['t', 'h', 'i', 'n', 'k']",1,"[0.6919211000204086, 0.883883300004527, 1.0920059001073241, 1.2918720000889152, 1.451896300073713]",1072.351225499995,None,1072.35122595001,None,s279_02232024,001,2024-02-23_14h26.30.640,test_typingtask_norepeats,2020.2.10,59.98566347089622,
would,would,,,,,,,,,0,50,50,50,,,,,,,,,,,,,,,1077.8512217998505,None,"['w', 'o', 'u', 'l', 'd']",1,"[0.8079046001657844, 1.0159482001326978, 1.2638805001042783, 1.543894600123167, 1.7200257999356836]",1077.8512217998505,None,1077.8512508498504,None,s279_02232024,001,2024-02-23_14h26.30.640,test_typingtask_norepeats,2020.2.10,59.98566347089622,
vodka,vodka,,,,,,,,,0,51,51,51,,,,,,,,,,,,,,,1083.351446900051,None,"['v', 'o', 'd', 'k', 'a']",1,"[0.9876731999684125, 1.259646899998188, 1.419732099864632, 1.6596733999904245, 1.7877791998907924]",1083.351446900051,None,1083.3512809499632,1083.4512964999303,s279_02232024,001,2024-02-23_14h26.30.640,test_typingtask_norepeats,2020.2.10,59.98566347089622,
belly,belly,,,,,,,,,0,52,52,52,,,,,,,,,,,,,,,1088.8513133998495,None,"['b', 'e', 'l', 'l', 'y']",1,"[0.78409059997648, 0.9758866999763995, 1.2478088000789285, 1.391788100125268, 1.6559149001259357]",1088.8513133998495,None,1088.851314449869,None,s279_02232024,001,2024-02-23_14h26.30.640,test_typingtask_norepeats,2020.2.10,59.98566347089622,
champ,champ,,,,,,,,,0,53,53,53,,,,,,,,,,,,,,,1094.351317799883,None,"['c', 'h', 'a', 'm', 'p']",1,"[0.9077907998580486, 1.1557656999211758, 1.3557700999081135, 1.595800400013104, 1.8759021998848766]",1094.351317799883,None,1094.3513375499285,1094.4513564000372,s279_02232024,001,2024-02-23_14h26.30.640,test_typingtask_norepeats,2020.2.10,59.98566347089622,
cooed,cooed,,,,,,,,,0,54,54,54,,,,,,,,,,,,,,,1099.8514111000113,None,"['c', 'o', 'o', 'e', 'd']",1,"[0.815700399922207, 1.1196852999273688, 1.2877974999137223, 1.4318103999830782, 1.631774199893698]",1099.8514111000113,None,1099.8513417499605,1099.9514953999314,s279_02232024,001,2024-02-23_14h26.30.640,test_typingtask_norepeats,2020.2.10,59.98566347089622,
kremp,kremp,,,,,,,,,0,55,55,55,,,,,,,,,,,,,,,1105.3513777998742,None,"['k', 'r', 'e', 'm', 'p']",1,"[1.0277860998176038, 1.2357089999131858, 1.4357067998498678, 1.5637864999007434, 1.7797660999931395]",1105.3513777998742,None,1105.3514066498726,1105.4514110998716,s279_02232024,001,2024-02-23_14h26.30.640,test_typingtask_norepeats,2020.2.10,59.98566347089622,
there,there,,,,,,,,,0,56,56,56,,,,,,,,,,,,,,,1110.8514101000037,None,"['t', 'h', 'e', 'r', 'e']",1,"[0.7997855998110026, 0.9836425997782499, 1.127788299927488, 1.3676718999631703, 1.5676721998024732]",1110.8514101000037,None,1110.8514909499324,1110.9514250999782,s279_02232024,001,2024-02-23_14h26.30.640,test_typingtask_norepeats,2020.2.10,59.98566347089622,
kremp,kremp,,,,,,,,,0,57,57,57,,,,,,,,,,,,,,,1116.351470900001,None,"['k', 'r', 'e', 'm', 'p']",1,"[1.2998202999588102, 1.515587099827826, 1.7155974998604506, 1.9075899999588728, 2.211604799842462]",1116.351470900001,None,1116.3514764499384,1116.4514420998748,s279_02232024,001,2024-02-23_14h26.30.640,test_typingtask_norepeats,2020.2.10,59.98566347089622,
cooed,cooed,,,,,,,,,0,58,58,58,,,,,,,,,,,,,,,1121.851553000044,None,"['c', 'o', 'o', 'e', 'd']",1,"[0.879541700007394, 1.1835300999227911, 1.343495599925518, 1.4394817999564111, 1.6634981001261622]",1121.851553000044,None,1121.8515235499478,None,s279_02232024,001,2024-02-23_14h26.30.640,test_typingtask_norepeats,2020.2.10,59.98566347089622,
champ,champ,,,,,,,,,0,59,59,59,,,,,,,,,,,,,,,1127.3515353000257,None,"['c', 'h', 'a', 'm', 'p']",1,"[0.7958156000822783, 1.0275249001570046, 1.227642600191757, 1.4355446000117809, 1.7075258002150804]",1127.3515353000257,None,1127.35155524984,1127.4515398000367,s279_02232024,001,2024-02-23_14h26.30.640,test_typingtask_norepeats,2020.2.10,59.98566347089622,
cheer,cheer,,,,,,,,,0,60,60,60,,,,,,,,,,,,,,,1132.8515457999893,None,"['c', 'h', 'e', 'e', 'r']",1,"[0.815526399994269, 1.0555205999407917, 1.2476033999118954, 1.4316219999454916, 1.6075175998266786]",1132.8515457999893,None,1132.8515314498916,None,s279_02232024,001,2024-02-23_14h26.30.640,test_typingtask_norepeats,2020.2.10,59.98566347089622,
would,would,,,,,,,,,0,61,61,61,,,,,,,,,,,,,,,1138.3515859998297,None,"['w', 'o', 'u', 'l', 'd']",1,"[0.9235031001735479, 1.0994537000078708, 1.3474986001383513, 1.715485200053081, 2.0194723000749946]",1138.3515859998297,None,1138.3515890498645,None,s279_02232024,001,2024-02-23_14h26.30.640,test_typingtask_norepeats,2020.2.10,59.98566347089622,
druze,druze,,,,,,,,,0,62,62,62,,,,,,,,,,,,,,,1143.8516164000612,None,"['d', 'r', 'u', 'z', 'e']",1,"[0.8394571000244468, 1.1034482000395656, 1.3754464001394808, 1.5355438999831676, 1.847554099978879]",1143.8516164000612,None,1143.8516225500032,None,s279_02232024,001,2024-02-23_14h26.30.640,test_typingtask_norepeats,2020.2.10,59.98566347089622,
theme,theme,,,,,,,,,0,63,63,63,,,,,,,,,,,,,,,1149.3516428000294,None,"['t', 'h', 'e', 'm', 'e']",1,"[0.8274215999990702, 1.0275145000778139, 1.2355577999260277, 1.4353964999318123, 1.555501899914816]",1149.3516428000294,None,1149.3516592499334,None,s279_02232024,001,2024-02-23_14h26.30.640,test_typingtask_norepeats,2020.2.10,59.98566347089622,
about,about,,,,,,,,,0,64,64,64,,,,,,,,,,,,,,,1154.8516969999764,None,"['a', 'b', 'o', 'u', 't']",1,"[0.847362499916926, 1.0794720998965204, 1.3353368998505175, 1.57544990000315, 1.7114555998705328]",1154.8516969999764,None,1154.851684649894,None,s279_02232024,001,2024-02-23_14h26.30.640,test_typingtask_norepeats,2020.2.10,59.98566347089622,
faqir,faqir,,,,,,,,,0,65,65,65,,,,,,,,,,,,,,,1160.351717799902,None,"['f', 'a', 'q', 'i', 'r']",1,"[0.9393426000606269, 1.1954252000432462, 1.5393179000820965, 1.7634375002235174, 1.9473010001238436]",1160.351717799902,None,1160.351687750034,None,s279_02232024,001,2024-02-23_14h26.30.640,test_typingtask_norepeats,2020.2.10,59.98566347089622,
vodka,vodka,,,,,,,,,0,66,66,66,,,,,,,,,,,,,,,1165.8517229999416,None,"['v', 'o', 'd', 'k', 'a']",1,"[0.903362900018692, 1.271324599860236, 1.4793161998968571, 1.6793054000008851, 1.8314127998892218]",1165.8517229999416,None,1165.8517197500448,None,s279_02232024,001,2024-02-23_14h26.30.640,test_typingtask_norepeats,2020.2.10,59.98566347089622,
pykka,pykka,,,,,,,,,0,67,67,67,,,,,,,,,,,,,,,1171.3517501999158,None,"['p', 'y', 'k', 'k', 'a']",1,"[0.9632390001788735, 1.3233856000006199, 1.763285299995914, 1.9074097000993788, 2.035253900103271]",1171.3517501999158,None,1171.3517845498397,None,s279_02232024,001,2024-02-23_14h26.30.640,test_typingtask_norepeats,2020.2.10,59.98566347089622,
faqir,faqir,,,,,,,,,0,68,68,68,,,,,,,,,,,,,,,1176.851827800041,None,"['f', 'a', 'q', 'i', 'r']",1,"[0.9592119001317769, 1.215313000138849, 1.5911826000083238, 1.855251400033012, 2.0391880001407117]",1176.851827800041,None,1176.851831249846,None,s279_02232024,001,2024-02-23_14h26.30.640,test_typingtask_norepeats,2020.2.10,59.98566347089622,
puppy,puppy,,,,,,,,,0,69,69,69,,,,,,,,,,,,,,,1182.3518484998494,None,"['p', 'u', 'p', 'p', 'y']",1,"[0.867147000040859, 1.139159900136292, 1.4031579000875354, 1.5631671999581158, 1.7952352000866085]",1182.3518484998494,None,1182.3518474499695,None,s279_02232024,001,2024-02-23_14h26.30.640,test_typingtask_norepeats,2020.2.10,59.98566347089622,
theme,theme,,,,,,,,,0,70,70,70,,,,,,,,,,,,,,,1187.851875900058,None,"['t', 'h', 'e', 'm', 'e']",1,"[0.8071518000215292, 0.9912529001012444, 1.2071520001627505, 1.399142400128767, 1.5432891000527889]",1187.851875900058,None,1187.8518881499301,None,s279_02232024,001,2024-02-23_14h26.30.640,test_typingtask_norepeats,2020.2.10,59.98566347089622,
edthe,edthe,,,,,,,,,0,71,71,71,,,,,,,,,,,,,,,1193.3519098998513,None,"['e', 'd', 't', 'h', 'e']",1,"[0.8191274998243898, 1.0270827999338508, 1.27518119988963, 1.427079699933529, 1.5872025999706239]",1193.3519098998513,None,1193.3518937499728,None,s279_02232024,001,2024-02-23_14h26.30.640,test_typingtask_norepeats,2020.2.10,59.98566347089622,
about,about,,,,,,,,,0,72,72,72,,,,,,,,,,,,,,,1198.8519396998454,None,"['a', 'b', 'o', 'u', 't']",1,"[0.6950688001234084, 0.9270711001008749, 1.1910322001203895, 1.4470712000038475, 1.6230487001594156]",1198.8519396998454,None,1198.8519360499456,None,s279_02232024,001,2024-02-23_14h26.30.640,test_typingtask_norepeats,2020.2.10,59.98566347089622,
therm,therm,,,,,,,,,0,73,73,73,,,,,,,,,,,,,,,1204.3520763998386,None,"['t', 'h', 'e', 'r', 'm']",1,"[0.7310222000814974, 0.9229141001123935, 1.2029439001344144, 1.6829455001279712, 1.9149059001356363]",1204.3520763998386,None,1204.3519622499123,None,s279_02232024,001,2024-02-23_14h26.30.640,test_typingtask_norepeats,2020.2.10,59.98566347089622,
would,would,,,,,,,,,0,74,74,74,,,,,,,,,,,,,,,1209.8520041999873,None,"['w', 'o', 'u', 'l', 'd']",1,"[0.943021799903363, 1.166953899897635, 1.3990288998465985, 1.759028699947521, 1.919111399911344]",1209.8520041999873,None,1209.851962550031,None,s279_02232024,001,2024-02-23_14h26.30.640,test_typingtask_norepeats,2020.2.10,59.98566347089622,
zibja,zibja,,,,,,,,,0,75,75,75,,,,,,,,,,,,,,,1215.3520847999025,None,"['z', 'i', 'b', 'j', 'a']",1,"[1.026912200031802, 1.3070157000329345, 1.6909154001623392, 1.890907500172034, 2.0428943999577314]",1215.3520847999025,None,1215.3520298499614,None,s279_02232024,001,2024-02-23_14h26.30.640,test_typingtask_norepeats,2020.2.10,59.98566347089622,
theme,theme,,,,,,,,,0,76,76,76,,,,,,,,,,,,,,,1220.852039600024,None,"['t', 'h', 'e', 'm', 'e']",1,"[0.7509568000677973, 0.9270653000567108, 1.1270467001013458, 1.3430681000463665, 1.4469282000791281]",1220.852039600024,None,1220.8520339498762,None,s279_02232024,001,2024-02-23_14h26.30.640,test_typingtask_norepeats,2020.2.10,59.98566347089622,
haole,haole,,,,,,,,,0,77,77,77,,,,,,,,,,,,,,,1226.3521034000441,None,"['h', 'a', 'o', 'l', 'e']",1,"[0.9549185000360012, 1.1868799000512809, 1.4108743001706898, 1.6028666000347584, 1.7950023000594229]",1226.3521034000441,None,1226.3520626499783,None,s279_02232024,001,2024-02-23_14h26.30.640,test_typingtask_norepeats,2020.2.10,59.98566347089622,
tithe,tithe,,,,,,,,,0,78,78,78,,,,,,,,,,,,,,,1231.852138399845,None,"['t', 'i', 't', 'h', 'e']",1,"[0.8628411998506635, 1.0308780998457223, 1.1749269999563694, 1.358807599870488, 1.5029374998994172]",1231.852138399845,None,1231.8521244499832,None,s279_02232024,001,2024-02-23_14h26.30.640,test_typingtask_norepeats,2020.2.10,59.98566347089622,
belly,belly,,,,,,,,,0,79,79,79,,,,,,,,,,,,,,,1237.3521682999562,None,"['b', 'e', 'l', 'l', 'y']",1,"[0.7949264000635594, 1.0269317000638694, 1.2829128000885248, 1.4349003001116216, 1.7467905001249164]",1237.3521682999562,None,1237.3521650498267,None,s279_02232024,001,2024-02-23_14h26.30.640,test_typingtask_norepeats,2020.2.10,59.98566347089622,
about,about,,,,,,,,,0,80,80,80,,,,,,,,,,,,,,,1242.85219759983,None,"['a', 'b', 'o', 'u', 't']",1,"[0.7588463998399675, 1.0067646999377757, 1.254752199864015, 1.5027485999744385, 1.6707580999936908]",1242.85219759983,None,1242.852189650014,None,s279_02232024,001,2024-02-23_14h26.30.640,test_typingtask_norepeats,2020.2.10,59.98566347089622,
theme,theme,,,,,,,,,0,81,81,81,,,,,,,,,,,,,,,1248.3522186998744,None,"['t', 'h', 'e', 'm', 'e']",1,"[0.8187849000096321, 0.9868173999711871, 1.2108477998990566, 1.4427216998301446, 1.6028634998947382]",1248.3522186998744,None,1248.3522130499593,None,s279_02232024,001,2024-02-23_14h26.30.640,test_typingtask_norepeats,2020.2.10,59.98566347089622,
lucky,lucky,,,,,,,,,0,82,82,82,,,,,,,,,,,,,,,1253.8522621998563,None,"['l', 'u', 'c', 'k', 'y']",1,"[1.1107011998537928, 1.4387191999703646, 1.7347223998513073, 1.8947603998240083, 2.1666686998214573]",1253.8522621998563,None,1253.8522490500006,None,s279_02232024,001,2024-02-23_14h26.30.640,test_typingtask_norepeats,2020.2.10,59.98566347089622,
there,there,,,,,,,,,0,83,83,83,,,,,,,,,,,,,,,1259.3522617998533,None,"['t', 'h', 'e', 'r', 'e']",1,"[0.8187329999636859, 0.9948046000208706, 1.1626712998840958, 1.4106744998134673, 1.6426855998579413]",1259.3522617998533,None,1259.3522881499491,None,s279_02232024,001,2024-02-23_14h26.30.640,test_typingtask_norepeats,2020.2.10,59.98566347089622,
tithe,tithe,,,,,,,,,0,84,84,84,,,,,,,,,,,,,,,1264.852318600053,None,"['t', 'i', 't', 'h', 'e']",1,"[0.806643099989742, 1.0386315998621285, 1.2147653000429273, 1.366595899919048, 1.5747580998577178]",1264.852318600053,None,1264.852315650042,None,s279_02232024,001,2024-02-23_14h26.30.640,test_typingtask_norepeats,2020.2.10,59.98566347089622,
heond,heond,,,,,,,,,0,85,85,85,,,,,,,,,,,,,,,1270.3523605999071,None,"['h', 'e', 'o', 'n', 'd']",1,"[0.8906228002160788, 1.1226585002150387, 1.2985846002120525, 1.5545785001013428, 1.7146338000893593]",1270.3523605999071,None,1270.3524445499759,None,s279_02232024,001,2024-02-23_14h26.30.640,test_typingtask_norepeats,2020.2.10,59.98566347089622,
zibja,zibja,,,,,,,,,0,86,86,86,,,,,,,,,,,,,,,1275.8523711999878,None,"['z', 'i', 'b', 'j', 'a']",1,"[1.054590200074017, 1.3425664000678807, 1.6385755001101643, 1.862581100082025, 2.0146667999215424]",1275.8523711999878,None,1275.8523649498354,None,s279_02232024,001,2024-02-23_14h26.30.640,test_typingtask_norepeats,2020.2.10,59.98566347089622,
pykka,pykka,,,,,,,,,0,87,87,87,,,,,,,,,,,,,,,1281.3523798999377,None,"['p', 'y', 'k', 'k', 'a']",1,"[1.0825911001302302, 1.3865633001551032, 1.7385460999794304, 1.8825459000654519, 2.018540100194514]",1281.3523798999377,None,1281.3524438498541,None,s279_02232024,001,2024-02-23_14h26.30.640,test_typingtask_norepeats,2020.2.10,59.98566347089622,
therm,therm,,,,,,,,,0,88,88,88,,,,,,,,,,,,,,,1286.8524221000262,None,"['t', 'h', 'e', 'r', 'm']",1,"[0.8305212000850588, 1.0385105998720974, 1.182479300070554, 1.4146082000806928, 1.5905150999315083]",1286.8524221000262,None,1286.8524236499331,None,s279_02232024,001,2024-02-23_14h26.30.640,test_typingtask_norepeats,2020.2.10,59.98566347089622,
cheer,cheer,,,,,,,,,0,89,89,89,,,,,,,,,,,,,,,1292.3524457998574,None,"['c', 'h', 'e', 'e', 'r']",1,"[0.8824821999296546, 1.1464953001122922, 1.3624917000997812, 1.5465146000497043, 1.794454500079155]",1292.3524457998574,None,1292.3524820499122,None,s279_02232024,001,2024-02-23_14h26.30.640,test_typingtask_norepeats,2020.2.10,59.98566347089622,
kremp,kremp,,,,,,,,,0,90,90,90,,,,,,,,,,,,,,,1297.8524702999275,None,"['k', 'r', 'e', 'm', 'p']",1,"[1.0384488001000136, 1.2945640000980347, 1.486425400013104, 1.6304733001161367, 1.854617099976167]",1297.8524702999275,None,1297.8525195498485,None,s279_02232024,001,2024-02-23_14h26.30.640,test_typingtask_norepeats,2020.2.10,59.98566347089622,
lucky,lucky,,,,,,,,,0,91,91,91,,,,,,,,,,,,,,,1303.352538399864,None,"['l', 'u', 'c', 'k', 'y']",1,"[0.9383810998406261, 1.2423866998869926, 1.474375099875033, 1.650372999953106, 1.930368899833411]",1303.352538399864,None,1303.3525399500038,None,s279_02232024,001,2024-02-23_14h26.30.640,test_typingtask_norepeats,2020.2.10,59.98566347089622,
belly,belly,,,,,,,,,0,92,92,92,,,,,,,,,,,,,,,1308.8525694999844,None,"['b', 'e', 'l', 'l', 'y']",1,"[0.7743683001026511, 0.9983236000407487, 1.2304211999289691, 1.398463899968192, 1.6623315000906587]",1308.8525694999844,None,1308.8525611499324,None,s279_02232024,001,2024-02-23_14h26.30.640,test_typingtask_norepeats,2020.2.10,59.98566347089622,
heond,heond,,,,,,,,,0,93,93,93,,,,,,,,,,,,,,,1314.3526031000074,None,"['h', 'e', 'o', 'n', 'd']",1,"[0.8583017999771982, 1.034312800038606, 1.218299200059846, 1.4663798999972641, 1.5785115999169648]",1314.3526031000074,None,1314.352600349998,None,s279_02232024,001,2024-02-23_14h26.30.640,test_typingtask_norepeats,2020.2.10,59.98566347089622,
cheer,cheer,,,,,,,,,0,94,94,94,,,,,,,,,,,,,,,1319.8526327,None,"['c', 'h', 'e', 'e', 'r']",1,"[1.0062767998315394, 1.2463300998788327, 1.8863670998252928, 2.1342396999243647, 2.4222496999427676]",1319.8526327,None,1319.8526379500515,None,s279_02232024,001,2024-02-23_14h26.30.640,test_typingtask_norepeats,2020.2.10,59.98566347089622,
vanru,vanru,,,,,,,,,0,95,95,95,,,,,,,,,,,,,,,1325.352662099991,None,"['v', 'a', 'n', 'r', 'u']",1,"[0.9942755999509245, 1.2102347000036389, 1.4342223000712693, 1.6343062999658287, 1.7943408999126405]",1325.352662099991,None,1325.3526676499284,None,s279_02232024,001,2024-02-23_14h26.30.640,test_typingtask_norepeats,2020.2.10,59.98566347089622,
there,there,,,,,,,,,0,96,96,96,,,,,,,,,,,,,,,1330.852662899997,None,"['t', 'h', 'e', 'r', 'e']",1,"[0.8382522999309003, 1.0061971999239177, 1.1581882999744266, 1.3902474998030812, 1.5981812998652458]",1330.852662899997,None,1330.852691949997,None,s279_02232024,001,2024-02-23_14h26.30.640,test_typingtask_norepeats,2020.2.10,59.98566347089622,
heond,heond,,,,,,,,,0,97,97,97,,,,,,,,,,,,,,,1336.3527382998727,None,"['h', 'e', 'o', 'n', 'd']",1,"[0.8421545000746846, 1.0341711000073701, 1.2262504999525845, 1.5861516001168638, 1.7382449000142515]",1336.3527382998727,None,1336.3526910498738,None,s279_02232024,001,2024-02-23_14h26.30.640,test_typingtask_norepeats,2020.2.10,59.98566347089622,
champ,champ,,,,,,,,,0,98,98,98,,,,,,,,,,,,,,,1341.8528167998884,None,"['c', 'h', 'a', 'm', 'p']",1,"[0.9020734000951052, 1.110148400068283, 1.3180524001363665, 1.4940391001291573, 1.7260494001675397]",1341.8528167998884,None,1341.852759849932,None,s279_02232024,001,2024-02-23_14h26.30.640,test_typingtask_norepeats,2020.2.10,59.98566347089622,
puppy,puppy,,,,,,,,,0,99,99,99,,,,,,,,,,,,,,,1347.35276290006,None,"['p', 'u', 'p', 'p', 'y']",1,"[0.8821121000219136, 1.170095399953425, 1.410096799954772, 1.5620945000555366, 1.8021837999112904]",1347.35276290006,None,1347.3527557500172,None,s279_02232024,001,2024-02-23_14h26.30.640,test_typingtask_norepeats,2020.2.10,59.98566347089622,
vodka,vodka,,,,,,,,,0,100,100,100,,,,,,,,,,,,,,,1352.8527968998533,None,"['v', 'o', 'd', 'k', 'a']",1,"[1.1500796999316663, 1.3582690998446196, 1.5900464998558164, 1.8700617998838425, 1.9982145000249147]",1352.8527968998533,None,1352.852783549996,None,s279_02232024,001,2024-02-23_14h26.30.640,test_typingtask_norepeats,2020.2.10,59.98566347089622,
buddy,buddy,,,,,,,,,0,101,101,101,,,,,,,,,,,,,,,1358.3529463000596,None,"['b', 'u', 'd', 'd', 'y']",1,"[0.9779254000168294, 1.2899022998753935, 1.5139529998414218, 1.6660110999364406, 1.794032400008291]",1358.3529463000596,None,1358.3528534499462,None,s279_02232024,001,2024-02-23_14h26.30.640,test_typingtask_norepeats,2020.2.10,59.98566347089622,
therm,therm,,,,,,,,,0,102,102,102,,,,,,,,,,,,,,,1363.8528885999694,None,"['t', 'h', 'e', 'r', 'm']",1,"[0.8060002999845892, 1.0059712000656873, 1.1420702999457717, 1.357989100040868, 1.5019386000931263]",1363.8528885999694,None,1363.8528860499616,None,s279_02232024,001,2024-02-23_14h26.30.640,test_typingtask_norepeats,2020.2.10,59.98566347089622,
zibja,zibja,,,,,,,,,0,103,103,103,,,,,,,,,,,,,,,1369.352926600026,None,"['z', 'i', 'b', 'j', 'a']",1,"[1.1699319002218544, 1.4899140000343323, 1.8420495002064854, 2.0260222000069916, 2.1618917000014335]",1369.352926600026,None,1369.3529345499817,None,s279_02232024,001,2024-02-23_14h26.30.640,test_typingtask_norepeats,2020.2.10,59.98566347089622,
cheer,cheer,,,,,,,,,0,104,104,104,,,,,,,,,,,,,,,1374.852953699883,None,"['c', 'h', 'e', 'e', 'r']",1,"[0.877902900101617, 1.142049399903044, 1.3579786999616772, 1.5179809001274407, 1.7260163000319153]",1374.852953699883,None,1374.8529576500412,None,s279_02232024,001,2024-02-23_14h26.30.640,test_typingtask_norepeats,2020.2.10,59.98566347089622,
faqir,faqir,,,,,,,,,0,105,105,105,,,,,,,,,,,,,,,1380.3529805999715,None,"['f', 'a', 'q', 'i', 'r']",1,"[0.9778913999907672, 1.2658916998188943, 1.7218762999400496, 1.9778619999997318, 2.2340406998991966]",1380.3529805999715,None,1380.3529864500276,None,s279_02232024,001,2024-02-23_14h26.30.640,test_typingtask_norepeats,2020.2.10,59.98566347089622,
belly,belly,,,,,,,,,0,106,106,106,,,,,,,,,,,,,,,1385.8530176999047,None,"['b', 'e', 'l', 'l', 'y']",1,"[0.8058396000415087, 1.053818800020963, 1.3098312001675367, 1.4617977000307292, 1.7339163001161069]",1385.8530176999047,None,1385.8530116499867,None,s279_02232024,001,2024-02-23_14h26.30.640,test_typingtask_norepeats,2020.2.10,59.98566347089622,
haole,haole,,,,,,,,,0,107,107,107,,,,,,,,,,,,,,,1391.3530502999201,None,"['h', 'a', 'o', 'l', 'e']",1,"[0.905730500118807, 1.1057704000268131, 1.3057692002039403, 1.5457663000561297, 1.7137591000646353]",1391.3530502999201,None,1391.3530468500219,None,s279_02232024,001,2024-02-23_14h26.30.640,test_typingtask_norepeats,2020.2.10,59.98566347089622,
heond,heond,,,,,,,,,0,108,108,108,,,,,,,,,,,,,,,1396.8531108000316,None,"['h', 'e', 'o', 'n', 'd']",1,"[0.8937392001971602, 1.1178333000279963, 1.2857019000221044, 1.6217116001062095, 1.8138357000425458]",1396.8531108000316,None,1396.8530824498273,None,s279_02232024,001,2024-02-23_14h26.30.640,test_typingtask_norepeats,2020.2.10,59.98566347089622,
edthe,edthe,,,,,,,,,0,109,109,109,,,,,,,,,,,,,,,1402.3531221000012,None,"['e', 'd', 't', 'h', 'e']",1,"[0.8340712999925017, 1.0578122998122126, 1.329691199818626, 1.5057018999941647, 1.6738065998069942]",1402.3531221000012,None,1402.3531085499096,None,s279_02232024,001,2024-02-23_14h26.30.640,test_typingtask_norepeats,2020.2.10,59.98566347089622,
vodka,vodka,,,,,,,,,0,110,110,110,,,,,,,,,,,,,,,1407.853152900003,None,"['v', 'o', 'd', 'k', 'a']",1,"[0.9976744998712093, 1.261895400006324, 1.4377760998904705, 1.6776942999567837, 1.8776480997912586]",1407.853152900003,None,1407.8531051498837,None,s279_02232024,001,2024-02-23_14h26.30.640,test_typingtask_norepeats,2020.2.10,59.98566347089622,
vanru,vanru,,,,,,,,,0,111,111,111,,,,,,,,,,,,,,,1413.3531819998752,None,"['v', 'a', 'n', 'r', 'u']",1,"[0.953636399935931, 1.1937438999302685, 1.417632799828425, 1.7057605998124927, 1.897777299862355]",1413.3531819998752,None,1413.353138850024,None,s279_02232024,001,2024-02-23_14h26.30.640,test_typingtask_norepeats,2020.2.10,59.98566347089622,
kremp,kremp,,,,,,,,,0,112,112,112,,,,,,,,,,,,,,,1418.8531708999071,None,"['k', 'r', 'e', 'm', 'p']",1,"[1.141642700182274, 1.357720100088045, 1.5817458000965416, 1.7176166002172977, 1.933671300066635]",1418.8531708999071,None,1418.8532131500076,None,s279_02232024,001,2024-02-23_14h26.30.640,test_typingtask_norepeats,2020.2.10,59.98566347089622,
zibja,zibja,,,,,,,,,0,113,113,113,,,,,,,,,,,,,,,1424.3532101998571,None,"['z', 'i', 'b', 'j', 'a']",1,"[1.0015815999358892, 1.3056030001025647, 1.6817249001469463, 1.9536729999817908, 2.129575400147587]",1424.3532101998571,None,1424.3532379499636,None,s279_02232024,001,2024-02-23_14h26.30.640,test_typingtask_norepeats,2020.2.10,59.98566347089622,
tithe,tithe,,,,,,,,,0,114,114,114,,,,,,,,,,,,,,,1429.8532819000538,None,"['t', 'i', 't', 'h', 'e']",1,"[0.8695865999907255, 1.0856590999756008, 1.2615233000833541, 1.4214938001241535, 1.6055032999720424]",1429.8532819000538,None,1429.8532641499303,None,s279_02232024,001,2024-02-23_14h26.30.640,test_typingtask_norepeats,2020.2.10,59.98566347089622,
edthe,edthe,,,,,,,,,0,115,115,115,,,,,,,,,,,,,,,1435.3533159999643,None,"['e', 'd', 't', 'h', 'e']",1,"[0.7774883001111448, 1.0014828001148999, 1.2814766000956297, 1.4496286001522094, 1.6416095001623034]",1435.3533159999643,None,1435.3532980498392,None,s279_02232024,001,2024-02-23_14h26.30.640,test_typingtask_norepeats,2020.2.10,59.98566347089622,
puppy,puppy,,,,,,,,,0,116,116,116,,,,,,,,,,,,,,,1440.8533304999582,None,"['p', 'u', 'p', 'p', 'y']",1,"[0.8614903001580387, 1.149457999970764, 1.4054559001233429, 1.5655795000493526, 1.797448200173676]",1440.8533304999582,None,1440.853332349984,None,s279_02232024,001,2024-02-23_14h26.30.640,test_typingtask_norepeats,2020.2.10,59.98566347089622,
about,about,,,,,,,,,0,117,117,117,,,,,,,,,,,,,,,1446.3533371000085,None,"['a', 'b', 'o', 'u', 't']",1,"[0.7614494001027197, 0.9854894999880344, 1.2254779001232237, 1.4654375000391155, 1.6174170000012964]",1446.3533371000085,None,1446.3533714499324,1446.4533692998812,s279_02232024,001,2024-02-23_14h26.30.640,test_typingtask_norepeats,2020.2.10,59.98566347089622,
champ,champ,,,,,,,,,0,118,118,118,,,,,,,,,,,,,,,1451.853367100004,None,"['c', 'h', 'a', 'm', 'p']",1,"[0.9254397000186145, 1.1334196999669075, 1.3494462000671774, 1.525536899920553, 1.7974127000197768]",1451.853367100004,None,1451.8534057498443,1451.9534018998966,s279_02232024,001,2024-02-23_14h26.30.640,test_typingtask_norepeats,2020.2.10,59.98566347089622,
zibja,zibja,,,,,,,,,0,119,119,119,,,,,,,,,,,,,,,1457.3534152999055,None,"['z', 'i', 'b', 'j', 'a']",1,"[1.1213795999065042, 1.3613390000537038, 1.66549660009332, 1.8574546000454575, 2.0654792999848723]",1457.3534152999055,None,1457.3534340499434,1457.4533994998783,s279_02232024,001,2024-02-23_14h26.30.640,test_typingtask_norepeats,2020.2.10,59.98566347089622,
