string,corrAns,practice_trials.thisRepN,practice_trials.thisTrialN,practice_trials.thisN,practice_trials.thisIndex,trials_1.thisRepN,trials_1.thisTrialN,trials_1.thisN,trials_1.thisIndex,trials_2.thisRepN,trials_2.thisTrialN,trials_2.thisN,trials_2.thisIndex,key_resp_0.keys,key_resp_0.corr,key_resp_0.rt,text_1.started,text_1.stopped,key_resp_1.keys,key_resp_1.corr,key_resp_1.rt,key_resp_1.started,key_resp_1.stopped,sound_1A_1.started,sound_1A_1.stopped,break_time.started,break_time.stopped,text_2.started,text_2.stopped,key_resp_2.keys,key_resp_2.corr,key_resp_2.rt,key_resp_2.started,key_resp_2.stopped,sound_1A_2.started,sound_1A_2.stopped,participant,session,date,expName,psychopyVersion,frameRate,
fresh,fresh,0,0,0,0,,,,,,,,,['f'],0,[3.2522267000749707],,,,,,,,,,,,,,,,,,,,,s282_022092024,001,2024-02-29_11h26.36.354,test_typingtask_norepeats,2020.2.10,60.005424559627144,
dream,dream,0,1,1,1,,,,,,,,,"['d', 'r', 'e', 'a', 'm']",1,"[1.2799599999561906, 1.6238820999860764, 1.9118799001444131, 2.159841800108552, 2.4160392000339925]",,,,,,,,,,,,,,,,,,,,,s282_022092024,001,2024-02-29_11h26.36.354,test_typingtask_norepeats,2020.2.10,60.005424559627144,
slime,slime,0,2,2,2,,,,,,,,,"['s', 'l', 'i', 'm', 'e']",1,"[1.1718959000427276, 1.5878922000993043, 1.9319005999714136, 2.3639072999358177, 2.5798911000601947]",,,,,,,,,,,,,,,,,,,,,s282_022092024,001,2024-02-29_11h26.36.354,test_typingtask_norepeats,2020.2.10,60.005424559627144,
vodka,vodka,,,,,0,0,0,0,,,,,,,,127.4356664000079,None,"['v', 'o', 'd', 'k', 'a']",1,"[1.1777409000787884, 1.4577179001644254, 1.8417834001593292, 2.137929799966514, 2.329658200033009]",127.4356664000079,None,127.43481681994163,127.53497179993428,,,,,,,,,,,,s282_022092024,001,2024-02-29_11h26.36.354,test_typingtask_norepeats,2020.2.10,60.005424559627144,
faqir,faqir,,,,,0,1,1,1,,,,,,,,132.93497440009378,None,"['f', 'q', 'i', 'r']",0,"[1.070649400120601, 1.7024757000617683, 3.0144585000816733, 3.246401600074023]",132.93497440009378,None,132.93482891991735,None,,,,,,,,,,,,s282_022092024,001,2024-02-29_11h26.36.354,test_typingtask_norepeats,2020.2.10,60.005424559627144,
lucky,lucky,,,,,0,2,2,2,,,,,,,,138.43495590006933,None,"['l', 'u', 'c', 'k', 'y']",1,"[1.0344690999481827, 1.490472799865529, 1.9224876000080258, 2.242484000045806, 2.7464970999863]",138.43495590006933,None,138.4350034199655,None,,,,,,,,,,,,s282_022092024,001,2024-02-29_11h26.36.354,test_typingtask_norepeats,2020.2.10,60.005424559627144,
cooed,cooed,,,,,0,3,3,3,,,,,,,,143.93497879989445,None,"['c', 'c', 'o', 'o', 'e', 'd']",0,"[0.9426597999408841, 1.42245509987697, 1.7744696999434382, 1.9584878999739885, 2.3904464999213815, 2.702476599952206]",143.93497879989445,None,143.93483511996456,None,,,,,,,,,,,,s282_022092024,001,2024-02-29_11h26.36.354,test_typingtask_norepeats,2020.2.10,60.005424559627144,
therm,therm,,,,,0,4,4,4,,,,,,,,149.4349994000513,None,"['t', 'h', 'e', 'r', 'm']",1,"[1.0583997000940144, 1.3545204000547528, 1.9464124999940395, 2.2584335000719875, 2.4264766999986023]",149.4349994000513,None,149.43482722002082,None,,,,,,,,,,,,s282_022092024,001,2024-02-29_11h26.36.354,test_typingtask_norepeats,2020.2.10,60.005424559627144,
cheer,cheer,,,,,0,5,5,5,,,,,,,,154.93505119998008,None,"['c', 'h', 'e', 'e', 'r']",1,"[0.9023705997969955, 1.2463634999003261, 1.4863636000081897, 1.6303204998839647, 2.1745289999525994]",154.93505119998008,None,154.93501191991382,155.0353572999593,,,,,,,,,,,,s282_022092024,001,2024-02-29_11h26.36.354,test_typingtask_norepeats,2020.2.10,60.005424559627144,
zibja,zibja,,,,,0,6,6,6,,,,,,,,160.4350507000927,None,"['z', 'i', 'b', 'j', 'a']",1,"[1.4103214999195188, 1.9305487999226898, 2.5143995999824256, 2.866377499885857, 3.01034180005081]",160.4350507000927,None,160.4349548200611,160.53511369996704,,,,,,,,,,,,s282_022092024,001,2024-02-29_11h26.36.354,test_typingtask_norepeats,2020.2.10,60.005424559627144,
tithe,tithe,,,,,0,7,7,7,,,,,,,,165.9350177999586,None,"['t', 'i', 't', 'h', 'e']",1,"[1.1744864999782294, 1.6144002000801265, 1.990597000112757, 2.318484300049022, 2.4944914001971483]",165.9350177999586,None,165.9348867198918,None,,,,,,,,,,,,s282_022092024,001,2024-02-29_11h26.36.354,test_typingtask_norepeats,2020.2.10,60.005424559627144,
would,would,,,,,0,8,8,8,,,,,,,,171.43513879994862,None,"['w', 'o', 'u', 'l', 'd']",1,"[0.9062233997974545, 1.1143122999928892, 1.3622825997881591, 1.9224642999470234, 2.026310699991882]",171.43513879994862,None,171.43500541998074,171.53518770006485,,,,,,,,,,,,s282_022092024,001,2024-02-29_11h26.36.354,test_typingtask_norepeats,2020.2.10,60.005424559627144,
therm,therm,,,,,0,9,9,9,,,,,,,,176.93507679994218,None,"['h', 'e', 'r', 'm']",0,"[1.438328499905765, 1.6704241000115871, 1.9502930000890046, 2.118332700105384]",176.93507679994218,None,176.9349693200551,177.0351009001024,,,,,,,,,,,,s282_022092024,001,2024-02-29_11h26.36.354,test_typingtask_norepeats,2020.2.10,60.005424559627144,
puppy,puppy,,,,,0,10,10,10,,,,,,,,182.4351329000201,None,"['p', 'u', 'p', 'p', 'y']",1,"[1.1542736999690533, 1.5542144000064582, 1.9142668000422418, 2.0822791000828147, 2.4103437999729067]",182.4351329000201,None,182.43499692003243,182.53510820004158,,,,,,,,,,,,s282_022092024,001,2024-02-29_11h26.36.354,test_typingtask_norepeats,2020.2.10,60.005424559627144,
think,think,,,,,0,11,11,11,,,,,,,,187.9351441001054,None,"['t', 'h', 'i', 'n', 'k']",1,"[0.9423271999694407, 1.1102303001098335, 1.2943359999917448, 1.606253599980846, 1.8061550999991596]",187.9351441001054,None,187.93505601990037,None,,,,,,,,,,,,s282_022092024,001,2024-02-29_11h26.36.354,test_typingtask_norepeats,2020.2.10,60.005424559627144,
vanru,vanru,,,,,0,12,12,12,,,,,,,,193.435175599996,None,"['v', 'a', 'n', 'r', 'u']",1,"[1.0664198000449687, 1.8182043000124395, 2.082408000016585, 2.3702348000369966, 2.546311399899423]",193.435175599996,None,193.43506541997195,193.53517480008304,,,,,,,,,,,,s282_022092024,001,2024-02-29_11h26.36.354,test_typingtask_norepeats,2020.2.10,60.005424559627144,
buddy,buddy,,,,,0,13,13,13,,,,,,,,198.93518789997324,None,"['b', 'u', 'd', 'd', 'y']",1,"[1.3344620999414474, 1.6381762998644263, 1.8542277000378817, 2.0862960999365896, 2.3423252999782562]",198.93518789997324,None,198.93508452000097,None,,,,,,,,,,,,s282_022092024,001,2024-02-29_11h26.36.354,test_typingtask_norepeats,2020.2.10,60.005424559627144,
kremp,kremp,,,,,0,14,14,14,,,,,,,,204.43520090007223,None,"['k', 'r', 'e', 'm', 'p']",1,"[1.0341688999906182, 1.2904185999650508, 1.5941691999323666, 2.2182765998877585, 2.594172599958256]",204.43520090007223,None,204.43510222001933,None,,,,,,,,,,,,s282_022092024,001,2024-02-29_11h26.36.354,test_typingtask_norepeats,2020.2.10,60.005424559627144,
heond,heond,,,,,0,15,15,15,,,,,,,,209.93523530010134,None,"['h', 'e', 'o', 'n', 'd']",1,"[1.0062231000047177, 1.1422527998220176, 1.3181046999525279, 1.822191399987787, 1.9821349999401718]",209.93523530010134,None,209.9351251200773,None,,,,,,,,,,,,s282_022092024,001,2024-02-29_11h26.36.354,test_typingtask_norepeats,2020.2.10,60.005424559627144,
edthe,edthe,,,,,0,16,16,16,,,,,,,,215.4352678998839,None,"['e', 'd', 't', 'h', 'e']",1,"[0.9860932999290526, 1.2981700000818819, 1.9462101999670267, 2.1062302000354975, 2.2340814999770373]",215.4352678998839,None,215.43529362007976,None,,,,,,,,,,,,s282_022092024,001,2024-02-29_11h26.36.354,test_typingtask_norepeats,2020.2.10,60.005424559627144,
buddy,buddy,,,,,0,17,17,17,,,,,,,,220.93526610010304,None,"['b', 'u', 'd', 'd', 'y']",1,"[0.8462012000381947, 1.2381120999343693, 1.4221286000683904, 1.582177999895066, 1.7420878999400884]",220.93526610010304,None,220.93515152004548,None,,,,,,,,,,,,s282_022092024,001,2024-02-29_11h26.36.354,test_typingtask_norepeats,2020.2.10,60.005424559627144,
lucky,lucky,,,,,0,18,18,18,,,,,,,,226.435283199884,None,"['l', 'u', 'c', 'k', 'y']",1,"[0.8342871000058949, 1.1541006001643836, 1.3541904999874532, 1.5540084999520332, 1.8740781999658793]",226.435283199884,None,226.43518161992543,None,,,,,,,,,,,,s282_022092024,001,2024-02-29_11h26.36.354,test_typingtask_norepeats,2020.2.10,60.005424559627144,
faqir,faqir,,,,,0,19,19,19,,,,,,,,231.93533329991624,None,"['f', 'a', 'q', 'i', 'r']",1,"[1.0059917999897152, 1.2381013000849634, 1.6700339999515563, 2.150116499979049, 2.3099897999782115]",231.93533329991624,None,231.9354427199345,232.03527150000446,,,,,,,,,,,,s282_022092024,001,2024-02-29_11h26.36.354,test_typingtask_norepeats,2020.2.10,60.005424559627144,
lucky,lucky,,,,,0,20,20,20,,,,,,,,237.4353495000396,None,"['l', 'u', 'c', 'k', 'y']",1,"[0.7540809998754412, 1.0821422000881284, 1.2341936000157148, 1.4100828999653459, 1.7539687999524176]",237.4353495000396,None,237.435295620095,None,,,,,,,,,,,,s282_022092024,001,2024-02-29_11h26.36.354,test_typingtask_norepeats,2020.2.10,60.005424559627144,
vanru,vanru,,,,,0,21,21,21,,,,,,,,242.93533700006083,None,"['v', 'a', 'n', 'r', 'u']",1,"[1.4220196001697332, 1.6299360000994056, 1.8221299999859184, 2.2220296000596136, 2.421926600160077]",242.93533700006083,None,242.93525791992434,243.03538260003552,,,,,,,,,,,,s282_022092024,001,2024-02-29_11h26.36.354,test_typingtask_norepeats,2020.2.10,60.005424559627144,
there,there,,,,,0,22,22,22,,,,,,,,248.4354822000023,None,"['t', 'h', 'e', 'r', 'e']",1,"[0.8820080000441521, 1.1219766000285745, 1.2820192000363022, 1.441953199915588, 1.5620319000445306]",248.4354822000023,None,248.43530241991394,248.53533080010675,,,,,,,,,,,,s282_022092024,001,2024-02-29_11h26.36.354,test_typingtask_norepeats,2020.2.10,60.005424559627144,
kremp,kremp,,,,,0,23,23,23,,,,,,,,253.93547059991397,None,"['k', 'r', 'e', 'm', 'p']",1,"[1.0698414000216872, 1.2378530001733452, 1.3658259001094848, 1.5418667001649737, 1.9420692999847233]",253.93547059991397,None,253.93531982004643,254.03541269991547,,,,,,,,,,,,s282_022092024,001,2024-02-29_11h26.36.354,test_typingtask_norepeats,2020.2.10,60.005424559627144,
belly,belly,,,,,0,24,24,24,,,,,,,,259.43547919997945,None,"['b', 'e', 'l', 'l', 'y']",1,"[0.8497635000385344, 1.0018456999678165, 1.3618874999228865, 1.5458742000628263, 1.9138591000810266]",259.43547919997945,None,259.4353229199536,259.5354440000374,,,,,,,,,,,,s282_022092024,001,2024-02-29_11h26.36.354,test_typingtask_norepeats,2020.2.10,60.005424559627144,
haole,haole,,,,,0,25,25,25,,,,,,,,264.9354874000419,None,"['h', 'a', 'o']",0,"[1.7257862000260502, 1.909787000156939, 3.32592079997994]",264.9354874000419,None,264.9353860200848,265.0354430999141,,,,,,,,,,,,s282_022092024,001,2024-02-29_11h26.36.354,test_typingtask_norepeats,2020.2.10,60.005424559627144,
edthe,edthe,,,,,0,26,26,26,,,,,,,,270.43545949994586,None,"['e', 'd', 't', 'h', 'e']",1,"[1.0342335999011993, 1.290000099921599, 1.6098509998992085, 1.7938379999250174, 1.889887500088662]",270.43545949994586,None,270.43533052001146,270.5355034999084,,,,,,,,,,,,s282_022092024,001,2024-02-29_11h26.36.354,test_typingtask_norepeats,2020.2.10,60.005424559627144,
tithe,tithe,,,,,0,27,27,27,,,,,,,,275.93550819996744,None,"['t', 'i', 't', 'h', 'e']",1,"[0.8458646000362933, 1.2538721999153495, 1.4697355998214334, 1.845877599902451, 1.9898295998573303]",275.93550819996744,None,275.93539861994793,276.0355247000698,,,,,,,,,,,,s282_022092024,001,2024-02-29_11h26.36.354,test_typingtask_norepeats,2020.2.10,60.005424559627144,
pykka,pykka,,,,,0,28,28,28,,,,,,,,281.4355166000314,None,"['p', 'y', 'k', 'k', 'a']",1,"[1.0018333001062274, 1.8899556000251323, 2.577789100119844, 2.7617289000190794, 2.881996100069955]",281.4355166000314,None,281.43535251994615,None,,,,,,,,,,,,s282_022092024,001,2024-02-29_11h26.36.354,test_typingtask_norepeats,2020.2.10,60.005424559627144,
cheer,cheer,,,,,0,29,29,29,,,,,,,,286.9354950999841,None,"['c', 'h', 'e', 'e', 'r']",1,"[0.7978043998591602, 0.965784200001508, 1.1819545000325888, 1.397882599849254, 1.6378035000525415]",286.9354950999841,None,286.935390619887,None,,,,,,,,,,,,s282_022092024,001,2024-02-29_11h26.36.354,test_typingtask_norepeats,2020.2.10,60.005424559627144,
tithe,tithe,,,,,0,30,30,30,,,,,,,,292.43550670007244,None,"['t', 'i', 't', 'h', 'e']",1,"[0.8738170000724494, 1.1057962998747826, 1.257870800094679, 1.521915900055319, 1.6737937000580132]",292.43550670007244,None,292.43539021988397,None,,,,,,,,,,,,s282_022092024,001,2024-02-29_11h26.36.354,test_typingtask_norepeats,2020.2.10,60.005424559627144,
heond,heond,,,,,0,31,31,31,,,,,,,,297.9355617999099,None,"['h', 'e', 'o', 'n', 'd']",1,"[0.9017910999245942, 1.14972859993577, 1.405858499929309, 1.7178578998427838, 1.91791329998523]",297.9355617999099,None,297.9354339201003,None,,,,,,,,,,,,s282_022092024,001,2024-02-29_11h26.36.354,test_typingtask_norepeats,2020.2.10,60.005424559627144,
belly,belly,,,,,0,32,32,32,,,,,,,,303.4355552000925,None,"['b', 'e', 'l', 'l', 'y']",1,"[0.9056876001413912, 1.1217515000607818, 1.3537111000623554, 1.4976919000037014, 1.9697251000907272]",303.4355552000925,None,303.435474620061,None,,,,,,,,,,,,s282_022092024,001,2024-02-29_11h26.36.354,test_typingtask_norepeats,2020.2.10,60.005424559627144,
pykka,pykka,,,,,0,33,33,33,,,,,,,,308.93560339999385,None,"['p', 'y', 'k', 'k', 'a']",1,"[0.9417391000315547, 1.445722799981013, 1.9417654999997467, 2.133773799985647, 2.2856753999367356]",308.93560339999385,None,308.9355239200871,None,,,,,,,,,,,,s282_022092024,001,2024-02-29_11h26.36.354,test_typingtask_norepeats,2020.2.10,60.005424559627144,
druze,druze,,,,,0,34,34,34,,,,,,,,314.4356428999454,None,"['d', 'r', 'u', 'z', 'e']",1,"[0.841796200023964, 1.1135933001060039, 1.2655907000880688, 1.5296237000729889, 1.8496081000193954]",314.4356428999454,None,314.4355108201038,None,,,,,,,,,,,,s282_022092024,001,2024-02-29_11h26.36.354,test_typingtask_norepeats,2020.2.10,60.005424559627144,
lucky,lucky,,,,,0,35,35,35,,,,,,,,319.93566780001856,None,"['l', 'u', 'c', 'k', 'y']",1,"[1.0295663999859244, 1.3736638999544084, 1.9577437001280487, 2.109597400063649, 2.5575717999599874]",319.93566780001856,None,319.93552592010235,None,,,,,,,,,,,,s282_022092024,001,2024-02-29_11h26.36.354,test_typingtask_norepeats,2020.2.10,60.005424559627144,
cooed,cooed,,,,,0,36,36,36,,,,,,,,325.43568570003845,None,"['c', 'o', 'o', 'e', 'd']",1,"[0.8255415000021458, 1.0255402999464422, 1.209541300078854, 1.3856202999595553, 1.5935774000827223]",325.43568570003845,None,325.43555641998535,None,,,,,,,,,,,,s282_022092024,001,2024-02-29_11h26.36.354,test_typingtask_norepeats,2020.2.10,60.005424559627144,
tithe,tithe,,,,,0,37,37,37,,,,,,,,330.93573380005546,None,"['t', 'i', 't', 'h', 'e']",1,"[0.8375184000469744, 1.1255246000364423, 1.309512299951166, 1.501587999984622, 1.6934607999864966]",330.93573380005546,None,330.9356222200207,None,,,,,,,,,,,,s282_022092024,001,2024-02-29_11h26.36.354,test_typingtask_norepeats,2020.2.10,60.005424559627144,
belly,belly,,,,,0,38,38,38,,,,,,,,336.43573009991087,None,"['b', 'e', 'l', 'l', 'l', 'y']",0,"[0.8575202999636531, 0.9854830999393016, 1.2814969001337886, 1.4654912000987679, 1.5855825000908226, 1.8338238999713212]",336.43573009991087,None,336.435607419908,None,,,,,,,,,,,,s282_022092024,001,2024-02-29_11h26.36.354,test_typingtask_norepeats,2020.2.10,60.005424559627144,
cheer,cheer,,,,,0,39,39,39,,,,,,,,341.935787800001,None,"['c', 'h', 'e', 'e', 'r']",1,"[1.0774171999655664, 1.2853864999487996, 1.57342360005714, 1.7974334000609815, 2.0374680999666452]",341.935787800001,None,341.93564021992495,None,,,,,,,,,,,,s282_022092024,001,2024-02-29_11h26.36.354,test_typingtask_norepeats,2020.2.10,60.005424559627144,
there,there,,,,,0,40,40,40,,,,,,,,347.4357880000025,None,"['t', 'h', 'e', 'r', 'e']",1,"[0.801453199936077, 0.985420900164172, 1.1054223999381065, 1.2335055000148714, 1.3614511999767274]",347.4357880000025,None,347.4356574200559,None,,,,,,,,,,,,s282_022092024,001,2024-02-29_11h26.36.354,test_typingtask_norepeats,2020.2.10,60.005424559627144,
about,about,,,,,0,41,41,41,,,,,,,,352.9358095000498,None,"['a', 'b', 'o', 'u', 't']",1,"[1.1016039999667555, 1.3336213999427855, 1.4375297001097351, 1.693427100079134, 1.8135673000942916]",352.9358095000498,None,352.93566772001793,None,,,,,,,,,,,,s282_022092024,001,2024-02-29_11h26.36.354,test_typingtask_norepeats,2020.2.10,60.005424559627144,
theme,theme,,,,,0,42,42,42,,,,,,,,358.43580699991435,None,"['t', 'h', 'e', 'm', 'e']",1,"[0.7934341998770833, 0.9534189999103546, 1.105441699968651, 1.5774314999580383, 1.6736139999702573]",358.43580699991435,None,358.4364313200116,None,,,,,,,,,,,,s282_022092024,001,2024-02-29_11h26.36.354,test_typingtask_norepeats,2020.2.10,60.005424559627144,
cheer,cheer,,,,,0,43,43,43,,,,,,,,363.93584250006825,None,"['c', 'space', 'h', 'e', 'e', 'r']",0,"[0.7573747001588345, 0.7813625000417233, 0.9413450001738966, 1.1413633001502603, 1.285308400169015, 1.5015744001138955]",363.93584250006825,None,363.93569382010025,None,,,,,,,,,,,,s282_022092024,001,2024-02-29_11h26.36.354,test_typingtask_norepeats,2020.2.10,60.005424559627144,
therm,therm,,,,,0,44,44,44,,,,,,,,369.4358391999267,None,"['t', 'h', 'e', 'r', 'm']",1,"[0.9214729000814259, 1.169355799909681, 1.3213794000912458, 1.4574661999940872, 1.6414232000242919]",369.4358391999267,None,369.43574402001684,None,,,,,,,,,,,,s282_022092024,001,2024-02-29_11h26.36.354,test_typingtask_norepeats,2020.2.10,60.005424559627144,
champ,champ,,,,,0,45,45,45,,,,,,,,374.93592449999414,None,"['c', 'h', 'm', 'p']",0,"[0.7092508000787348, 0.8852458000183105, 1.2294316000770777, 1.893281300086528]",374.93592449999414,None,374.9357734200079,None,,,,,,,,,,,,s282_022092024,001,2024-02-29_11h26.36.354,test_typingtask_norepeats,2020.2.10,60.005424559627144,
puppy,puppy,,,,,0,46,46,46,,,,,,,,380.4359347000718,None,"['p', 'u', 'p', 'p', 'y']",1,"[0.9292391000781208, 1.2492770000826567, 1.5372101999819279, 1.7214437001384795, 1.9132029002066702]",380.4359347000718,None,380.4357898198999,None,,,,,,,,,,,,s282_022092024,001,2024-02-29_11h26.36.354,test_typingtask_norepeats,2020.2.10,60.005424559627144,
vanru,vanru,,,,,0,47,47,47,,,,,,,,385.9359424998984,None,"['v', 'space', 'a', 'n', 'r', 'u']",0,"[0.9972237998154014, 1.0292553999461234, 1.2292331999633461, 1.3733622999861836, 1.5972388999070972, 1.8293502999003977]",385.9359424998984,None,385.93581511997616,None,,,,,,,,,,,,s282_022092024,001,2024-02-29_11h26.36.354,test_typingtask_norepeats,2020.2.10,60.005424559627144,
pykka,pykka,,,,,0,48,48,48,,,,,,,,391.4359412000049,None,"['p', 'y', 'k', 'k', 'a']",1,"[0.9452610998414457, 1.3612585000228137, 2.0332677999977022, 2.1931908999104053, 2.305231599835679]",391.4359412000049,None,391.43584182006305,None,,,,,,,,,,,,s282_022092024,001,2024-02-29_11h26.36.354,test_typingtask_norepeats,2020.2.10,60.005424559627144,
faqir,faqir,,,,,0,49,49,49,,,,,,,,396.93601300008595,None,"['f', 'a', 'q', 'i', 'r']",1,"[0.9491360001266003, 1.9171884001698345, 2.2931660001631826, 2.621165200136602, 2.8131277000065893]",396.93601300008595,None,396.93608371992593,None,,,,,,,,,,,,s282_022092024,001,2024-02-29_11h26.36.354,test_typingtask_norepeats,2020.2.10,60.005424559627144,
champ,champ,,,,,0,50,50,50,,,,,,,,402.4360100000631,None,"['c', 'h', 'a', 'm', 'p']",1,"[0.6652415001299232, 0.8571668001823127, 1.0572728000115603, 1.249212000053376, 1.4572801000904292]",402.4360100000631,None,402.4359004200436,None,,,,,,,,,,,,s282_022092024,001,2024-02-29_11h26.36.354,test_typingtask_norepeats,2020.2.10,60.005424559627144,
druze,druze,,,,,0,51,51,51,,,,,,,,407.9360287999734,None,"['d', 'r', 'u', 'z', 'e']",1,"[0.9174204000737518, 1.197100699879229, 1.3972791999112815, 1.5891312998719513, 1.9330740999430418]",407.9360287999734,None,407.93592072008175,None,,,,,,,,,,,,s282_022092024,001,2024-02-29_11h26.36.354,test_typingtask_norepeats,2020.2.10,60.005424559627144,
theme,theme,,,,,0,52,52,52,,,,,,,,413.4360469998792,None,"['t', 'h', 'e', 'm', 'e']",1,"[0.7931381000671536, 0.9692820999771357, 1.129220600007102, 1.313210500171408, 1.4650569001678377]",413.4360469998792,None,413.4359361199662,None,,,,,,,,,,,,s282_022092024,001,2024-02-29_11h26.36.354,test_typingtask_norepeats,2020.2.10,60.005424559627144,
buddy,buddy,,,,,0,53,53,53,,,,,,,,418.93605150002986,None,"['b', 'u', 'd', 'd', 'y']",1,"[0.9890831999946386, 1.293099199887365, 1.4851085999980569, 2.0613193998578936, 2.301107999868691]",418.93605150002986,None,418.93591941995544,None,,,,,,,,,,,,s282_022092024,001,2024-02-29_11h26.36.354,test_typingtask_norepeats,2020.2.10,60.005424559627144,
zibja,zibja,,,,,0,54,54,54,,,,,,,,424.4361171000637,None,"['z', 'i', 'b', 'j', 'a']",1,"[1.0570584000088274, 1.2651504999957979, 1.673026799922809, 2.185116400010884, 2.3529678999911994]",424.4361171000637,None,424.4359469200484,None,,,,,,,,,,,,s282_022092024,001,2024-02-29_11h26.36.354,test_typingtask_norepeats,2020.2.10,60.005424559627144,
haole,haole,,,,,0,55,55,55,,,,,,,,429.93610329995863,None,"['h', 'a', 'o', 'l', 'e']",1,"[0.8850541000720114, 1.1890286998823285, 1.917491399915889, 2.221059399889782, 2.3730738998856395]",429.93610329995863,None,429.93601121995596,None,,,,,,,,,,,,s282_022092024,001,2024-02-29_11h26.36.354,test_typingtask_norepeats,2020.2.10,60.005424559627144,
heond,heond,,,,,0,56,56,56,,,,,,,,435.4361384001095,None,"['h', 'e', 'o', 'n', 'd']",1,"[1.9369980001356453, 2.0890703999903053, 2.345103699946776, 2.624969700118527, 2.832947500050068]",435.4361384001095,None,435.4360571199562,None,,,,,,,,,,,,s282_022092024,001,2024-02-29_11h26.36.354,test_typingtask_norepeats,2020.2.10,60.005424559627144,
cheer,cheer,,,,,0,57,57,57,,,,,,,,440.9361992001068,None,"['c', 'h', 'e', 'e', 'r']",1,"[0.796941899927333, 1.0370393998455256, 1.3891060999594629, 1.5888978999573737, 1.8048894999083132]",440.9361992001068,None,440.9360569199547,None,,,,,,,,,,,,s282_022092024,001,2024-02-29_11h26.36.354,test_typingtask_norepeats,2020.2.10,60.005424559627144,
kremp,kremp,,,,,0,58,58,58,,,,,,,,446.4362131000962,None,"['k', 'r', 'e', 'm', 'p']",1,"[0.944936600048095, 1.09690189990215, 1.2888555000536144, 1.4009707998484373, 1.8889667999465019]",446.4362131000962,None,446.4360453200992,None,,,,,,,,,,,,s282_022092024,001,2024-02-29_11h26.36.354,test_typingtask_norepeats,2020.2.10,60.005424559627144,
haole,haole,,,,,0,59,59,59,,,,,,,,451.93624820001423,None,"['h', 'a', 'o', 'l', 'e']",1,"[1.2928913999348879, 1.4448492999654263, 2.0528500000946224, 2.3570376001298428, 2.532979100011289]",451.93624820001423,None,451.93611211990935,None,,,,,,,,,,,,s282_022092024,001,2024-02-29_11h26.36.354,test_typingtask_norepeats,2020.2.10,60.005424559627144,
think,think,,,,,0,60,60,60,,,,,,,,457.43625869997777,None,"['t', 'h', 'i', 'n', 'k']",1,"[0.7528854999691248, 0.8568845998961478, 1.0328911999240518, 1.2489783000200987, 1.4248726998921484]",457.43625869997777,None,457.43613132005555,None,,,,,,,,,,,,s282_022092024,001,2024-02-29_11h26.36.354,test_typingtask_norepeats,2020.2.10,60.005424559627144,
vodka,vodka,,,,,0,61,61,61,,,,,,,,462.9368737998884,None,"['v', 'o', 'd', 'k', 'a']",1,"[0.9644388000015169, 1.2922447000164539, 1.8362635001540184, 2.068406900158152, 2.228231300134212]",462.9368737998884,None,462.93614982008,None,,,,,,,,,,,,s282_022092024,001,2024-02-29_11h26.36.354,test_typingtask_norepeats,2020.2.10,60.005424559627144,
vanru,vanru,,,,,0,62,62,62,,,,,,,,468.4363158000633,None,"['v', 'a', 'n', 'r', 'u']",1,"[1.1207890000659972, 1.2807962000370026, 1.5209331999067217, 1.696844199905172, 1.8969133000355214]",468.4363158000633,None,468.4361596199218,None,,,,,,,,,,,,s282_022092024,001,2024-02-29_11h26.36.354,test_typingtask_norepeats,2020.2.10,60.005424559627144,
theme,theme,,,,,0,63,63,63,,,,,,,,473.93634800007567,None,"['t', 'h', 'e', 'm', 'e']",1,"[0.8047360999044031, 0.9567493998911232, 1.1967340998817235, 1.3887436999939382, 1.524753199890256]",473.93634800007567,None,473.93621331998145,None,,,,,,,,,,,,s282_022092024,001,2024-02-29_11h26.36.354,test_typingtask_norepeats,2020.2.10,60.005424559627144,
about,about,,,,,0,64,64,64,,,,,,,,479.4363639000803,None,"['a', 'b', 'o', 'u', 't']",1,"[0.5767590999603271, 0.7448360999114811, 0.8809128999710083, 1.1127114999108016, 1.2167008998803794]",479.4363639000803,None,479.4362137199845,None,,,,,,,,,,,,s282_022092024,001,2024-02-29_11h26.36.354,test_typingtask_norepeats,2020.2.10,60.005424559627144,
tithe,tithe,,,,,0,65,65,65,,,,,,,,484.936391599942,None,"['t', 'i', 't', 'h', 'e']",1,"[0.8287228001281619, 0.9888062002137303, 1.1247581001371145, 1.2846823001746088, 1.4366761001292616]",484.936391599942,None,484.93623371990395,None,,,,,,,,,,,,s282_022092024,001,2024-02-29_11h26.36.354,test_typingtask_norepeats,2020.2.10,60.005424559627144,
kremp,kremp,,,,,0,66,66,66,,,,,,,,490.4364052999299,None,"['k', 'r', 'e', 'm', 'p']",1,"[0.9927080001216382, 1.1607540999539196, 1.3208179001230747, 1.448664299910888, 1.800764000043273]",490.4364052999299,None,490.43626611991783,None,,,,,,,,,,,,s282_022092024,001,2024-02-29_11h26.36.354,test_typingtask_norepeats,2020.2.10,60.005424559627144,
theme,theme,,,,,0,67,67,67,,,,,,,,495.9364529000595,None,"['t', 'h', 'e', 'm', 'e']",1,"[0.8126577001530677, 0.9566676001995802, 1.1407412001863122, 1.3406718000769615, 1.45259500015527]",495.9364529000595,None,495.93634241991674,None,,,,,,,,,,,,s282_022092024,001,2024-02-29_11h26.36.354,test_typingtask_norepeats,2020.2.10,60.005424559627144,
puppy,puppy,,,,,0,68,68,68,,,,,,,,501.43646989995614,None,"['p', 'u', 'p', 'p', 'y']",1,"[0.9925730000250041, 1.280635400209576, 1.8486336001660675, 2.016588600119576, 2.144713700050488]",501.43646989995614,None,501.43635072009636,None,,,,,,,,,,,,s282_022092024,001,2024-02-29_11h26.36.354,test_typingtask_norepeats,2020.2.10,60.005424559627144,
vodka,vodka,,,,,0,69,69,69,,,,,,,,506.93649809993804,None,"['v', 'o', 'd', 'k', 'a']",1,"[0.9326063001062721, 1.1566385999321938, 1.5485382999759167, 1.7566043001133949, 1.9727129000239074]",506.93649809993804,None,506.9363891199231,None,,,,,,,,,,,,s282_022092024,001,2024-02-29_11h26.36.354,test_typingtask_norepeats,2020.2.10,60.005424559627144,
cooed,cooed,,,,,0,70,70,70,,,,,,,,512.436530200066,None,"['c', 'o', 'o', 'e', 'd']",1,"[0.6725576999597251, 0.864660199964419, 1.048572599887848, 1.1925341000314802, 1.4806981000583619]",512.436530200066,None,512.4364773198962,None,,,,,,,,,,,,s282_022092024,001,2024-02-29_11h26.36.354,test_typingtask_norepeats,2020.2.10,60.005424559627144,
pykka,pykka,,,,,0,71,71,71,,,,,,,,517.9365582000464,None,"['p', 'y', 'k', 'k', 'a']",1,"[1.0846351000946015, 1.4685325999744236, 2.148536399938166, 2.2925569999497384, 2.4046203999314457]",517.9365582000464,None,517.9364304198883,None,,,,,,,,,,,,s282_022092024,001,2024-02-29_11h26.36.354,test_typingtask_norepeats,2020.2.10,60.005424559627144,
would,would,,,,,0,72,72,72,,,,,,,,523.43654159992,None,"['w', 'o', 'u', 'l', 'd']",1,"[0.7285374999046326, 0.7605266000609845, 0.9925200999714434, 1.440705900080502, 1.5765516001265496]",523.43654159992,None,523.4364517199341,None,,,,,,,,,,,,s282_022092024,001,2024-02-29_11h26.36.354,test_typingtask_norepeats,2020.2.10,60.005424559627144,
theme,theme,,,,,0,73,73,73,,,,,,,,528.9366005000193,None,"['t', 'h', 'e', 'm', 'e']",1,"[0.8524723998270929, 0.996588199865073, 1.1725556999444962, 1.3326015998609364, 1.4525367999449372]",528.9366005000193,None,528.9364894201047,None,,,,,,,,,,,,s282_022092024,001,2024-02-29_11h26.36.354,test_typingtask_norepeats,2020.2.10,60.005424559627144,
therm,therm,,,,,0,74,74,74,,,,,,,,534.4366220999509,None,"['t', 'h', 'e', 'r', 'm']",1,"[0.7524286999832839, 0.9604390000458807, 1.2884202999994159, 1.4564749000128359, 1.608397699892521]",534.4366220999509,None,534.4365306199528,None,,,,,,,,,,,,s282_022092024,001,2024-02-29_11h26.36.354,test_typingtask_norepeats,2020.2.10,60.005424559627144,
buddy,buddy,,,,,0,75,75,75,,,,,,,,539.9366617000196,None,"['b', 'u', 'd', 'd', 'y']",1,"[0.7484118000138551, 1.0685448998119682, 1.2366195998620242, 1.4203949999064207, 1.6284083998762071]",539.9366617000196,None,539.93653682,None,,,,,,,,,,,,s282_022092024,001,2024-02-29_11h26.36.354,test_typingtask_norepeats,2020.2.10,60.005424559627144,
think,think,,,,,0,76,76,76,,,,,,,,545.4366520000622,None,"['t', 'h', 'i', 'n', 'space', 'k']",0,"[0.6883660000748932, 0.8485106001608074, 1.032350500114262, 1.4084274000488222, 1.456335399998352, 1.536359200021252]",545.4366520000622,None,545.436564720096,None,,,,,,,,,,,,s282_022092024,001,2024-02-29_11h26.36.354,test_typingtask_norepeats,2020.2.10,60.005424559627144,
edthe,edthe,,,,,0,77,77,77,,,,,,,,550.9366884001065,None,"['e', 'd', 't', 'h']",0,"[0.764319600071758, 1.1882986000273377, 1.564334599999711, 1.7564408001489937]",550.9366884001065,None,550.9365955200977,None,,,,,,,,,,,,s282_022092024,001,2024-02-29_11h26.36.354,test_typingtask_norepeats,2020.2.10,60.005424559627144,
druze,druze,,,,,0,78,78,78,,,,,,,,556.4367132000625,None,"['d', 'r', 'u', 'z', 'e']",1,"[0.8562976000830531, 1.2006567001808435, 1.4243635002058, 1.6644251001998782, 1.9603442000225186]",556.4367132000625,None,556.4366167200263,None,,,,,,,,,,,,s282_022092024,001,2024-02-29_11h26.36.354,test_typingtask_norepeats,2020.2.10,60.005424559627144,
lucky,lucky,,,,,0,79,79,79,,,,,,,,561.9367768000811,None,"['l', 'u', 'c', 'k', 'y']",1,"[0.7562329999636859, 1.10024100006558, 1.2922417998779565, 1.4363575000315905, 1.7483753999695182]",561.9367768000811,None,561.9366422201041,None,,,,,,,,,,,,s282_022092024,001,2024-02-29_11h26.36.354,test_typingtask_norepeats,2020.2.10,60.005424559627144,
belly,belly,,,,,0,80,80,80,,,,,,,,567.4368112001102,None,"['b', 'e', 'l', 'l', 'y']",1,"[0.6961890000384301, 0.8801961001008749, 1.1442158001009375, 1.3043160999659449, 1.4962732000276446]",567.4368112001102,None,567.436666220054,None,,,,,,,,,,,,s282_022092024,001,2024-02-29_11h26.36.354,test_typingtask_norepeats,2020.2.10,60.005424559627144,
cooed,cooed,,,,,0,81,81,81,,,,,,,,572.9368402999826,None,"['c', 'o', 'o', 'e', 'd']",1,"[0.7481929999776185, 0.9401555999647826, 1.148152400040999, 1.2843325000721961, 1.5881489000748843]",572.9368402999826,None,572.9367171200923,None,,,,,,,,,,,,s282_022092024,001,2024-02-29_11h26.36.354,test_typingtask_norepeats,2020.2.10,60.005424559627144,
edthe,edthe,,,,,0,82,82,82,,,,,,,,578.4368461999111,None,"['e', 'd', 't', 'h', 'e']",1,"[0.6641969999764115, 0.9441293000709265, 1.2721629000734538, 1.4322683000937104, 2.264153700089082]",578.4368461999111,None,578.4367199198808,None,,,,,,,,,,,,s282_022092024,001,2024-02-29_11h26.36.354,test_typingtask_norepeats,2020.2.10,60.005424559627144,
vanru,vanru,,,,,0,83,83,83,,,,,,,,583.9368869001046,None,"['v', 'a', 'n', 'r', 'u']",1,"[0.7481452999636531, 0.9482833999209106, 1.1482160000596195, 1.3403006999287754, 1.5162428999319673]",583.9368869001046,None,583.9367508199997,584.0368842999451,,,,,,,,,,,,s282_022092024,001,2024-02-29_11h26.36.354,test_typingtask_norepeats,2020.2.10,60.005424559627144,
vodka,vodka,,,,,0,84,84,84,,,,,,,,589.4368634999264,None,"['v', 'o', 'd', 'k', 'a']",1,"[0.8005169997923076, 1.0642427999991924, 1.3122473999392241, 1.4161180998198688, 1.6082431999966502]",589.4368634999264,None,589.4367862200364,None,,,,,,,,,,,,s282_022092024,001,2024-02-29_11h26.36.354,test_typingtask_norepeats,2020.2.10,60.005424559627144,
haole,haole,,,,,0,85,85,85,,,,,,,,594.936907999916,None,"['h', 'a', 'o', 'l', 'e']",1,"[1.1481070998124778, 1.6601637999992818, 2.0201236999128014, 2.3160354997962713, 2.4440396998543292]",594.936907999916,None,594.9367964198813,595.0369327000808,,,,,,,,,,,,s282_022092024,001,2024-02-29_11h26.36.354,test_typingtask_norepeats,2020.2.10,60.005424559627144,
zibja,zibja,,,,,0,86,86,86,,,,,,,,600.4369437999558,None,"['z', 'i', 'b', 'j', 'a']",1,"[1.02407560008578, 1.6160573000088334, 1.976079300045967, 2.312077200040221, 2.5120559001807123]",600.4369437999558,None,600.4368178200442,600.5369657999836,,,,,,,,,,,,s282_022092024,001,2024-02-29_11h26.36.354,test_typingtask_norepeats,2020.2.10,60.005424559627144,
heond,heond,,,,,0,87,87,87,,,,,,,,605.9369898000732,None,"['h', 'e', 'o', 'n', 'd']",1,"[0.8999235001392663, 1.0519485000986606, 1.228008900070563, 1.5560157999861985, 1.7000097001437098]",605.9369898000732,None,605.9368238200899,606.0370012000203,,,,,,,,,,,,s282_022092024,001,2024-02-29_11h26.36.354,test_typingtask_norepeats,2020.2.10,60.005424559627144,
think,think,,,,,0,88,88,88,,,,,,,,611.4370178000536,None,"['t', 'h', 'i', 'n', 'k']",1,"[0.8801437001675367, 1.0319835001137108, 1.271991000045091, 1.6800007000565529, 1.9679747000336647]",611.4370178000536,None,611.4369404200464,611.5371312999632,,,,,,,,,,,,s282_022092024,001,2024-02-29_11h26.36.354,test_typingtask_norepeats,2020.2.10,60.005424559627144,
druze,druze,,,,,0,89,89,89,,,,,,,,616.9370023999363,None,"['d', 'r', 'u', 'z', 'e']",1,"[0.8520035999827087, 1.1320033997762948, 1.3159540998749435, 1.4759450999554247, 1.7719395000021905]",616.9370023999363,None,616.9369262199383,617.0370509000495,,,,,,,,,,,,s282_022092024,001,2024-02-29_11h26.36.354,test_typingtask_norepeats,2020.2.10,60.005424559627144,
faqir,faqir,,,,,0,90,90,90,,,,,,,,622.4370768000372,None,"['f', 'a', 'q', 'i', 'r']",1,"[0.8799473999533802, 1.1601438000798225, 1.5198544000741094, 2.1038987999781966, 2.3360045000445098]",622.4370768000372,None,622.436955920048,622.5370348999277,,,,,,,,,,,,s282_022092024,001,2024-02-29_11h26.36.354,test_typingtask_norepeats,2020.2.10,60.005424559627144,
about,about,,,,,0,91,91,91,,,,,,,,627.9371132999659,None,"['a', 'b', 'g', 'o', 'u', 't']",0,"[0.6038760000374168, 0.803913600044325, 0.8918751999735832, 0.9560902998782694, 1.2038052000571042, 1.36389430006966]",627.9371132999659,None,627.9369819200132,628.0370594998822,,,,,,,,,,,,s282_022092024,001,2024-02-29_11h26.36.354,test_typingtask_norepeats,2020.2.10,60.005424559627144,
there,there,,,,,0,92,92,92,,,,,,,,633.4371247000527,None,"['t', 'h', 'e', 'r', 'e']",1,"[0.8239988000132143, 0.9597926998976618, 1.080078799976036, 1.1840468000154942, 1.3600027998909354]",633.4371247000527,None,633.4370268200058,None,,,,,,,,,,,,s282_022092024,001,2024-02-29_11h26.36.354,test_typingtask_norepeats,2020.2.10,60.005424559627144,
about,about,,,,,0,93,93,93,,,,,,,,638.9372171000578,None,"['a', 'b', 'o', 'u', 't']",1,"[0.6037480998784304, 0.7878465000540018, 0.9397700999397784, 1.1557277000974864, 1.3237952999770641]",638.9372171000578,None,638.9370386200957,None,,,,,,,,,,,,s282_022092024,001,2024-02-29_11h26.36.354,test_typingtask_norepeats,2020.2.10,60.005424559627144,
heond,heond,,,,,0,94,94,94,,,,,,,,644.4371833000332,None,"['h', 'e', 'o', 'n', 'd']",1,"[0.8957893999759108, 1.2797191999852657, 1.447865700116381, 1.7757580999750644, 1.9117398001253605]",644.4371833000332,None,644.4370434198994,None,,,,,,,,,,,,s282_022092024,001,2024-02-29_11h26.36.354,test_typingtask_norepeats,2020.2.10,60.005424559627144,
would,would,,,,,0,95,95,95,,,,,,,,649.9372244998813,None,"['w', 'o', 'u', 'l', 'd']",1,"[0.6279301999602467, 0.7557095000520349, 1.0278930000495166, 1.4597525999415666, 1.5636811000294983]",649.9372244998813,None,649.9371044198982,None,,,,,,,,,,,,s282_022092024,001,2024-02-29_11h26.36.354,test_typingtask_norepeats,2020.2.10,60.005424559627144,
cooed,cooed,,,,,0,96,96,96,,,,,,,,655.437244300032,None,"['c', 'o', 'o', 'e', 'd']",1,"[0.8717066999524832, 1.0638721000868827, 1.2716801001224667, 1.4636615000199527, 1.7117018999997526]",655.437244300032,None,655.4371208200231,None,,,,,,,,,,,,s282_022092024,001,2024-02-29_11h26.36.354,test_typingtask_norepeats,2020.2.10,60.005424559627144,
would,would,,,,,0,97,97,97,,,,,,,,660.9372427999042,None,"['w', 'o', 'u', 'l', 'd']",1,"[0.6277047998737544, 0.771728599909693, 1.0678096998017281, 1.627699799835682, 1.780005799839273]",660.9372427999042,None,660.937131819874,None,,,,,,,,,,,,s282_022092024,001,2024-02-29_11h26.36.354,test_typingtask_norepeats,2020.2.10,60.005424559627144,
therm,therm,,,,,0,98,98,98,,,,,,,,666.4373051999137,None,"['t', 'h', 'e', 'r', 'm']",1,"[0.775593499885872, 0.9276246000081301, 1.119668899802491, 1.279713099822402, 1.3996511998120695]",666.4373051999137,None,666.4371755200904,None,,,,,,,,,,,,s282_022092024,001,2024-02-29_11h26.36.354,test_typingtask_norepeats,2020.2.10,60.005424559627144,
belly,belly,,,,,0,99,99,99,,,,,,,,671.9373375999276,None,"['b', 'e', 'l', 'l', 'y']",1,"[0.7396321000996977, 0.9957808998879045, 1.283726800000295, 1.443574900040403, 1.6517515000887215]",671.9373375999276,None,671.9374606200494,None,,,,,,,,,,,,s282_022092024,001,2024-02-29_11h26.36.354,test_typingtask_norepeats,2020.2.10,60.005424559627144,
druze,druze,,,,,0,100,100,100,,,,,,,,677.4374818000942,None,"['d', 'r', 'u', 'z', 'e']",1,"[0.8234351999126375, 1.4154290000442415, 1.6554123999085277, 1.8635539000388235, 2.1515919000376016]",677.4374818000942,None,677.4372207199689,None,,,,,,,,,,,,s282_022092024,001,2024-02-29_11h26.36.354,test_typingtask_norepeats,2020.2.10,60.005424559627144,
champ,champ,,,,,0,101,101,101,,,,,,,,682.9373520999216,None,"['c', 'h', 'a', 'm', 'p']",1,"[1.1315804000478238, 1.379561899928376, 1.619569499976933, 1.843560100067407, 2.2355760999489576]",682.9373520999216,None,682.9372628199402,None,,,,,,,,,,,,s282_022092024,001,2024-02-29_11h26.36.354,test_typingtask_norepeats,2020.2.10,60.005424559627144,
zibja,zibja,,,,,0,102,102,102,,,,,,,,688.4374722000211,None,"['z', 'i', 'b', 'j', 'a']",1,"[1.0555196998175234, 1.7434298999141902, 2.143427399918437, 2.6874460999388248, 2.855487999971956]",688.4374722000211,None,688.4372901200317,None,,,,,,,,,,,,s282_022092024,001,2024-02-29_11h26.36.354,test_typingtask_norepeats,2020.2.10,60.005424559627144,
kremp,kremp,,,,,0,103,103,103,,,,,,,,693.9374840999953,None,"['k', 'r', 'e', 'm', 'p']",1,"[1.251470600022003, 1.4595464000012726, 1.6673914999701083, 1.8913922000210732, 2.347406400134787]",693.9374840999953,None,693.9373198199086,None,,,,,,,,,,,,s282_022092024,001,2024-02-29_11h26.36.354,test_typingtask_norepeats,2020.2.10,60.005424559627144,
there,there,,,,,0,104,104,104,,,,,,,,699.4374804999679,None,"['t', 'h', 'r', 'e']",0,"[0.8155813999474049, 1.0394248000811785, 1.2234054000582546, 1.399433699902147]",699.4374804999679,None,699.4373460198752,None,,,,,,,,,,,,s282_022092024,001,2024-02-29_11h26.36.354,test_typingtask_norepeats,2020.2.10,60.005424559627144,
pykka,pykka,,,,,0,105,105,105,,,,,,,,704.9375841000583,None,"['p', 'y', 'k', 'k', 'a']",1,"[1.067350500030443, 1.4915711001958698, 2.147301800083369, 2.323295900132507, 2.4274147001560777]",704.9375841000583,None,704.9373881200794,None,,,,,,,,,,,,s282_022092024,001,2024-02-29_11h26.36.354,test_typingtask_norepeats,2020.2.10,60.005424559627144,
puppy,puppy,,,,,0,106,106,106,,,,,,,,710.4375698000658,None,"['p', 'u', 'p', 'p', 'y']",1,"[1.1433261001948267, 1.6953252002131194, 2.1993109001778066, 2.3833076001610607, 2.5512875001877546]",710.4375698000658,None,710.4374120199121,None,,,,,,,,,,,,s282_022092024,001,2024-02-29_11h26.36.354,test_typingtask_norepeats,2020.2.10,60.005424559627144,
think,think,,,,,0,107,107,107,,,,,,,,715.9377745999955,None,"['t', 'h', 'i', 'n', 'space', 'k']",0,"[0.8991432001348585, 1.0431105999741703, 1.2270913999527693, 1.475178400054574, 1.571118300082162, 1.763107700040564]",715.9377745999955,None,715.9377427199855,None,,,,,,,,,,,,s282_022092024,001,2024-02-29_11h26.36.354,test_typingtask_norepeats,2020.2.10,60.005424559627144,
buddy,buddy,,,,,0,108,108,108,,,,,,,,721.4375791000202,None,"['b', 'u', 'd', 'd', 'y']",1,"[1.2153850998729467, 1.7514644998591393, 1.9994916999712586, 2.2392736999318004, 2.4712947998195887]",721.4375791000202,None,721.4374705200083,None,,,,,,,,,,,,s282_022092024,001,2024-02-29_11h26.36.354,test_typingtask_norepeats,2020.2.10,60.005424559627144,
would,would,,,,,0,109,109,109,,,,,,,,726.9376348999795,None,"['w', 'o', 'u', 'l', 'd']",1,"[1.1072337999939919, 1.2592768999747932, 1.4512248998507857, 2.019277999876067, 2.14720999985002]",726.9376348999795,None,726.9375022199005,None,,,,,,,,,,,,s282_022092024,001,2024-02-29_11h26.36.354,test_typingtask_norepeats,2020.2.10,60.005424559627144,
edthe,edthe,,,,,0,110,110,110,,,,,,,,732.4376101999078,None,"['e', 'd', 't', 'h', 'e']",1,"[0.8474316000938416, 1.1032811000477523, 1.4312543000560254, 1.607415100093931, 1.8632442001253366]",732.4376101999078,None,732.4374874200206,None,,,,,,,,,,,,s282_022092024,001,2024-02-29_11h26.36.354,test_typingtask_norepeats,2020.2.10,60.005424559627144,
haole,haole,,,,,0,111,111,111,,,,,,,,737.9376662999857,None,"['h', 'a', 'o', 'l', 'e']",1,"[1.2831989000551403, 1.4913055000361055, 1.9151989000383765, 2.2351740000303835, 2.3792171000968665]",737.9376662999857,None,737.9375313200056,None,,,,,,,,,,,,s282_022092024,001,2024-02-29_11h26.36.354,test_typingtask_norepeats,2020.2.10,60.005424559627144,
champ,champ,,,,,0,112,112,112,,,,,,,,743.4376825001091,None,"['c', 'h', 'a', 'm', 'p']",1,"[0.8952047000639141, 1.0872198999859393, 1.3432857999578118, 1.5192478999961168, 1.8553330998402089]",743.4376825001091,None,743.4375842200592,None,,,,,,,,,,,,s282_022092024,001,2024-02-29_11h26.36.354,test_typingtask_norepeats,2020.2.10,60.005424559627144,
vodka,vodka,,,,,0,113,113,113,,,,,,,,748.9377697000746,None,"['v', 'o', 'd', 'k', 'a']",1,"[0.8910842998884618, 1.1472428999841213, 1.3312107999809086, 1.4830136999953538, 1.6830261999275535]",748.9377697000746,None,748.9375842200592,None,,,,,,,,,,,,s282_022092024,001,2024-02-29_11h26.36.354,test_typingtask_norepeats,2020.2.10,60.005424559627144,
about,about,,,,,0,114,114,114,,,,,,,,754.4378219000064,None,"['a', 'b', 'o', 'u', 't']",1,"[0.631044500041753, 0.8071331998798996, 0.9590848998632282, 1.183067899895832, 1.4469989000353962]",754.4378219000064,None,754.4377297198865,None,,,,,,,,,,,,s282_022092024,001,2024-02-29_11h26.36.354,test_typingtask_norepeats,2020.2.10,60.005424559627144,
champ,champ,,,,,0,115,115,115,,,,,,,,759.9378001999576,None,"['c', 'h', 'a', 'm', 'p']",1,"[0.8910461000632495, 1.131151800043881, 1.867331099929288, 2.0510372000280768, 2.611043799901381]",759.9378001999576,None,759.9376550198998,None,,,,,,,,,,,,s282_022092024,001,2024-02-29_11h26.36.354,test_typingtask_norepeats,2020.2.10,60.005424559627144,
puppy,puppy,,,,,0,116,116,116,,,,,,,,765.4378311000764,None,"['p', 'u', 'p', 'p', 'y']",1,"[0.9352120000403374, 1.2870083001907915, 1.8070047001820058, 1.9430335001088679, 2.119005999993533]",765.4378311000764,None,765.4377013199031,None,,,,,,,,,,,,s282_022092024,001,2024-02-29_11h26.36.354,test_typingtask_norepeats,2020.2.10,60.005424559627144,
zibja,zibja,,,,,0,117,117,117,,,,,,,,770.9378498001024,None,"['z', 'i', 'b', 'j', 'a']",1,"[1.1949946000240743, 1.435186899965629, 1.7949733000714332, 2.042943600099534, 2.234952900093049]",770.9378498001024,None,770.9377017199062,None,,,,,,,,,,,,s282_022092024,001,2024-02-29_11h26.36.354,test_typingtask_norepeats,2020.2.10,60.005424559627144,
there,there,,,,,0,118,118,118,,,,,,,,776.4379042999353,None,"['t', 'h', 'e', 'r', 'e']",1,"[0.8629465999547392, 1.046921500004828, 1.2310947000514716, 1.383103600004688, 1.5510221999138594]",776.4379042999353,None,776.4377407199703,None,,,,,,,,,,,,s282_022092024,001,2024-02-29_11h26.36.354,test_typingtask_norepeats,2020.2.10,60.005424559627144,
faqir,faqir,,,,,0,119,119,119,,,,,,,,781.9379545000847,None,"['f', 'a', 'q', 'i', 'r']",1,"[1.2589126999955624, 1.5789110001642257, 1.9068824001587927, 2.2669087999965996, 2.4268579999916255]",781.9379545000847,None,781.9377492199186,None,,,,,,,,,,,,s282_022092024,001,2024-02-29_11h26.36.354,test_typingtask_norepeats,2020.2.10,60.005424559627144,
would,would,,,,,,,,,0,0,0,0,,,,,,,,,,,,,787.4379497000482,None,922.2220439999364,None,"['w', 'o', 'u', 'l', 'd']",1,"[1.6708273000549525, 1.8786220999900252, 2.1026020999997854, 2.6386295000556856, 2.774599099997431]",922.2220439999364,None,922.2218804199714,922.3219800998922,s282_022092024,001,2024-02-29_11h26.36.354,test_typingtask_norepeats,2020.2.10,60.005424559627144,
buddy,buddy,,,,,,,,,0,1,1,1,,,,,,,,,,,,,,,927.7221113000996,None,"['b', 'u', 'd', 'd', 'y']",1,"[0.7465806000400335, 1.2746168000157923, 1.6426804000511765, 1.850571900140494, 2.034625699976459]",927.7221113000996,None,927.7219401200767,None,s282_022092024,001,2024-02-29_11h26.36.354,test_typingtask_norepeats,2020.2.10,60.005424559627144,
kremp,kremp,,,,,,,,,0,2,2,2,,,,,,,,,,,,,,,933.2220924000721,None,"['k', 'r', 'e', 'm', 'p']",1,"[0.7986012999899685, 1.062597000040114, 1.326589599950239, 1.4785811000037938, 1.9265552998986095]",933.2220924000721,None,933.2221738198772,None,s282_022092024,001,2024-02-29_11h26.36.354,test_typingtask_norepeats,2020.2.10,60.005424559627144,
tithe,tithe,,,,,,,,,0,3,3,3,,,,,,,,,,,,,,,938.7221317999065,None,"['t', 'i', 'h', 'e']",0,"[0.8985645999200642, 1.1225241001229733, 1.9146618000231683, 2.074662199942395]",938.7221317999065,None,938.7222179200966,None,s282_022092024,001,2024-02-29_11h26.36.354,test_typingtask_norepeats,2020.2.10,60.005424559627144,
kremp,kremp,,,,,,,,,0,4,4,4,,,,,,,,,,,,,,,944.2220962001011,None,"['k', 'r', 'e', 'm', 'p']",1,"[0.7905874000862241, 0.9106243001297116, 1.0385733000002801, 1.1665558000095189, 1.4946407000534236]",944.2220962001011,None,944.2220206198748,None,s282_022092024,001,2024-02-29_11h26.36.354,test_typingtask_norepeats,2020.2.10,60.005424559627144,
about,about,,,,,,,,,0,5,5,5,,,,,,,,,,,,,,,949.7221633999143,None,"['a', 'b', 'o', 'u', 't']",1,"[0.6506712001282722, 0.8344827000983059, 0.9784667999483645, 1.2025629000272602, 1.354530300013721]",949.7221633999143,None,949.7220351201016,None,s282_022092024,001,2024-02-29_11h26.36.354,test_typingtask_norepeats,2020.2.10,60.005424559627144,
haole,haole,,,,,,,,,0,6,6,6,,,,,,,,,,,,,,,955.2222192999907,None,"['h', 'a', 'o', 'l', 'e']",1,"[1.3184452999848872, 1.6545093001332134, 2.0224886001087725, 2.310473200166598, 2.4864326999522746]",955.2222192999907,None,955.2220822198782,None,s282_022092024,001,2024-02-29_11h26.36.354,test_typingtask_norepeats,2020.2.10,60.005424559627144,
vodka,vodka,,,,,,,,,0,7,7,7,,,,,,,,,,,,,,,960.7222398999147,None,"['v', 'o', 'd', 'k']",0,"[0.954628299921751, 1.1704069001134485, 1.370729099959135, 1.5465218001045287]",960.7222398999147,None,960.7220697198994,None,s282_022092024,001,2024-02-29_11h26.36.354,test_typingtask_norepeats,2020.2.10,60.005424559627144,
cooed,cooed,,,,,,,,,0,8,8,8,,,,,,,,,,,,,,,966.2222682998981,None,"['c', 'o', 'o', 'e', 'd']",1,"[0.6864173000212759, 0.8466899001505226, 1.0304046000819653, 1.1508994000032544, 1.3823730000294745]",966.2222682998981,None,966.2220981198828,None,s282_022092024,001,2024-02-29_11h26.36.354,test_typingtask_norepeats,2020.2.10,60.005424559627144,
druze,druze,,,,,,,,,0,9,9,9,,,,,,,,,,,,,,,971.7222998999059,None,"['d', 'r', 'u', 'z', 'e']",1,"[0.8183649000711739, 1.130335400113836, 1.3304693999234587, 1.5144559000618756, 1.8343714999500662]",971.7222998999059,None,971.7221311199013,None,s282_022092024,001,2024-02-29_11h26.36.354,test_typingtask_norepeats,2020.2.10,60.005424559627144,
there,there,,,,,,,,,0,10,10,10,,,,,,,,,,,,,,,977.2222885999363,None,"['t', 'h', 'e', 'r', 'e']",1,"[0.7745048999786377, 1.0064673000015318, 1.2383330001030117, 1.4223402000498027, 1.5423345000017434]",977.2222885999363,None,977.2221612200141,None,s282_022092024,001,2024-02-29_11h26.36.354,test_typingtask_norepeats,2020.2.10,60.005424559627144,
vodka,vodka,,,,,,,,,0,11,11,11,,,,,,,,,,,,,,,982.7223201000597,None,"['v', 'o', 'd', 'k', 'a']",1,"[0.9543500998988748, 1.2022961999755353, 1.3703872000332922, 1.562297600088641, 1.7383008000906557]",982.7223201000597,None,982.7222369200084,None,s282_022092024,001,2024-02-29_11h26.36.354,test_typingtask_norepeats,2020.2.10,60.005424559627144,
there,there,,,,,,,,,0,12,12,12,,,,,,,,,,,,,,,988.2223900998943,None,"['t', 'h', 'e', 'r', 'e']",1,"[0.8462457000277936, 1.086218599928543, 1.1902381998952478, 1.3184091998264194, 1.486286300001666]",988.2223900998943,None,988.2222639199812,None,s282_022092024,001,2024-02-29_11h26.36.354,test_typingtask_norepeats,2020.2.10,60.005424559627144,
belly,belly,,,,,,,,,0,13,13,13,,,,,,,,,,,,,,,993.722434299998,None,"['b', 'e', 'l', 'l', 'y']",1,"[0.8343613999895751, 1.1301988000050187, 1.3303161000367254, 1.490296799922362, 1.6503534000366926]",993.722434299998,None,993.7222937199753,None,s282_022092024,001,2024-02-29_11h26.36.354,test_typingtask_norepeats,2020.2.10,60.005424559627144,
vanru,vanru,,,,,,,,,0,14,14,14,,,,,,,,,,,,,,,999.2224395000376,None,"['v', 'a', 'n', 'r', 'u']",1,"[1.1102016000077128, 1.438198700081557, 1.7981988000683486, 2.038169499952346, 2.246173300081864]",999.2224395000376,None,999.2223470200319,None,s282_022092024,001,2024-02-29_11h26.36.354,test_typingtask_norepeats,2020.2.10,60.005424559627144,
belly,belly,,,,,,,,,0,15,15,15,,,,,,,,,,,,,,,1004.7224860999268,None,"['b', 'e', 'l', 'l', 'y']",1,"[0.7381396999116987, 0.9062455000821501, 1.1301690000109375, 1.2661798999179155, 1.4181333999149501]",1004.7224860999268,None,1004.7223211199511,None,s282_022092024,001,2024-02-29_11h26.36.354,test_typingtask_norepeats,2020.2.10,60.005424559627144,
buddy,buddy,,,,,,,,,0,16,16,16,,,,,,,,,,,,,,,1010.2224975998979,None,"['b', 'u', 'd', 'd', 'y']",1,"[0.6541516999714077, 1.014134299941361, 1.190290599828586, 1.3422401999123394, 1.5341582000255585]",1010.2224975998979,None,1010.2224100200459,None,s282_022092024,001,2024-02-29_11h26.36.354,test_typingtask_norepeats,2020.2.10,60.005424559627144,
champ,champ,,,,,,,,,0,17,17,17,,,,,,,,,,,,,,,1015.7225571998861,None,"['c', 'h', 'a', 'm', 'p']",1,"[0.6580612999387085, 0.8100888000335544, 0.9780211998149753, 1.2740694000385702, 1.6421713000163436]",1015.7225571998861,None,1015.7224139199592,None,s282_022092024,001,2024-02-29_11h26.36.354,test_typingtask_norepeats,2020.2.10,60.005424559627144,
theme,theme,,,,,,,,,0,18,18,18,,,,,,,,,,,,,,,1021.2225848000962,None,"['t', 'h', 'e', 'm', 'e']",1,"[0.758093100041151, 0.9420109000056982, 1.1259512999095023, 1.3179965000599623, 1.446240099845454]",1021.2225848000962,None,1021.2224110200535,None,s282_022092024,001,2024-02-29_11h26.36.354,test_typingtask_norepeats,2020.2.10,60.005424559627144,
puppy,puppy,,,,,,,,,0,19,19,19,,,,,,,,,,,,,,,1026.7226098000538,None,"['p', 'u', 'p', 'p', 'y']",1,"[0.7380087000783533, 1.0741612000856549, 1.474125700071454, 1.657975200098008, 1.8579688998870552]",1026.7226098000538,None,1026.7224740200677,1026.822609799914,s282_022092024,001,2024-02-29_11h26.36.354,test_typingtask_norepeats,2020.2.10,60.005424559627144,
cooed,cooed,,,,,,,,,0,20,20,20,,,,,,,,,,,,,,,1032.2226547999308,None,"['c', 'o', 'o', 'e', 'd']",1,"[1.0540552998427302, 1.3099591999780387, 1.5100970999337733, 1.7419435000047088, 1.9819398999679834]",1032.2226547999308,None,1032.2224701199216,None,s282_022092024,001,2024-02-29_11h26.36.354,test_typingtask_norepeats,2020.2.10,60.005424559627144,
belly,belly,,,,,,,,,0,21,21,21,,,,,,,,,,,,,,,1037.7226819000207,None,"['b', 'e', 'l', 'l', 'y']",1,"[0.7219198998063803, 0.9540065999608487, 1.1939069998916239, 1.3779147998429835, 1.5459672999568284]",1037.7226819000207,None,1037.722516419925,None,s282_022092024,001,2024-02-29_11h26.36.354,test_typingtask_norepeats,2020.2.10,60.005424559627144,
edthe,edthe,,,,,,,,,0,22,22,22,,,,,,,,,,,,,,,1043.2226738000754,None,"['e', 'd', 't', 'h', 'e']",1,"[0.8059379002079368, 1.077997700078413, 1.4539260000456125, 1.69399100006558, 1.9018931000027806]",1043.2226738000754,None,1043.2225805200637,1043.3227119999938,s282_022092024,001,2024-02-29_11h26.36.354,test_typingtask_norepeats,2020.2.10,60.005424559627144,
think,think,,,,,,,,,0,23,23,23,,,,,,,,,,,,,,,1048.7226994999219,None,"['t', 'h', 'i', 'n', 'k']",1,"[0.7139288999605924, 0.8018304998986423, 0.9939304001163691, 1.225922100013122, 1.4739572999533266]",1048.7226994999219,None,1048.7226202200168,1048.822693400085,s282_022092024,001,2024-02-29_11h26.36.354,test_typingtask_norepeats,2020.2.10,60.005424559627144,
therm,therm,,,,,,,,,0,24,24,24,,,,,,,,,,,,,,,1054.222772100009,None,"['t', 'h', 'e', 'r', 'm']",1,"[0.7738359000068158, 0.9497636000160128, 1.1497764999512583, 1.3179431001190096, 1.5497697000391781]",1054.222772100009,None,1054.2226628198755,1054.3227176000364,s282_022092024,001,2024-02-29_11h26.36.354,test_typingtask_norepeats,2020.2.10,60.005424559627144,
faqir,faqir,,,,,,,,,0,25,25,25,,,,,,,,,,,,,,,1059.722796899965,None,"['f', 'a', 'q', 'i', 'r']",1,"[1.1857831999659538, 1.4258826998993754, 2.1297955999616534, 2.5217842999845743, 2.7777845000382513]",1059.722796899965,None,1059.7226730199532,1059.822801399976,s282_022092024,001,2024-02-29_11h26.36.354,test_typingtask_norepeats,2020.2.10,60.005424559627144,
cheer,cheer,,,,,,,,,0,26,26,26,,,,,,,,,,,,,,,1065.2228312999941,None,"['c', 'h', 'e', 'e', 'r']",1,"[0.7577432999387383, 0.9418496999423951, 1.1657117998693138, 1.3498129998333752, 1.573744999943301]",1065.2228312999941,None,1065.2227026199457,1065.3228343999945,s282_022092024,001,2024-02-29_11h26.36.354,test_typingtask_norepeats,2020.2.10,60.005424559627144,
champ,champ,,,,,,,,,0,27,27,27,,,,,,,,,,,,,,,1070.7228232000489,None,"['c', 'h', 'a', 'm', 'p']",1,"[0.9377409000881016, 1.1377379999030381, 1.3058464999776334, 1.505751800024882, 1.8577433000318706]",1070.7228232000489,None,1070.722740119882,None,s282_022092024,001,2024-02-29_11h26.36.354,test_typingtask_norepeats,2020.2.10,60.005424559627144,
heond,heond,,,,,,,,,0,28,28,28,,,,,,,,,,,,,,,1076.2228675999213,None,"['h', 'e', 'o', 'n', 'd']",1,"[1.4376966999843717, 1.5497087999247015, 1.7097640000283718, 2.0376939999405295, 2.1738915001042187]",1076.2228675999213,None,1076.2227728200146,None,s282_022092024,001,2024-02-29_11h26.36.354,test_typingtask_norepeats,2020.2.10,60.005424559627144,
zibja,zibja,,,,,,,,,0,29,29,29,,,,,,,,,,,,,,,1081.7229025000706,None,"['z', 'i', 'b', 'j', 'a']",1,"[1.0336688999086618, 1.409639999968931, 1.8336378999520093, 2.017748499987647, 2.5856502999085933]",1081.7229025000706,None,1081.7228173200042,None,s282_022092024,001,2024-02-29_11h26.36.354,test_typingtask_norepeats,2020.2.10,60.005424559627144,
belly,belly,,,,,,,,,0,30,30,30,,,,,,,,,,,,,,,1087.2229661999736,None,"['b', 'e', 'l', 'l', 'y']",1,"[0.7176121000666171, 0.9176815999671817, 1.2535039000213146, 1.437645300058648, 1.65356280002743]",1087.2229661999736,None,1087.2228679199238,None,s282_022092024,001,2024-02-29_11h26.36.354,test_typingtask_norepeats,2020.2.10,60.005424559627144,
edthe,edthe,,,,,,,,,0,31,31,31,,,,,,,,,,,,,,,1092.7229631000664,None,"['e', 'd', 't', 'h']",0,"[0.8655948999803513, 1.1376110999844968, 1.417749600019306, 1.609746899921447]",1092.7229631000664,None,1092.7228582199664,None,s282_022092024,001,2024-02-29_11h26.36.354,test_typingtask_norepeats,2020.2.10,60.005424559627144,
vanru,vanru,,,,,,,,,0,32,32,32,,,,,,,,,,,,,,,1098.2230253000744,None,"['v', 'space', 'a', 'n', 'r', 'u']",0,"[0.9575273999944329, 0.9975535001140088, 1.1095110001042485, 1.4854993000626564, 1.6057078000158072, 1.7896193000487983]",1098.2230253000744,None,1098.2228728200776,None,s282_022092024,001,2024-02-29_11h26.36.354,test_typingtask_norepeats,2020.2.10,60.005424559627144,
zibja,zibja,,,,,,,,,0,33,33,33,,,,,,,,,,,,,,,1103.7230467000045,None,"['z', 'i', 'b', 'j', 'a']",1,"[1.0014975999947637, 1.2495079000946134, 1.6736169999931008, 1.9134786000940949, 2.097481400007382]",1103.7230467000045,None,1103.7228853200563,None,s282_022092024,001,2024-02-29_11h26.36.354,test_typingtask_norepeats,2020.2.10,60.005424559627144,
pykka,pykka,,,,,,,,,0,34,34,34,,,,,,,,,,,,,,,1109.223051900044,None,"['p', 'y', 'k', 'k', 'a']",1,"[0.9015013999305665, 1.3414805999491364, 2.1734496001154184, 2.3174413999076933, 2.4136008000932634]",1109.223051900044,None,1109.2229743200355,None,s282_022092024,001,2024-02-29_11h26.36.354,test_typingtask_norepeats,2020.2.10,60.005424559627144,
champ,champ,,,,,,,,,0,35,35,35,,,,,,,,,,,,,,,1114.7231215001084,None,"['c', 'h', 'a', 'm', 'p']",1,"[0.8014150999952108, 1.0255154999904335, 1.2174682000186294, 1.3455141000449657, 1.5375070001464337]",1114.7231215001084,None,1114.7229920200539,None,s282_022092024,001,2024-02-29_11h26.36.354,test_typingtask_norepeats,2020.2.10,60.005424559627144,
buddy,buddy,,,,,,,,,0,36,36,36,,,,,,,,,,,,,,,1120.2231997998897,None,"['b', 'u', 'd', 'd', 'y']",1,"[1.0133550001773983, 1.277322500012815, 1.4613741000648588, 1.6374123999848962, 1.8294204000849277]",1120.2231997998897,None,1120.2230216200464,None,s282_022092024,001,2024-02-29_11h26.36.354,test_typingtask_norepeats,2020.2.10,60.005424559627144,
vodka,vodka,,,,,,,,,0,37,37,37,,,,,,,,,,,,,,,1125.7231795000844,None,"['v', 'o', 'd', 'k', 'a']",1,"[0.873490700032562, 1.1133328001014888, 1.2974432001356035, 1.4493535000365227, 1.6412886001635343]",1125.7231795000844,None,1125.7230391200633,None,s282_022092024,001,2024-02-29_11h26.36.354,test_typingtask_norepeats,2020.2.10,60.005424559627144,
lucky,lucky,,,,,,,,,0,38,38,38,,,,,,,,,,,,,,,1131.223205700051,None,"['l', 'u', 'c', 'k', 'y']",1,"[0.8053029999136925, 1.1253066998906434, 1.2613301000092179, 1.4454026999883354, 1.7332844000775367]",1131.223205700051,None,1131.2231013200712,None,s282_022092024,001,2024-02-29_11h26.36.354,test_typingtask_norepeats,2020.2.10,60.005424559627144,
about,about,,,,,,,,,0,39,39,39,,,,,,,,,,,,,,,1136.7232393999584,None,"['a', 'b', 'o', 'u', 't']",1,"[0.6092924999538809, 0.7773841999005526, 0.865379499970004, 1.0812581998761743, 1.1852529998868704]",1136.7232393999584,None,1136.723103920091,None,s282_022092024,001,2024-02-29_11h26.36.354,test_typingtask_norepeats,2020.2.10,60.005424559627144,
puppy,puppy,,,,,,,,,0,40,40,40,,,,,,,,,,,,,,,1142.2232751999982,None,"['p', 'u', 'p', 'p', 'y']",1,"[0.9493097998201847, 1.2772206999361515, 1.6851816000416875, 1.8613604998681694, 2.029165299842134]",1142.2232751999982,None,1142.2231323200745,None,s282_022092024,001,2024-02-29_11h26.36.354,test_typingtask_norepeats,2020.2.10,60.005424559627144,
there,there,,,,,,,,,0,41,41,41,,,,,,,,,,,,,,,1147.7233122999314,None,"['t', 'h', 'e', 'r', 'e']",1,"[0.7851925999857485, 0.9611456000711769, 1.0572752999141812, 1.201106599997729, 1.3611687999218702]",1147.7233122999314,None,1147.7231639200822,1147.8232988000382,s282_022092024,001,2024-02-29_11h26.36.354,test_typingtask_norepeats,2020.2.10,60.005424559627144,
faqir,faqir,,,,,,,,,0,42,42,42,,,,,,,,,,,,,,,1153.223359100055,None,"['f', 'a', 'q', 'i', 'r']",1,"[0.829124900046736, 1.0532543999142945, 1.4133146998938173, 1.8611019998788834, 2.0293219999875873]",1153.223359100055,None,1153.2232106200886,1153.3233449999243,s282_022092024,001,2024-02-29_11h26.36.354,test_typingtask_norepeats,2020.2.10,60.005424559627144,
kremp,kremp,,,,,,,,,0,43,43,43,,,,,,,,,,,,,,,1158.7233714000322,None,"['k', 'r', 'e', 'm', 'p']",1,"[0.9611186999827623, 1.0732672999147326, 1.2252261999528855, 1.5611037998460233, 2.06509459996596]",1158.7233714000322,None,1158.7232338200324,1158.8233386001084,s282_022092024,001,2024-02-29_11h26.36.354,test_typingtask_norepeats,2020.2.10,60.005424559627144,
lucky,lucky,,,,,,,,,0,44,44,44,,,,,,,,,,,,,,,1164.2234042000491,None,"['l', 'u', 'c', 'k', 'y']",1,"[0.7332200999371707, 1.0931049999780953, 1.237035899888724, 1.4211804999504238, 1.653221899876371]",1164.2234042000491,None,1164.2232349199244,1164.3234017000068,s282_022092024,001,2024-02-29_11h26.36.354,test_typingtask_norepeats,2020.2.10,60.005424559627144,
cheer,cheer,,,,,,,,,0,45,45,45,,,,,,,,,,,,,,,1169.7235063000116,None,"['c', 'h', 'e', 'e', 'r']",1,"[0.9049372000154108, 1.0809481998439878, 1.2890769999939948, 1.4889610998798162, 1.7209764998406172]",1169.7235063000116,None,1169.723302420089,1169.8234365999233,s282_022092024,001,2024-02-29_11h26.36.354,test_typingtask_norepeats,2020.2.10,60.005424559627144,
champ,champ,,,,,,,,,0,46,46,46,,,,,,,,,,,,,,,1175.223450700054,None,"['c', 'h', 'a', 'm', 'p']",1,"[0.7490230000112206, 0.9251427000854164, 1.1490018002223223, 1.2850087000988424, 1.5810064000543207]",1175.223450700054,None,1175.223342819931,1175.3234753001016,s282_022092024,001,2024-02-29_11h26.36.354,test_typingtask_norepeats,2020.2.10,60.005424559627144,
kremp,kremp,,,,,,,,,0,47,47,47,,,,,,,,,,,,,,,1180.7235018999781,None,"['k', 'r', 'e', 'm', 'p']",1,"[0.8730164000298828, 1.008945999899879, 1.1529560000635684, 1.2809549998492002, 1.6331207999028265]",1180.7235018999781,None,1180.723388220044,1180.8235456000548,s282_022092024,001,2024-02-29_11h26.36.354,test_typingtask_norepeats,2020.2.10,60.005424559627144,
think,think,,,,,,,,,0,48,48,48,,,,,,,,,,,,,,,1186.2235326000955,None,"['t', 'h', 'i', 'n', 'k']",1,"[0.7809260999783874, 0.9409022000618279, 1.1651383000425994, 1.5249111999291927, 1.8129124999977648]",1186.2235326000955,None,1186.2234131198843,1186.3235363999847,s282_022092024,001,2024-02-29_11h26.36.354,test_typingtask_norepeats,2020.2.10,60.005424559627144,
there,there,,,,,,,,,0,49,49,49,,,,,,,,,,,,,,,1191.723564099986,None,"['t', 'h', 'e', 'r', 'e']",1,"[0.7288943000603467, 0.8568893000483513, 1.1369889001362026, 1.20886250003241, 1.7048667999915779]",1191.723564099986,None,1191.7234587199987,1191.8235597000457,s282_022092024,001,2024-02-29_11h26.36.354,test_typingtask_norepeats,2020.2.10,60.005424559627144,
heond,heond,,,,,,,,,0,50,50,50,,,,,,,,,,,,,,,1197.223604900064,None,"['h', 'e', 'o', 'n', 'd']",1,"[1.6608501998707652, 1.8368589000310749, 2.076898799976334, 2.460842699976638, 2.6048322999849916]",1197.223604900064,None,1197.2234633200337,1197.3235909000505,s282_022092024,001,2024-02-29_11h26.36.354,test_typingtask_norepeats,2020.2.10,60.005424559627144,
pykka,pykka,,,,,,,,,0,51,51,51,,,,,,,,,,,,,,,1202.7236349000596,None,"['p', 'y', 'k', 'k', 'a']",1,"[1.1687994999811053, 1.5529489999171346, 2.2008692000526935, 2.352926000021398, 2.4889215999282897]",1202.7236349000596,None,1202.7236150199083,1202.8236247999594,s282_022092024,001,2024-02-29_11h26.36.354,test_typingtask_norepeats,2020.2.10,60.005424559627144,
about,about,,,,,,,,,0,52,52,52,,,,,,,,,,,,,,,1208.2236617000308,None,"['a', 'b', 'o', 'u', 't']",1,"[0.6128431998658925, 0.7567592000123113, 0.8527976998593658, 1.1088191999588162, 1.3488913998007774]",1208.2236617000308,None,1208.2235479199794,None,s282_022092024,001,2024-02-29_11h26.36.354,test_typingtask_norepeats,2020.2.10,60.005424559627144,
zibja,zibja,,,,,,,,,0,53,53,53,,,,,,,,,,,,,,,1213.7236830000766,None,"['z', 'i', 'b', 'j', 'a']",1,"[1.0008036000654101, 1.2087532000150532, 1.5687279999256134, 1.80077000008896, 1.9288151999935508]",1213.7236830000766,None,1213.7235679198989,1213.823694899911,s282_022092024,001,2024-02-29_11h26.36.354,test_typingtask_norepeats,2020.2.10,60.005424559627144,
think,think,,,,,,,,,0,54,54,54,,,,,,,,,,,,,,,1219.223708699923,None,"['t', 'h', 'i', 'n', 'k']",1,"[0.7807269000913948, 0.916713000042364, 1.0927687999792397, 1.3966975000221282, 1.5968798000831157]",1219.223708699923,None,1219.223582819896,1219.3237320000771,s282_022092024,001,2024-02-29_11h26.36.354,test_typingtask_norepeats,2020.2.10,60.005424559627144,
about,about,,,,,,,,,0,55,55,55,,,,,,,,,,,,,,,1224.7237243000418,None,"['a', 'b', 'o', 'u', 't']",1,"[0.6167013000231236, 0.8166914000175893, 0.9847353000659496, 1.184677500044927, 1.3208634001202881]",1224.7237243000418,None,1224.7236324200408,1224.8237662001047,s282_022092024,001,2024-02-29_11h26.36.354,test_typingtask_norepeats,2020.2.10,60.005424559627144,
cooed,cooed,,,,,,,,,0,56,56,56,,,,,,,,,,,,,,,1230.2237579999492,None,"['c', 'o', 'o', 'e', 'd']",1,"[0.8686675000935793, 1.0607596999034286, 1.2366595000494272, 1.356677500065416, 1.580642499960959]",1230.2237579999492,None,1230.2236909199041,1230.3237900999375,s282_022092024,001,2024-02-29_11h26.36.354,test_typingtask_norepeats,2020.2.10,60.005424559627144,
edthe,edthe,,,,,,,,,0,57,57,57,,,,,,,,,,,,,,,1235.7237897000741,None,"['e', 'd', 't', 'h', 'e']",1,"[0.7846319999080151, 1.0166497000027448, 1.2887333000544459, 1.4807549000252038, 1.6006328000221401]",1235.7237897000741,None,1235.7237646198832,1235.8238264999818,s282_022092024,001,2024-02-29_11h26.36.354,test_typingtask_norepeats,2020.2.10,60.005424559627144,
champ,champ,,,,,,,,,0,58,58,58,,,,,,,,,,,,,,,1241.2238620000426,None,"['c', 'h', 'a', 'm', 'p']",1,"[0.8365633001085371, 1.0606627000961453, 1.5645373000297695, 1.692607400007546, 1.9965568999759853]",1241.2238620000426,None,1241.2237350198907,1241.3238017000258,s282_022092024,001,2024-02-29_11h26.36.354,test_typingtask_norepeats,2020.2.10,60.005424559627144,
therm,therm,,,,,,,,,0,59,59,59,,,,,,,,,,,,,,,1246.7240504999645,None,"['t', 'h', 'e', 'r', 'm']",1,"[0.7444394999183714, 0.8964247000403702, 1.0484392000362277, 1.1843306999653578, 1.3524267999455333]",1246.7240504999645,None,1246.7240523200949,1246.8239903999493,s282_022092024,001,2024-02-29_11h26.36.354,test_typingtask_norepeats,2020.2.10,60.005424559627144,
edthe,edthe,,,,,,,,,0,60,60,60,,,,,,,,,,,,,,,1252.2239224999212,None,"['e', 'd', 't', 'h', 'e']",1,"[0.7645018000621349, 1.0124882000964135, 1.28447029995732, 1.4364474001340568, 1.5644203999545425]",1252.2239224999212,None,1252.223822620092,None,s282_022092024,001,2024-02-29_11h26.36.354,test_typingtask_norepeats,2020.2.10,60.005424559627144,
lucky,lucky,,,,,,,,,0,61,61,61,,,,,,,,,,,,,,,1257.724021299975,None,"['l', 'u', 'c', 'k', 'y']",1,"[0.9683578999247402, 1.2564037998672575, 1.4083539999555796, 1.600768999895081, 1.8163030999712646]",1257.724021299975,None,1257.7238695201,1257.8239969999995,s282_022092024,001,2024-02-29_11h26.36.354,test_typingtask_norepeats,2020.2.10,60.005424559627144,
about,about,,,,,,,,,0,62,62,62,,,,,,,,,,,,,,,1263.223981200019,None,"['a', 'b', 'o', 'u', 't']",1,"[0.6204166999086738, 0.796513999812305, 0.9325100998394191, 1.140465599950403, 1.2443987999577075]",1263.223981200019,None,1263.2238681200893,None,s282_022092024,001,2024-02-29_11h26.36.354,test_typingtask_norepeats,2020.2.10,60.005424559627144,
theme,theme,,,,,,,,,0,63,63,63,,,,,,,,,,,,,,,1268.7239822000265,None,"['t', 'h', 'e', 'm', 'e']",1,"[0.7204235000535846, 0.8803382001351565, 1.0643371001351625, 1.2324419000651687, 1.3604449999984354]",1268.7239822000265,None,1268.7239052200225,None,s282_022092024,001,2024-02-29_11h26.36.354,test_typingtask_norepeats,2020.2.10,60.005424559627144,
tithe,tithe,,,,,,,,,0,64,64,64,,,,,,,,,,,,,,,1274.2240482999478,None,"['t', 'i', 't', 'h', 'e']",1,"[0.8923893999308348, 1.0683263998944312, 1.1724398999940604, 1.3882952998392284, 1.516484099905938]",1274.2240482999478,None,1274.2240365199746,None,s282_022092024,001,2024-02-29_11h26.36.354,test_typingtask_norepeats,2020.2.10,60.005424559627144,
puppy,puppy,,,,,,,,,0,65,65,65,,,,,,,,,,,,,,,1279.7240764999297,None,"['p', 'u', 'p', 'p', 'y']",1,"[0.9442797999363393, 1.360403599916026, 1.7204464999958873, 1.9042960999067873, 2.144277299987152]",1279.7240764999297,None,1279.7240051199683,None,s282_022092024,001,2024-02-29_11h26.36.354,test_typingtask_norepeats,2020.2.10,60.005424559627144,
therm,therm,,,,,,,,,0,66,66,66,,,,,,,,,,,,,,,1285.2240794999525,None,"['t', 'h', 'e', 'r', 'm']",1,"[0.844325999962166, 1.004238300025463, 1.140277799917385, 1.292321499902755, 1.4282849000301212]",1285.2240794999525,None,1285.223967220029,None,s282_022092024,001,2024-02-29_11h26.36.354,test_typingtask_norepeats,2020.2.10,60.005424559627144,
think,think,,,,,,,,,0,67,67,67,,,,,,,,,,,,,,,1290.7241332000121,None,"['t', 'h', 'i', 'n', 'k']",1,"[0.6882032998837531, 0.8162257999647409, 1.0242568999528885, 1.29621099983342, 1.4803362998645753]",1290.7241332000121,None,1290.724017619947,None,s282_022092024,001,2024-02-29_11h26.36.354,test_typingtask_norepeats,2020.2.10,60.005424559627144,
pykka,pykka,,,,,,,,,0,68,68,68,,,,,,,,,,,,,,,1296.2248780999798,None,"['p', 'y', 'k', 'k', 'a']",1,"[0.8675158000551164, 1.2274755998514593, 1.7315103998407722, 1.9074647000525147, 2.091489299898967]",1296.2248780999798,None,1296.2240731200204,None,s282_022092024,001,2024-02-29_11h26.36.354,test_typingtask_norepeats,2020.2.10,60.005424559627144,
think,think,,,,,,,,,0,69,69,69,,,,,,,,,,,,,,,1301.724208700005,None,"['t', 'h', 'i', 'n', 'k']",1,"[0.960149799939245, 1.1202835999429226, 1.312478099949658, 1.5762531999498606, 1.7602641000412405]",1301.724208700005,None,1301.7240614200477,None,s282_022092024,001,2024-02-29_11h26.36.354,test_typingtask_norepeats,2020.2.10,60.005424559627144,
cheer,cheer,,,,,,,,,0,70,70,70,,,,,,,,,,,,,,,1307.2242362999823,None,"['c', 'h', 'e', 'e', 'r']",1,"[0.7081263998989016, 0.9083163999021053, 1.0521034998819232, 1.2440919999498874, 1.460083399899304]",1307.2242362999823,None,1307.2241249199492,None,s282_022092024,001,2024-02-29_11h26.36.354,test_typingtask_norepeats,2020.2.10,60.005424559627144,
tithe,tithe,,,,,,,,,0,71,71,71,,,,,,,,,,,,,,,1312.724278199952,None,"['t', 'i', 't', 'h', 'e']",1,"[0.7600698000751436, 0.9201306998729706, 1.0240974999032915, 1.2240488999523222, 1.344087499892339]",1312.724278199952,None,1312.7241533199326,None,s282_022092024,001,2024-02-29_11h26.36.354,test_typingtask_norepeats,2020.2.10,60.005424559627144,
druze,druze,,,,,,,,,0,72,72,72,,,,,,,,,,,,,,,1318.2243053999264,None,"['d', 'r', 'u', 'z', 'e']",1,"[0.77209009998478, 1.0360100998077542, 1.2041205998975784, 1.428146000020206, 1.724045499926433]",1318.2243053999264,None,1318.2242770200596,None,s282_022092024,001,2024-02-29_11h26.36.354,test_typingtask_norepeats,2020.2.10,60.005424559627144,
pykka,pykka,,,,,,,,,0,73,73,73,,,,,,,,,,,,,,,1323.7243337999098,None,"['p', 'y', 'k', 'k', 'a']",1,"[0.9360094000585377, 1.2960036001168191, 1.7840339001268148, 1.944059700006619, 2.024106099968776]",1323.7243337999098,None,1323.7242075198797,None,s282_022092024,001,2024-02-29_11h26.36.354,test_typingtask_norepeats,2020.2.10,60.005424559627144,
puppy,puppy,,,,,,,,,0,74,74,74,,,,,,,,,,,,,,,1329.2243711000774,None,"['p', 'u', 'p', 'p', 'y']",1,"[0.8599604000337422, 1.1719703001435846, 1.5159434000961483, 1.6843284000642598, 1.8120614001527429]",1329.2243711000774,None,1329.2242177199573,None,s282_022092024,001,2024-02-29_11h26.36.354,test_typingtask_norepeats,2020.2.10,60.005424559627144,
buddy,buddy,,,,,,,,,0,75,75,75,,,,,,,,,,,,,,,1334.7244136999361,None,"['b', 'u', 'd', 'd', 'y']",1,"[0.7439172000158578, 1.0559109000023454, 1.2480256999842823, 1.4479028000496328, 1.599893300095573]",1334.7244136999361,None,1334.724319520034,None,s282_022092024,001,2024-02-29_11h26.36.354,test_typingtask_norepeats,2020.2.10,60.005424559627144,
druze,druze,,,,,,,,,0,76,76,76,,,,,,,,,,,,,,,1340.2244361001067,None,"['d', 'r', 'u', 'z', 'e']",1,"[0.8198921999428421, 1.099885799922049, 1.2278644999023527, 1.3718812000006437, 1.6438750999514014]",1340.2244361001067,None,1340.2243325199001,None,s282_022092024,001,2024-02-29_11h26.36.354,test_typingtask_norepeats,2020.2.10,60.005424559627144,
lucky,lucky,,,,,,,,,0,77,77,77,,,,,,,,,,,,,,,1345.7244702999014,None,"['l', 'u', 'c', 'k', 'y']",1,"[1.1758549998048693, 1.512025199830532, 1.680100099882111, 1.847960899816826, 2.087957799900323]",1345.7244702999014,None,1345.7243170198985,None,s282_022092024,001,2024-02-29_11h26.36.354,test_typingtask_norepeats,2020.2.10,60.005424559627144,
would,would,,,,,,,,,0,78,78,78,,,,,,,,,,,,,,,1351.2245034999214,None,"['w', 'o', 'u', 'l', 'd']",1,"[0.6518093999475241, 0.731872099917382, 0.9399193997960538, 1.2998412000015378, 1.4198101998772472]",1351.2245034999214,None,1351.2243253200782,None,s282_022092024,001,2024-02-29_11h26.36.354,test_typingtask_norepeats,2020.2.10,60.005424559627144,
heond,heond,,,,,,,,,0,79,79,79,,,,,,,,,,,,,,,1356.7245030999184,None,"['h', 'e', 'o', 'n', 'd']",1,"[0.7998242001049221, 0.9118182000238448, 1.0000036999117583, 1.2878841001074761, 1.4398213000968099]",1356.7245030999184,None,1356.724403119972,None,s282_022092024,001,2024-02-29_11h26.36.354,test_typingtask_norepeats,2020.2.10,60.005424559627144,
vanru,vanru,,,,,,,,,0,80,80,80,,,,,,,,,,,,,,,1362.224581599934,None,"['v', 'a', 'n', 'r', 'u']",1,"[1.0517494000960141, 1.3397403999697417, 1.5798897000495344, 1.7557391000445932, 1.987890899879858]",1362.224581599934,None,1362.2244530200028,None,s282_022092024,001,2024-02-29_11h26.36.354,test_typingtask_norepeats,2020.2.10,60.005424559627144,
there,there,,,,,,,,,0,81,81,81,,,,,,,,,,,,,,,1367.7246326000895,None,"['t', 'h', 'e', 'r', 'e']",1,"[0.8557281999383122, 1.0317605999298394, 1.1758200998883694, 1.3116385999601334, 1.479704099940136]",1367.7246326000895,None,1367.7244969199878,None,s282_022092024,001,2024-02-29_11h26.36.354,test_typingtask_norepeats,2020.2.10,60.005424559627144,
vanru,vanru,,,,,,,,,0,82,82,82,,,,,,,,,,,,,,,1373.2246820998844,None,"['v', 'a', 'n', 'r', 'u']",1,"[1.2276052001398057, 1.49974500015378, 1.6835485000628978, 1.9635793999768794, 2.1237016001250595]",1373.2246820998844,None,1373.224529019883,None,s282_022092024,001,2024-02-29_11h26.36.354,test_typingtask_norepeats,2020.2.10,60.005424559627144,
pykka,pykka,,,,,,,,,0,83,83,83,,,,,,,,,,,,,,,1378.7246707000304,None,"['p', 'y', 'k', 'k', 'a']",1,"[0.9676322999875993, 1.3756034998223186, 2.1036673998460174, 2.2797403999138623, 2.391606899909675]",1378.7246707000304,None,1378.72456492004,None,s282_022092024,001,2024-02-29_11h26.36.354,test_typingtask_norepeats,2020.2.10,60.005424559627144,
faqir,faqir,,,,,,,,,0,84,84,84,,,,,,,,,,,,,,,1384.224681599997,None,"['f', 'a', 'q', 'i', 'r']",1,"[1.0756596000865102, 1.339581800159067, 1.6197033000644296, 2.1316037999931723, 2.30769359995611]",1384.224681599997,None,1384.2245666199365,1384.3246995999943,s282_022092024,001,2024-02-29_11h26.36.354,test_typingtask_norepeats,2020.2.10,60.005424559627144,
druze,druze,,,,,,,,,0,85,85,85,,,,,,,,,,,,,,,1389.7247015999164,None,"['d', 'r', 'u', 'z', 'e']",1,"[0.7755758001003414, 1.0555517999455333, 1.2875640001147985, 1.4396182000637054, 1.7115712000522763]",1389.7247015999164,None,1389.7246056200006,1389.8247301001102,s282_022092024,001,2024-02-29_11h26.36.354,test_typingtask_norepeats,2020.2.10,60.005424559627144,
would,would,,,,,,,,,0,86,86,86,,,,,,,,,,,,,,,1395.224719800055,None,"['w', 'o', 'u', 'l', 'd']",1,"[0.675561900017783, 0.7797189999837428, 1.0835994000080973, 1.531550700077787, 1.6756666000001132]",1395.224719800055,None,1395.2246243200266,1395.324769699946,s282_022092024,001,2024-02-29_11h26.36.354,test_typingtask_norepeats,2020.2.10,60.005424559627144,
puppy,puppy,,,,,,,,,0,87,87,87,,,,,,,,,,,,,,,1400.7247927999124,None,"['p', 'u', 'p', 'p', 'y']",1,"[0.7354844000656158, 1.151672299951315, 1.5114959999918938, 1.6795773000922054, 1.7914823999162763]",1400.7247927999124,None,1400.724661120074,1400.824749799911,s282_022092024,001,2024-02-29_11h26.36.354,test_typingtask_norepeats,2020.2.10,60.005424559627144,
cooed,cooed,,,,,,,,,0,88,88,88,,,,,,,,,,,,,,,1406.2247889998835,None,"['c', 'o', 'o', 'e', 'd']",1,"[0.8194770000409335, 1.0114856001455337, 1.179459400009364, 1.3234499001409858, 1.6035825000144541]",1406.2247889998835,None,1406.2247448198964,1406.3247869999614,s282_022092024,001,2024-02-29_11h26.36.354,test_typingtask_norepeats,2020.2.10,60.005424559627144,
vodka,vodka,,,,,,,,,0,89,89,89,,,,,,,,,,,,,,,1411.7248378000222,None,"['v', 'o', 'd', 'k', 'a']",1,"[0.8794048000127077, 1.1035290998406708, 1.2314229998737574, 1.4075384999159724, 1.543404099997133]",1411.7248378000222,None,1411.7246858199128,1411.824887600029,s282_022092024,001,2024-02-29_11h26.36.354,test_typingtask_norepeats,2020.2.10,60.005424559627144,
haole,haole,,,,,,,,,0,90,90,90,,,,,,,,,,,,,,,1417.2248686999083,None,"['h', 'a', 'o', 'l', 'e']",1,"[1.2593938999343663, 1.6513981998432428, 1.9394151999149472, 2.2273780999239534, 2.3153799998108298]",1417.2248686999083,None,1417.2247231200804,1417.3248862000182,s282_022092024,001,2024-02-29_11h26.36.354,test_typingtask_norepeats,2020.2.10,60.005424559627144,
edthe,edthe,,,,,,,,,0,91,91,91,,,,,,,,,,,,,,,1422.724902200047,None,"['e', 'd', 't', 'h']",0,"[0.6873624001163989, 0.97528350003995, 1.2793300000485033, 1.4153247000649571]",1422.724902200047,None,1422.7248277199456,1422.8248850998934,s282_022092024,001,2024-02-29_11h26.36.354,test_typingtask_norepeats,2020.2.10,60.005424559627144,
haole,haole,,,,,,,,,0,92,92,92,,,,,,,,,,,,,,,1428.224952199962,None,"['h', 'a', 'o', 'l', 'e']",1,"[0.9078555000014603, 1.131279000081122, 1.5553146000020206, 1.8192989001981914, 1.931449200026691]",1428.224952199962,None,1428.224826319935,None,s282_022092024,001,2024-02-29_11h26.36.354,test_typingtask_norepeats,2020.2.10,60.005424559627144,
theme,theme,,,,,,,,,0,93,93,93,,,,,,,,,,,,,,,1433.724992299918,None,"['t', 'h', 'e', 'm', 'e']",1,"[0.9514179998077452, 1.1353441998362541, 1.3432237999513745, 1.5593889998272061, 1.6632377998903394]",1433.724992299918,None,1433.7248624200934,None,s282_022092024,001,2024-02-29_11h26.36.354,test_typingtask_norepeats,2020.2.10,60.005424559627144,
faqir,faqir,,,,,,,,,0,94,94,94,,,,,,,,,,,,,,,1439.2250214000233,None,"['f', 'a', 'q', 'i', 'r']",1,"[0.9232723000459373, 1.2752255001105368, 1.6913676999974996, 1.9713727999478579, 2.243210199987516]",1439.2250214000233,None,1439.224878720101,None,s282_022092024,001,2024-02-29_11h26.36.354,test_typingtask_norepeats,2020.2.10,60.005424559627144,
haole,haole,,,,,,,,,0,95,95,95,,,,,,,,,,,,,,,1444.7250653998926,None,"['h', 'a', 'o', 'l', 'e']",1,"[1.2471644999459386, 1.4311334998346865, 1.7113067999016494, 1.999137399950996, 2.1351246999111027]",1444.7250653998926,None,1444.7249116200023,None,s282_022092024,001,2024-02-29_11h26.36.354,test_typingtask_norepeats,2020.2.10,60.005424559627144,
tithe,tithe,,,,,,,,,0,96,96,96,,,,,,,,,,,,,,,1450.2250882999506,None,"['i', 'h', 'e']",0,"[0.9712947001680732, 1.675101000117138, 1.8032240001484752]",1450.2250882999506,None,1450.2249494200573,None,s282_022092024,001,2024-02-29_11h26.36.354,test_typingtask_norepeats,2020.2.10,60.005424559627144,
would,would,,,,,,,,,0,97,97,97,,,,,,,,,,,,,,,1455.7251210000832,None,"['w', 'o', 'u', 'l', 'd']",1,"[0.6791026999708265, 0.7831015998963267, 1.0390673999208957, 1.3510964000597596, 1.4951116999145597]",1455.7251210000832,None,1455.7249820200727,None,s282_022092024,001,2024-02-29_11h26.36.354,test_typingtask_norepeats,2020.2.10,60.005424559627144,
heond,heond,,,,,,,,,0,98,98,98,,,,,,,,,,,,,,,1461.2251607999206,None,"['h', 'e', 'o', 'n', 'd']",1,"[1.6192340000998229, 1.7310663999523968, 1.8270437000319362, 2.07503359997645, 2.2030390000436455]",1461.2251607999206,None,1461.2249898198993,None,s282_022092024,001,2024-02-29_11h26.36.354,test_typingtask_norepeats,2020.2.10,60.005424559627144,
kremp,kremp,,,,,,,,,0,99,99,99,,,,,,,,,,,,,,,1466.7251987000927,None,"['k', 'r', 'e', 'm', 'p']",1,"[0.8470175999682397, 1.0549948001280427, 1.1910090001765639, 1.3510190001688898, 1.7189957001246512]",1466.7251987000927,None,1466.7250579200686,None,s282_022092024,001,2024-02-29_11h26.36.354,test_typingtask_norepeats,2020.2.10,60.005424559627144,
heond,heond,,,,,,,,,0,100,100,100,,,,,,,,,,,,,,,1472.225201100111,None,"['h', 'e', 'o', 'n', 'd']",1,"[0.9629663999658078, 1.1230027000419796, 1.2590322999749333, 1.5630592999514192, 1.6829287000000477]",1472.225201100111,None,1472.2250598199666,None,s282_022092024,001,2024-02-29_11h26.36.354,test_typingtask_norepeats,2020.2.10,60.005424559627144,
vodka,vodka,,,,,,,,,0,101,101,101,,,,,,,,,,,,,,,1477.7252527000383,None,"['v', 'o', 'd', 'k', 'a']",1,"[0.9429470999166369, 1.1909211000893265, 1.342917500063777, 1.5349355000071228, 1.6710765999741852]",1477.7252527000383,None,1477.7250937198755,None,s282_022092024,001,2024-02-29_11h26.36.354,test_typingtask_norepeats,2020.2.10,60.005424559627144,
belly,belly,,,,,,,,,0,102,102,102,,,,,,,,,,,,,,,1483.2252791998908,None,"['b', 'e', 'l', 'l', 'y']",1,"[0.8831966000143439, 1.0588984999340028, 1.3709716000594199, 1.5229050000198185, 1.6908971001394093]",1483.2252791998908,None,1483.2251549198759,None,s282_022092024,001,2024-02-29_11h26.36.354,test_typingtask_norepeats,2020.2.10,60.005424559627144,
therm,therm,,,,,,,,,0,103,103,103,,,,,,,,,,,,,,,1488.7253195000812,None,"['t', 'h', 'e', 'r', 'm']",1,"[1.3428664000239223, 1.6068650998640805, 1.8148503999691457, 2.078844100004062, 2.206838799873367]",1488.7253195000812,None,1488.7251858199947,None,s282_022092024,001,2024-02-29_11h26.36.354,test_typingtask_norepeats,2020.2.10,60.005424559627144,
would,would,,,,,,,,,0,104,104,104,,,,,,,,,,,,,,,1494.22534990008,None,"['w', 'o', 'u', 'l', 'd']",1,"[0.6348533001728356, 0.8428299000952393, 1.0510400000493973, 1.4428167000878602, 1.5868367000948638]",1494.22534990008,None,1494.2252301199828,None,s282_022092024,001,2024-02-29_11h26.36.354,test_typingtask_norepeats,2020.2.10,60.005424559627144,
druze,druze,,,,,,,,,0,105,105,105,,,,,,,,,,,,,,,1499.7253852998838,None,"['d', 'r', 'u', 'z', 'e']",1,"[0.8467933000065386, 1.230811099987477, 1.4788087999913841, 1.7427705000154674, 2.006818800000474]",1499.7253852998838,None,1499.7252860200592,None,s282_022092024,001,2024-02-29_11h26.36.354,test_typingtask_norepeats,2020.2.10,60.005424559627144,
vanru,vanru,,,,,,,,,0,106,106,106,,,,,,,,,,,,,,,1505.2254174000118,None,"['v', 'a', 'n', 'r', 'u']",1,"[0.8827752999495715, 1.1627462999895215, 1.3709100999403745, 1.5627847998403013, 1.7388605000451207]",1505.2254174000118,None,1505.2252927199938,None,s282_022092024,001,2024-02-29_11h26.36.354,test_typingtask_norepeats,2020.2.10,60.005424559627144,
lucky,lucky,,,,,,,,,0,107,107,107,,,,,,,,,,,,,,,1510.7254079000559,None,"['l', 'u', 'c', 'k', 'y']",1,"[0.8227644001599401, 1.3027485001366585, 1.6867461001966149, 1.8467403000686318, 2.150797100039199]",1510.7254079000559,None,1510.7253198200838,None,s282_022092024,001,2024-02-29_11h26.36.354,test_typingtask_norepeats,2020.2.10,60.005424559627144,
zibja,zibja,,,,,,,,,0,108,108,108,,,,,,,,,,,,,,,1516.2254745000973,None,"['z', 'i', 'b', 'j', 'a']",1,"[1.1466890000738204, 1.4026593000162393, 1.8746629999950528, 2.186803000047803, 2.362812800100073]",1516.2254745000973,None,1516.2253616199364,None,s282_022092024,001,2024-02-29_11h26.36.354,test_typingtask_norepeats,2020.2.10,60.005424559627144,
cooed,cooed,,,,,,,,,0,109,109,109,,,,,,,,,,,,,,,1521.7255164999515,None,"['c', 'd', 'c', 'o', 'o', 'e', 'd']",0,"[0.8386473001446575, 0.8466084999963641, 1.4626434000674635, 1.6066033001989126, 1.7906483002007008, 1.894768700003624, 2.118619100190699]",1521.7255164999515,None,1521.7253942199518,None,s282_022092024,001,2024-02-29_11h26.36.354,test_typingtask_norepeats,2020.2.10,60.005424559627144,
tithe,tithe,,,,,,,,,0,110,110,110,,,,,,,,,,,,,,,1527.2255027000792,None,"['t', 'i', 't', 'h', 'e']",1,"[0.7786509001161903, 0.9388812000397593, 1.0426380999851972, 1.2666327999904752, 1.3626445000991225]",1527.2255027000792,None,1527.2254161200021,None,s282_022092024,001,2024-02-29_11h26.36.354,test_typingtask_norepeats,2020.2.10,60.005424559627144,
zibja,zibja,,,,,,,,,0,111,111,111,,,,,,,,,,,,,,,1532.7255651000887,None,"['z', 'i', 'b', 'j', 'a']",1,"[1.1425896000582725, 1.3585922000929713, 1.6785711999982595, 1.9105696000624448, 2.07858550013043]",1532.7255651000887,None,1532.725453120051,None,s282_022092024,001,2024-02-29_11h26.36.354,test_typingtask_norepeats,2020.2.10,60.005424559627144,
theme,theme,,,,,,,,,0,112,112,112,,,,,,,,,,,,,,,1538.2255953999702,None,"['t', 'h', 'e', 'm', 'e']",1,"[0.8185629001818597, 1.0586942001245916, 1.2425400000065565, 1.5066514001227915, 1.6345351000782102]",1538.2255953999702,None,1538.2255041199737,None,s282_022092024,001,2024-02-29_11h26.36.354,test_typingtask_norepeats,2020.2.10,60.005424559627144,
buddy,buddy,,,,,,,,,0,113,113,113,,,,,,,,,,,,,,,1543.725589599926,None,"['b', 'u', 'd', 'd', 'y']",1,"[1.0145574000198394, 1.6865085999015719, 1.8946634999010712, 2.0866509000770748, 2.3025382000487298]",1543.725589599926,None,1543.7255095200148,None,s282_022092024,001,2024-02-29_11h26.36.354,test_typingtask_norepeats,2020.2.10,60.005424559627144,
cheer,cheer,,,,,,,,,0,114,114,114,,,,,,,,,,,,,,,1549.2256940000225,None,"['c', 'h', 'e', 'e', 'r']",1,"[0.8184637001249939, 1.0184086000081152, 1.2024976001121104, 1.3784173999447376, 1.5385320000350475]",1549.2256940000225,None,1549.2255631199573,None,s282_022092024,001,2024-02-29_11h26.36.354,test_typingtask_norepeats,2020.2.10,60.005424559627144,
theme,theme,,,,,,,,,0,115,115,115,,,,,,,,,,,,,,,1554.7257177000865,None,"['t', 'h', 'e', 'm', 'e']",1,"[0.7105954000726342, 0.9185231998562813, 1.0863989999052137, 1.2866129998583347, 1.3743459999095649]",1554.7257177000865,None,1554.7255872200244,None,s282_022092024,001,2024-02-29_11h26.36.354,test_typingtask_norepeats,2020.2.10,60.005424559627144,
faqir,faqir,,,,,,,,,0,116,116,116,,,,,,,,,,,,,,,1560.2257389998995,None,"['f', 'a', 'q', 'i', 'e']",0,"[1.0823669999372214, 1.4263617999386042, 1.754373800009489, 2.1945575000718236, 2.546357300132513]",1560.2257389998995,None,1560.2256039200352,None,s282_022092024,001,2024-02-29_11h26.36.354,test_typingtask_norepeats,2020.2.10,60.005424559627144,
therm,therm,,,,,,,,,0,117,117,117,,,,,,,,,,,,,,,1565.7257701000199,None,"['t', 'h', 'e', 'r', 'm']",1,"[0.9104989999905229, 1.198333399835974, 1.3904312998056412, 1.6223148999270052, 1.750442499993369]",1565.7257701000199,None,1565.7256560200826,None,s282_022092024,001,2024-02-29_11h26.36.354,test_typingtask_norepeats,2020.2.10,60.005424559627144,
haole,haole,,,,,,,,,0,118,118,118,,,,,,,,,,,,,,,1571.2257675,None,"['h', 'a', 'o', 'l', 'e']",1,"[1.394352699862793, 1.610579599859193, 2.01843969989568, 2.30634479993023, 2.434396700002253]",1571.2257675,None,1571.2256900198759,None,s282_022092024,001,2024-02-29_11h26.36.354,test_typingtask_norepeats,2020.2.10,60.005424559627144,
cheer,cheer,,,,,,,,,0,119,119,119,,,,,,,,,,,,,,,1576.7258752998896,None,"['c', 'h', 'e', 'e', 'r']",1,"[0.8704818999394774, 1.1583210998214781, 1.422309799818322, 1.614381899824366, 1.8462566998787224]",1576.7258752998896,None,1576.7257064200007,None,s282_022092024,001,2024-02-29_11h26.36.354,test_typingtask_norepeats,2020.2.10,60.005424559627144,
