string,corrAns,practice_trials.thisRepN,practice_trials.thisTrialN,practice_trials.thisN,practice_trials.thisIndex,trials_1.thisRepN,trials_1.thisTrialN,trials_1.thisN,trials_1.thisIndex,trials_2.thisRepN,trials_2.thisTrialN,trials_2.thisN,trials_2.thisIndex,key_resp_0.keys,key_resp_0.corr,key_resp_0.rt,text_1.started,text_1.stopped,key_resp_1.keys,key_resp_1.corr,key_resp_1.rt,key_resp_1.started,key_resp_1.stopped,sound_1A_1.started,sound_1A_1.stopped,break_time.started,break_time.stopped,text_2.started,text_2.stopped,key_resp_2.keys,key_resp_2.corr,key_resp_2.rt,key_resp_2.started,key_resp_2.stopped,sound_1A_2.started,sound_1A_2.stopped,participant,session,date,expName,psychopyVersion,frameRate,
fresh,fresh,0,0,0,0,,,,,,,,,"['f', 'r', 'e', 's', 'h', 'h']",0,"[1.0894776000641286, 1.2815474001690745, 1.457509299973026, 1.6336662999819964, 1.713478400139138, 2.5455084999557585]",,,,,,,,,,,,,,,,,,,,,s283_02292024,001,2024-02-29_16h11.58.065,test_typingtask_norepeats,2020.2.10,59.97591368515809,
dream,dream,0,1,1,1,,,,,,,,,"['d', 'r', 'e', 'a', 'm']",1,"[1.1496975000482053, 1.3096279001329094, 1.485562999965623, 1.7014842999633402, 1.7974434001371264]",,,,,,,,,,,,,,,,,,,,,s283_02292024,001,2024-02-29_16h11.58.065,test_typingtask_norepeats,2020.2.10,59.97591368515809,
slime,slime,0,2,2,2,,,,,,,,,"['s', 'l', 'i', 'm', 'e']",1,"[1.0496217000763863, 1.1295650999527425, 1.2734445999376476, 1.4017010000534356, 1.4975837001111358]",,,,,,,,,,,,,,,,,,,,,s283_02292024,001,2024-02-29_16h11.58.065,test_typingtask_norepeats,2020.2.10,59.97591368515809,
pykka,pykka,,,,,0,0,0,0,,,,,,,,2349.6139003999997,None,"['p', 'y', 'k', 'a', 'k', 'a']",0,"[1.0620656001847237, 1.32602130016312, 1.5340951001271605, 1.694192600203678, 1.9261096001137048, 2.2220798002090305]",2349.6139003999997,None,2349.6125106399877,2349.7125071000773,,,,,,,,,,,,s283_02292024,001,2024-02-29_16h11.58.065,test_typingtask_norepeats,2020.2.10,59.97591368515809,
druze,druze,,,,,0,1,1,1,,,,,,,,2355.12919649994,None,"['d', 'r', 'u', 'z', 'e']",1,"[0.9389176999684423, 1.098893699934706, 1.2508491999469697, 1.4108210999984294, 1.6347489999607205]",2355.12919649994,None,2355.1291958401443,2355.2291896999814,,,,,,,,,,,,s283_02292024,001,2024-02-29_16h11.58.065,test_typingtask_norepeats,2020.2.10,59.97591368515809,
zibja,zibja,,,,,0,2,2,2,,,,,,,,2360.6292055000085,None,"['z', 'i', 'b', 'j', 'a']",1,"[1.0627596001140773, 1.374832100002095, 1.670785800088197, 1.8708699999842793, 1.998880899976939]",2360.6292055000085,None,2360.629224640131,2360.7292088000104,,,,,,,,,,,,s283_02292024,001,2024-02-29_16h11.58.065,test_typingtask_norepeats,2020.2.10,59.97591368515809,
about,about,,,,,0,3,3,3,,,,,,,,2366.1292205001228,None,"['a', 'b', 'o', 'u', 't']",1,"[0.7547889999113977, 0.8908706998918205, 1.058746200054884, 1.2427755000535399, 1.3387265000492334]",2366.1292205001228,None,2366.129217440076,None,,,,,,,,,,,,s283_02292024,001,2024-02-29_16h11.58.065,test_typingtask_norepeats,2020.2.10,59.97591368515809,
lucky,lucky,,,,,0,4,4,4,,,,,,,,2371.6292318000924,None,"['l', 'u', 'c', 'k', 'y', 't']",0,"[0.9348665000870824, 1.1508349000941962, 1.2788470000959933, 1.3670147000811994, 1.5827762999106199, 1.590834500035271]",2371.6292318000924,None,2371.6291943400165,None,,,,,,,,,,,,s283_02292024,001,2024-02-29_16h11.58.065,test_typingtask_norepeats,2020.2.10,59.97591368515809,
heond,heond,,,,,0,5,5,5,,,,,,,,2377.129550999962,None,"['h', 'e', 'o', 'n', 'd']",1,"[0.9545326998922974, 1.1224693998228759, 1.2824248999822885, 1.666473399847746, 1.826418599812314]",2377.129550999962,None,2377.12923804,None,,,,,,,,,,,,s283_02292024,001,2024-02-29_16h11.58.065,test_typingtask_norepeats,2020.2.10,59.97591368515809,
vanru,vanru,,,,,0,6,6,6,,,,,,,,2382.629267900018,None,"['v', 'a', 'n', 'r', 'u']",1,"[0.9587350999936461, 1.1187613001093268, 1.230901600094512, 1.4707846001256257, 1.5745963000226766]",2382.629267900018,None,2382.629219440091,2382.7292649000883,,,,,,,,,,,,s283_02292024,001,2024-02-29_16h11.58.065,test_typingtask_norepeats,2020.2.10,59.97591368515809,
faqir,faqir,,,,,0,7,7,7,,,,,,,,2388.129312600009,None,"['f', 'a', 'q', 'i', 'r']",1,"[0.9146896000020206, 1.2826113000046462, 1.5306502999737859, 2.0506293000653386, 2.266685100039467]",2388.129312600009,None,2388.1292481399605,2388.2292760999408,,,,,,,,,,,,s283_02292024,001,2024-02-29_16h11.58.065,test_typingtask_norepeats,2020.2.10,59.97591368515809,
cooed,cooed,,,,,0,8,8,8,,,,,,,,2393.629255600041,None,"['c', 'o', 'o', 'e', 'd']",1,"[0.8148013998288661, 1.0546323999296874, 1.1745806999970227, 1.2787972998339683, 1.4547478999011219]",2393.629255600041,None,2393.6292885400353,None,,,,,,,,,,,,s283_02292024,001,2024-02-29_16h11.58.065,test_typingtask_norepeats,2020.2.10,59.97591368515809,
cheer,cheer,,,,,0,9,9,9,,,,,,,,2399.1293143001385,None,"['c', 'h', 'e', 'e', 'r']",1,"[0.730621499940753, 0.8745305000338703, 1.0745164998807013, 1.202586199855432, 1.354609000030905]",2399.1293143001385,None,2399.129272440029,None,,,,,,,,,,,,s283_02292024,001,2024-02-29_16h11.58.065,test_typingtask_norepeats,2020.2.10,59.97591368515809,
would,would,,,,,0,10,10,10,,,,,,,,2404.6293280001264,None,"['w', 'o', 'u', 'l', 'd']",1,"[0.7747010001912713, 0.9185656001791358, 1.0946097001433372, 1.2708054000977427, 1.3426509001292288]",2404.6293280001264,None,2404.6293501400387,None,,,,,,,,,,,,s283_02292024,001,2024-02-29_16h11.58.065,test_typingtask_norepeats,2020.2.10,59.97591368515809,
buddy,buddy,,,,,0,11,11,11,,,,,,,,2410.129354099976,None,"['b', 'u', 'd', 'd', 'y']",1,"[0.7146787999663502, 0.8505174000747502, 0.9944951999932528, 1.1305909000802785, 1.226564799901098]",2410.129354099976,None,2410.129353340063,None,,,,,,,,,,,,s283_02292024,001,2024-02-29_16h11.58.065,test_typingtask_norepeats,2020.2.10,59.97591368515809,
edthe,edthe,,,,,0,12,12,12,,,,,,,,2415.6295436001383,None,"['e', 'd', 't', 'h', 'e']",1,"[1.0063384999521077, 1.1743286000564694, 1.3663445001002401, 1.4304725001566112, 1.5743323001079261]",2415.6295436001383,None,2415.629379640147,None,,,,,,,,,,,,s283_02292024,001,2024-02-29_16h11.58.065,test_typingtask_norepeats,2020.2.10,59.97591368515809,
theme,theme,,,,,0,13,13,13,,,,,,,,2421.129373300122,None,"['t', 'h', 'y', 'e', 'e', 'm', 'e']",0,"[0.7385358000174165, 0.8587014998774976, 0.8666125000454485, 0.962763600051403, 1.1865252000279725, 1.6825699999462813, 1.826656699879095]",2421.129373300122,None,2421.129366240045,2421.2293672000524,,,,,,,,,,,,s283_02292024,001,2024-02-29_16h11.58.065,test_typingtask_norepeats,2020.2.10,59.97591368515809,
kremp,kremp,,,,,0,14,14,14,,,,,,,,2426.629384699976,None,"['k', 'r', 'e', 'm', 'o', 'p']",0,"[0.9265284000430256, 1.070518200052902, 1.2466291000600904, 1.3510896998923272, 1.4706214999314398, 1.478629499906674]",2426.629384699976,None,2426.629385740077,None,,,,,,,,,,,,s283_02292024,001,2024-02-29_16h11.58.065,test_typingtask_norepeats,2020.2.10,59.97591368515809,
zibja,zibja,,,,,0,15,15,15,,,,,,,,2432.129382299958,None,"['z', 'i', 'b', 'j', 'a']",1,"[1.0265225998591632, 1.218538299901411, 1.4426113998051733, 1.6185813997872174, 1.7305199999827892]",2432.129382299958,None,2432.1294193401,None,,,,,,,,,,,,s283_02292024,001,2024-02-29_16h11.58.065,test_typingtask_norepeats,2020.2.10,59.97591368515809,
pykka,pykka,,,,,0,16,16,16,,,,,,,,2437.629445800092,None,"['p', 'y', 'k', 'k', 'a']",1,"[0.8946150001138449, 1.1504683000966907, 1.3824420000892133, 1.5185770001262426, 1.6464984000194818]",2437.629445800092,None,2437.6294207401106,None,,,,,,,,,,,,s283_02292024,001,2024-02-29_16h11.58.065,test_typingtask_norepeats,2020.2.10,59.97591368515809,
lucky,lucky,,,,,0,17,17,17,,,,,,,,2443.1294352000114,None,"['l', 'u', 'c', 'k', 'y']",1,"[0.7784684000071138, 1.0025385001208633, 1.2344027000945061, 1.3304993000347167, 1.5626123000402004]",2443.1294352000114,None,2443.129444940062,None,,,,,,,,,,,,s283_02292024,001,2024-02-29_16h11.58.065,test_typingtask_norepeats,2020.2.10,59.97591368515809,
edthe,edthe,,,,,0,18,18,18,,,,,,,,2448.6294490001164,None,"['e', 'd', 't', 'h', 'e']",1,"[0.8304351000115275, 0.9984730000142008, 1.2067267000675201, 1.286548500182107, 1.4304844001308084]",2448.6294490001164,None,2448.6294534400104,None,,,,,,,,,,,,s283_02292024,001,2024-02-29_16h11.58.065,test_typingtask_norepeats,2020.2.10,59.97591368515809,
about,about,,,,,0,19,19,19,,,,,,,,2454.1294581000693,None,"['a', 'b', 'o', 'u', 't']",1,"[0.6584373998921365, 0.810536699835211, 1.010421299841255, 1.2184326997958124, 1.3304192000068724]",2454.1294581000693,None,2454.129482740117,2454.229482300114,,,,,,,,,,,,s283_02292024,001,2024-02-29_16h11.58.065,test_typingtask_norepeats,2020.2.10,59.97591368515809,
belly,belly,,,,,0,20,20,20,,,,,,,,2459.629534299951,None,"['b', 'e', 'l', 'l', 'y']",1,"[0.7663243999704719, 0.926479100016877, 1.118312100181356, 1.2303798000793904, 1.3982965999748558]",2459.629534299951,None,2459.629494240088,2459.729481599992,,,,,,,,,,,,s283_02292024,001,2024-02-29_16h11.58.065,test_typingtask_norepeats,2020.2.10,59.97591368515809,
about,about,,,,,0,21,21,21,,,,,,,,2465.1294796001166,None,"['a', 'b', 'o', 'u', 't']",1,"[0.6583926000166684, 0.7863664000760764, 0.954336800146848, 1.1303477000910789, 1.2263756999745965]",2465.1294796001166,None,2465.129508639965,None,,,,,,,,,,,,s283_02292024,001,2024-02-29_16h11.58.065,test_typingtask_norepeats,2020.2.10,59.97591368515809,
theme,theme,,,,,0,22,22,22,,,,,,,,2470.6294814001303,None,"['t', 'h', 'e', 'e']",0,"[0.6303819001186639, 0.7186227000784129, 0.8863439001142979, 1.0784468001220375]",2470.6294814001303,None,2470.6295259399803,None,,,,,,,,,,,,s283_02292024,001,2024-02-29_16h11.58.065,test_typingtask_norepeats,2020.2.10,59.97591368515809,
vanru,vanru,,,,,0,23,23,23,,,,,,,,2476.129539299989,None,"['v', 'a', 'n', 'r', 'u']",1,"[0.8663953000213951, 0.9863513000309467, 1.090362000046298, 1.2503138000611216, 1.346249100053683]",2476.129539299989,None,2476.129541439982,None,,,,,,,,,,,,s283_02292024,001,2024-02-29_16h11.58.065,test_typingtask_norepeats,2020.2.10,59.97591368515809,
vodka,vodka,,,,,0,24,24,24,,,,,,,,2481.629565600073,None,"['v', 'o', 'd', 'k', 'a']",1,"[0.9502443999517709, 1.31841959990561, 1.502452400047332, 1.6463965999428183, 1.8062414000742137]",2481.629565600073,None,2481.629531940026,None,,,,,,,,,,,,s283_02292024,001,2024-02-29_16h11.58.065,test_typingtask_norepeats,2020.2.10,59.97591368515809,
champ,champ,,,,,0,25,25,25,,,,,,,,2487.129601099994,None,"['c', 'h', 'a', 'm', 'p']",1,"[0.6822508000768721, 0.7782264000270516, 0.9703788000624627, 1.1063461999874562, 1.562214900040999]",2487.129601099994,None,2487.1296110400463,2487.2296375001315,,,,,,,,,,,,s283_02292024,001,2024-02-29_16h11.58.065,test_typingtask_norepeats,2020.2.10,59.97591368515809,
lucky,lucky,,,,,0,26,26,26,,,,,,,,2492.629559899913,None,"['l', 'u', 'c', 'k', 'y']",1,"[0.7503206999972463, 0.9583266000263393, 1.0783104998990893, 1.1663649999536574, 1.3663585998583585]",2492.629559899913,None,2492.62959494004,None,,,,,,,,,,,,s283_02292024,001,2024-02-29_16h11.58.065,test_typingtask_norepeats,2020.2.10,59.97591368515809,
vodka,vodka,,,,,0,27,27,27,,,,,,,,2498.1296129999682,None,"['v', 'o', 'd', 'k', 'a']",1,"[0.9782267000991851, 1.1623525000177324, 1.3063336999621242, 1.6101371999830008, 1.7622475000098348]",2498.1296129999682,None,2498.1296432400586,None,,,,,,,,,,,,s283_02292024,001,2024-02-29_16h11.58.065,test_typingtask_norepeats,2020.2.10,59.97591368515809,
belly,belly,,,,,0,28,28,28,,,,,,,,2503.629619100131,None,"['b', 'e', 'l', 'l', 'y']",1,"[0.7982945998664945, 0.9422189998440444, 1.0383417999837548, 1.1661712999921292, 1.2701900999527425]",2503.629619100131,None,2503.629636140121,None,,,,,,,,,,,,s283_02292024,001,2024-02-29_16h11.58.065,test_typingtask_norepeats,2020.2.10,59.97591368515809,
heond,heond,,,,,0,29,29,29,,,,,,,,2509.1296463001054,None,"['h', 'e', 'o', 'n', 'd']",1,"[0.7942615998908877, 0.9382277000695467, 1.146245300071314, 1.3142927000299096, 1.4901556998956949]",2509.1296463001054,None,2509.1296503399963,None,,,,,,,,,,,,s283_02292024,001,2024-02-29_16h11.58.065,test_typingtask_norepeats,2020.2.10,59.97591368515809,
lucky,lucky,,,,,0,30,30,30,,,,,,,,2514.6296669000294,None,"['l', 'u', 'c', 'k', 'y']",1,"[0.8461749998386949, 1.0702145998366177, 1.19013849995099, 1.2861454000230879, 1.4623119998723269]",2514.6296669000294,None,2514.629635439999,None,,,,,,,,,,,,s283_02292024,001,2024-02-29_16h11.58.065,test_typingtask_norepeats,2020.2.10,59.97591368515809,
edthe,edthe,,,,,0,31,31,31,,,,,,,,2520.1296608999837,None,"['e', 'd', 't', 'h', 'e']",1,"[0.9221791001036763, 1.1382172000594437, 1.3862083000130951, 1.506238600006327, 1.6581433000974357]",2520.1296608999837,None,2520.129649840109,None,,,,,,,,,,,,s283_02292024,001,2024-02-29_16h11.58.065,test_typingtask_norepeats,2020.2.10,59.97591368515809,
heond,heond,,,,,0,32,32,32,,,,,,,,2525.629712099908,None,"['h', 'e', 'o', 'n', 'd']",1,"[1.038114400114864, 1.1503916999790817, 1.3982314001768827, 1.5422066999599338, 1.6540455999784172]",2525.629712099908,None,2525.629671139922,None,,,,,,,,,,,,s283_02292024,001,2024-02-29_16h11.58.065,test_typingtask_norepeats,2020.2.10,59.97591368515809,
therm,therm,,,,,0,33,33,33,,,,,,,,2531.1296987000387,None,"['t', 'h', 'e', 'r', 'm']",1,"[0.6581139001064003, 0.8102013000752777, 1.0581054000649601, 1.2581058000214398, 1.4022107999771833]",2531.1296987000387,None,2531.1297577401156,None,,,,,,,,,,,,s283_02292024,001,2024-02-29_16h11.58.065,test_typingtask_norepeats,2020.2.10,59.97591368515809,
would,would,,,,,0,34,34,34,,,,,,,,2536.6297112000175,None,"['w', 'o', 'u', 'l', 'd']",1,"[1.7503808001056314, 1.902222900185734, 2.150067600188777, 2.4060939999762923, 2.5901218000799417]",2536.6297112000175,None,2536.6297444401307,None,,,,,,,,,,,,s283_02292024,001,2024-02-29_16h11.58.065,test_typingtask_norepeats,2020.2.10,59.97591368515809,
heond,heond,,,,,0,35,35,35,,,,,,,,2542.1297731001396,None,"['h', 'e', 'o', 'n', 'd']",1,"[0.8020502000581473, 0.9220181999262422, 1.1861324000637978, 1.3541230999398977, 1.5061039000283927]",2542.1297731001396,None,2542.129776640143,None,,,,,,,,,,,,s283_02292024,001,2024-02-29_16h11.58.065,test_typingtask_norepeats,2020.2.10,59.97591368515809,
cooed,cooed,,,,,0,36,36,36,,,,,,,,2547.6297852999996,None,"['c', 'o', 'o', 'e', 'd']",1,"[0.9579952000640333, 1.1899576000869274, 1.3660047999583185, 1.4780160998925567, 1.6700603000354022]",2547.6297852999996,None,2547.62977923993,None,,,,,,,,,,,,s283_02292024,001,2024-02-29_16h11.58.065,test_typingtask_norepeats,2020.2.10,59.97591368515809,
zibja,zibja,,,,,0,37,37,37,,,,,,,,2553.12980460003,None,"['z', 'i', 'b', 'j', 'a']",1,"[1.282001500017941, 1.5539065001066774, 1.7700823999475688, 1.9781579000409693, 2.089982599951327]",2553.12980460003,None,2553.1298091400413,None,,,,,,,,,,,,s283_02292024,001,2024-02-29_16h11.58.065,test_typingtask_norepeats,2020.2.10,59.97591368515809,
vanru,vanru,,,,,0,38,38,38,,,,,,,,2558.6298253000714,None,"['v', 'e', 'n', 'r', 'u']",0,"[0.8541017998941243, 1.0138889998197556, 1.1419764999300241, 1.3099919999949634, 1.4379432999994606]",2558.6298253000714,None,2558.629826539941,None,,,,,,,,,,,,s283_02292024,001,2024-02-29_16h11.58.065,test_typingtask_norepeats,2020.2.10,59.97591368515809,
druze,druze,,,,,0,39,39,39,,,,,,,,2564.1298507999163,None,"['d', 'r', 'u', 'z', 'e']",1,"[1.1699275998398662, 1.345891600009054, 1.4660358999390155, 1.626044600037858, 1.833846699912101]",2564.1298507999163,None,2564.1298607399685,None,,,,,,,,,,,,s283_02292024,001,2024-02-29_16h11.58.065,test_typingtask_norepeats,2020.2.10,59.97591368515809,
buddy,buddy,,,,,0,40,40,40,,,,,,,,2569.6298595999833,None,"['b', 'u', 'd', 'd', 'y']",1,"[0.7340745001565665, 0.870017800014466, 1.005961700109765, 1.1658915001899004, 1.2380280001088977]",2569.6298595999833,None,2569.6298333399927,None,,,,,,,,,,,,s283_02292024,001,2024-02-29_16h11.58.065,test_typingtask_norepeats,2020.2.10,59.97591368515809,
think,think,,,,,0,41,41,41,,,,,,,,2575.129918599967,None,"['t', 'h', 'i', 'n', 'g', 'k']",0,"[0.6898517000954598, 0.8020238000899553, 0.9059149001259357, 1.0498595999088138, 1.113791200099513, 1.6418745999690145]",2575.129918599967,None,2575.1299019400494,2575.229907500092,,,,,,,,,,,,s283_02292024,001,2024-02-29_16h11.58.065,test_typingtask_norepeats,2020.2.10,59.97591368515809,
theme,theme,,,,,0,42,42,42,,,,,,,,2580.6298692000564,None,"['t', 'h', 'e', 'm', 'e']",1,"[0.6778893999289721, 0.8058887000661343, 1.085876900004223, 1.1980554999317974, 1.2939601999241859]",2580.6298692000564,None,2580.6299138400236,2580.7298739999533,,,,,,,,,,,,s283_02292024,001,2024-02-29_16h11.58.065,test_typingtask_norepeats,2020.2.10,59.97591368515809,
puppy,puppy,,,,,0,43,43,43,,,,,,,,2586.129971700022,None,"['p', 'u', 'p', 'p', 'y']",1,"[0.9458483001217246, 1.19393020006828, 1.4098471000324935, 1.5458389001432806, 1.777869899990037]",2586.129971700022,None,2586.1299161399247,2586.2299355999567,,,,,,,,,,,,s283_02292024,001,2024-02-29_16h11.58.065,test_typingtask_norepeats,2020.2.10,59.97591368515809,
tithe,tithe,,,,,0,44,44,44,,,,,,,,2591.630044700112,None,"['t', 'i', 't', 'h', 'e']",1,"[0.7019016998820007, 0.8616775998380035, 1.037628100020811, 1.1418281998485327, 1.2697514998726547]",2591.630044700112,None,2591.6299538400954,2591.7299538999796,,,,,,,,,,,,s283_02292024,001,2024-02-29_16h11.58.065,test_typingtask_norepeats,2020.2.10,59.97591368515809,
buddy,buddy,,,,,0,45,45,45,,,,,,,,2597.1299624000676,None,"['b', 'u', 'd', 'd', 'y']",1,"[0.7217840999364853, 0.8578777001239359, 1.0178117000032216, 1.1858284999616444, 1.201890300028026]",2597.1299624000676,None,2597.1300787399987,2597.2299544001,,,,,,,,,,,,s283_02292024,001,2024-02-29_16h11.58.065,test_typingtask_norepeats,2020.2.10,59.97591368515809,
champ,champ,,,,,0,46,46,46,,,,,,,,2602.6300043000374,None,"['c', 'h', 'a', 'm', 'p']",1,"[0.8138588001020253, 0.9818101001437753, 1.221719600027427, 1.3496314000803977, 1.4936361000873148]",2602.6300043000374,None,2602.630003240006,2602.730010899948,,,,,,,,,,,,s283_02292024,001,2024-02-29_16h11.58.065,test_typingtask_norepeats,2020.2.10,59.97591368515809,
belly,belly,,,,,0,47,47,47,,,,,,,,2608.130015200004,None,"['b', 'e', 'l', 'l', 'y']",1,"[0.7217360001523048, 0.8658408001065254, 0.9858405000995845, 1.1057777001988143, 1.2097845000680536]",2608.130015200004,None,2608.1300141399724,2608.2300229999237,,,,,,,,,,,,s283_02292024,001,2024-02-29_16h11.58.065,test_typingtask_norepeats,2020.2.10,59.97591368515809,
there,there,,,,,0,48,48,48,,,,,,,,2613.630067900056,None,"['t', 'h', 'e', 'r', 'e']",1,"[0.6856623000930995, 0.7899213000200689, 0.9016444999724627, 1.0536313001066446, 1.2135765000712126]",2613.630067900056,None,2613.630034640012,2613.7300690999255,,,,,,,,,,,,s283_02292024,001,2024-02-29_16h11.58.065,test_typingtask_norepeats,2020.2.10,59.97591368515809,
kremp,kremp,,,,,0,49,49,49,,,,,,,,2619.130030200118,None,"['k', 'r', 'e', 'm', 'p']",1,"[0.8656995999626815, 1.0498297000303864, 1.225677999900654, 1.3138683000579476, 1.4336719000712037]",2619.130030200118,None,2619.1300512401385,2619.230058700079,,,,,,,,,,,,s283_02292024,001,2024-02-29_16h11.58.065,test_typingtask_norepeats,2020.2.10,59.97591368515809,
cooed,cooed,,,,,0,50,50,50,,,,,,,,2624.630041100085,None,"['c', 'o', 'o', 'e', 'd']",1,"[0.7343136998824775, 0.861733399797231, 0.9976501998025924, 1.1016993999946862, 1.2535786998923868]",2624.630041100085,None,2624.6300802401265,2624.7300814001355,,,,,,,,,,,,s283_02292024,001,2024-02-29_16h11.58.065,test_typingtask_norepeats,2020.2.10,59.97591368515809,
druze,druze,,,,,0,51,51,51,,,,,,,,2630.1300997000653,None,"['d', 'r', 'u', 'z', 'e']",1,"[0.8976125000044703, 1.0656564000528306, 1.3696038001216948, 1.521734000183642, 1.7855767000000924]",2630.1300997000653,None,2630.130105939973,2630.2301171999425,,,,,,,,,,,,s283_02292024,001,2024-02-29_16h11.58.065,test_typingtask_norepeats,2020.2.10,59.97591368515809,
about,about,,,,,0,52,52,52,,,,,,,,2635.630114800064,None,"['a', 'b', 'o', 'u', 't']",1,"[1.7498236000537872, 1.869670799933374, 2.0296404000837356, 2.197591800009832, 2.285649999976158]",2635.630114800064,None,2635.6301232399883,2635.730141100008,,,,,,,,,,,,s283_02292024,001,2024-02-29_16h11.58.065,test_typingtask_norepeats,2020.2.10,59.97591368515809,
champ,champ,,,,,0,53,53,53,,,,,,,,2641.1301223000046,None,"['c', 'h', 'a', 'm', 'p']",1,"[1.129600299987942, 1.3456925000064075, 1.6416525999084115, 1.9857010000851005, 2.209703400032595]",2641.1301223000046,None,2641.1301485400645,2641.2301793999504,,,,,,,,,,,,s283_02292024,001,2024-02-29_16h11.58.065,test_typingtask_norepeats,2020.2.10,59.97591368515809,
druze,druze,,,,,0,54,54,54,,,,,,,,2646.6301540001296,None,"['a', 'd', 'r', 'u', 'x', 'e']",0,"[0.5415652999654412, 1.5655474001541734, 1.7975414001848549, 1.965491000097245, 2.237664100015536, 2.981548700015992]",2646.6301540001296,None,2646.6301477400584,2646.730180500075,,,,,,,,,,,,s283_02292024,001,2024-02-29_16h11.58.065,test_typingtask_norepeats,2020.2.10,59.97591368515809,
therm,therm,,,,,0,55,55,55,,,,,,,,2652.1301790999714,None,"['t', 'h', 'e', 'r', 'm']",1,"[0.633719600038603, 0.7297712001018226, 0.8655385999009013, 1.0174942999146879, 1.097493499983102]",2652.1301790999714,None,2652.1301741400266,2652.2302826000378,,,,,,,,,,,,s283_02292024,001,2024-02-29_16h11.58.065,test_typingtask_norepeats,2020.2.10,59.97591368515809,
think,think,,,,,0,56,56,56,,,,,,,,2657.630186900031,None,"['t', 'h', 'i', 'n', 'k']",1,"[0.6054886998608708, 0.7015295999590307, 0.8134498000144958, 0.9494727998971939, 1.0536233000457287]",2657.630186900031,None,2657.63022044003,2657.7301779000554,,,,,,,,,,,,s283_02292024,001,2024-02-29_16h11.58.065,test_typingtask_norepeats,2020.2.10,59.97591368515809,
druze,druze,,,,,0,57,57,57,,,,,,,,2663.130277000135,None,"['d', 'r', 'u', 'z', 'e']",1,"[0.9293937999755144, 1.1057139001786709, 1.2254918001126498, 1.3616583000402898, 1.6014096001163125]",2663.130277000135,None,2663.1302603399845,2663.2301847999915,,,,,,,,,,,,s283_02292024,001,2024-02-29_16h11.58.065,test_typingtask_norepeats,2020.2.10,59.97591368515809,
cheer,cheer,,,,,0,58,58,58,,,,,,,,2668.6302642000373,None,"['c', 'h', 'e', 'e', 'r']",1,"[0.7415777000132948, 0.8774643000215292, 1.0133735998533666, 1.1655337000265718, 1.3094685999676585]",2668.6302642000373,None,2668.630273540085,2668.730258600088,,,,,,,,,,,,s283_02292024,001,2024-02-29_16h11.58.065,test_typingtask_norepeats,2020.2.10,59.97591368515809,
pykka,pykka,,,,,0,59,59,59,,,,,,,,2674.1302885999903,None,"['p', 'y', 'k', 'k', 'a']",1,"[1.081432200036943, 1.2254705000668764, 1.3854939001612365, 1.5294351000338793, 1.6653695001732558]",2674.1302885999903,None,2674.1302753400987,2674.2302832999267,,,,,,,,,,,,s283_02292024,001,2024-02-29_16h11.58.065,test_typingtask_norepeats,2020.2.10,59.97591368515809,
belly,belly,,,,,0,60,60,60,,,,,,,,2679.630299200071,None,"['b', 'e', 'l', 'l', 'y']",1,"[0.6854981000069529, 0.8054908998310566, 0.8932788998354226, 1.0132746999152005, 1.1093865998554975]",2679.630299200071,None,2679.6303775399456,2679.730309100123,,,,,,,,,,,,s283_02292024,001,2024-02-29_16h11.58.065,test_typingtask_norepeats,2020.2.10,59.97591368515809,
cooed,cooed,,,,,0,61,61,61,,,,,,,,2685.130328600062,None,"['c', 'o', 'o', 'e', 'd']",1,"[0.7053368999622762, 0.8494184000883251, 0.9694312000647187, 1.0893044001422822, 1.257391900056973]",2685.130328600062,None,2685.1303394400047,2685.230327399913,,,,,,,,,,,,s283_02292024,001,2024-02-29_16h11.58.065,test_typingtask_norepeats,2020.2.10,59.97591368515809,
puppy,puppy,,,,,0,62,62,62,,,,,,,,2690.6303902000654,None,"['p', 'u', 'p', 'p', 'y']",1,"[0.9173069999087602, 1.1253096999134868, 1.2773174999747425, 1.3972443998791277, 1.5652134998235852]",2690.6303902000654,None,2690.6303260401355,2690.7303595999256,,,,,,,,,,,,s283_02292024,001,2024-02-29_16h11.58.065,test_typingtask_norepeats,2020.2.10,59.97591368515809,
cheer,cheer,,,,,0,63,63,63,,,,,,,,2696.1303751999512,None,"['c', 'h', 'e', 'e', 'r']",1,"[0.6893005999736488, 0.8093135999515653, 0.9532004999928176, 1.0973246998619288, 1.265253899851814]",2696.1303751999512,None,2696.130369239999,2696.23039339995,,,,,,,,,,,,s283_02292024,001,2024-02-29_16h11.58.065,test_typingtask_norepeats,2020.2.10,59.97591368515809,
vodka,vodka,,,,,0,64,64,64,,,,,,,,2701.6304069999605,None,"['v', 'o', 'd', 'k', 'a']",1,"[0.8132309999782592, 0.9331096999812871, 1.221259699901566, 1.3572822997812182, 1.485211999854073]",2701.6304069999605,None,2701.630379240075,2701.730403299909,,,,,,,,,,,,s283_02292024,001,2024-02-29_16h11.58.065,test_typingtask_norepeats,2020.2.10,59.97591368515809,
haole,haole,,,,,0,65,65,65,,,,,,,,2707.130396600114,None,"['h', 'a', 'o', 'l', 'e']",1,"[0.8734323000535369, 0.9933293000794947, 1.169355200137943, 1.3772177000064403, 1.4653094001114368]",2707.130396600114,None,2707.1304172401315,2707.2304478001315,,,,,,,,,,,,s283_02292024,001,2024-02-29_16h11.58.065,test_typingtask_norepeats,2020.2.10,59.97591368515809,
champ,champ,,,,,0,66,66,66,,,,,,,,2712.6304605000187,None,"['c', 'h', 'a', 'm', 'o', 'p']",0,"[0.6211888999678195, 0.7571648999582976, 0.8770840999204665, 1.0292191999033093, 1.1414300999604166, 1.1414300999604166]",2712.6304605000187,None,2712.6304123399777,2712.73045059992,,,,,,,,,,,,s283_02292024,001,2024-02-29_16h11.58.065,test_typingtask_norepeats,2020.2.10,59.97591368515809,
cheer,cheer,,,,,0,67,67,67,,,,,,,,2718.1304882999975,None,"['c', 'h', 'e', 'e', 'r']",1,"[0.6651655999012291, 0.7851315999869257, 0.9530436999630183, 1.0651271999813616, 1.22532429988496]",2718.1304882999975,None,2718.1305103400255,2718.2304783000145,,,,,,,,,,,,s283_02292024,001,2024-02-29_16h11.58.065,test_typingtask_norepeats,2020.2.10,59.97591368515809,
puppy,puppy,,,,,0,68,68,68,,,,,,,,2723.6304975000676,None,"['p', 'u', 'p', 'p', 'y']",1,"[0.9171941999811679, 1.093032200122252, 1.2371595001313835, 1.3492477999534458, 1.5092470000963658]",2723.6304975000676,None,2723.6305070401168,None,,,,,,,,,,,,s283_02292024,001,2024-02-29_16h11.58.065,test_typingtask_norepeats,2020.2.10,59.97591368515809,
buddy,buddy,,,,,0,69,69,69,,,,,,,,2729.130528900074,None,"['b', 'u', 'd', 'd', 'y']",1,"[0.8732187000568956, 1.0009989999234676, 1.1370711999479681, 1.2571038000751287, 1.369193400023505]",2729.130528900074,None,2729.1305549401322,2729.2305248000193,,,,,,,,,,,,s283_02292024,001,2024-02-29_16h11.58.065,test_typingtask_norepeats,2020.2.10,59.97591368515809,
faqir,faqir,,,,,0,70,70,70,,,,,,,,2734.6305673001334,None,"['f', 'a', 'q', 'i', 'r']",1,"[0.8850708000827581, 1.253139300039038, 1.4850548999384046, 2.2050594000611454, 2.357049100100994]",2734.6305673001334,None,2734.630558240041,None,,,,,,,,,,,,s283_02292024,001,2024-02-29_16h11.58.065,test_typingtask_norepeats,2020.2.10,59.97591368515809,
puppy,puppy,,,,,0,71,71,71,,,,,,,,2740.1305694999173,None,"['p', 'u', 'p', 'p', 'y']",1,"[1.185021499870345, 1.3769966999534518, 1.5529533999506384, 1.6890886998735368, 2.1129743000492454]",2740.1305694999173,None,2740.1313024401197,None,,,,,,,,,,,,s283_02292024,001,2024-02-29_16h11.58.065,test_typingtask_norepeats,2020.2.10,59.97591368515809,
zibja,zibja,,,,,0,72,72,72,,,,,,,,2745.630576299969,None,"['z', 'i', 'b', 'j', 'a']",1,"[1.013147999998182, 1.1809619998093694, 1.3571374998427927, 1.5411863999906927, 1.669158099917695]",2745.630576299969,None,2745.6306218400596,None,,,,,,,,,,,,s283_02292024,001,2024-02-29_16h11.58.065,test_typingtask_norepeats,2020.2.10,59.97591368515809,
haole,haole,,,,,0,73,73,73,,,,,,,,2751.1305758000817,None,"['h', 'a', 'o', 'l', 'e']",1,"[0.8176510001067072, 1.001076800050214, 1.1289806999266148, 1.3290196999441832, 1.417034599930048]",2751.1305758000817,None,2751.1306221399454,2751.2306405000854,,,,,,,,,,,,s283_02292024,001,2024-02-29_16h11.58.065,test_typingtask_norepeats,2020.2.10,59.97591368515809,
faqir,faqir,,,,,0,74,74,74,,,,,,,,2756.6306547001004,None,"['f', 'a', 'q', 'u', 'i', 'r']",0,"[0.9410476998891681, 1.40495719993487, 1.5809444999322295, 1.749123299960047, 2.693109600106254, 2.7729342998936772]",2756.6306547001004,None,2756.630967840133,2756.73064059997,,,,,,,,,,,,s283_02292024,001,2024-02-29_16h11.58.065,test_typingtask_norepeats,2020.2.10,59.97591368515809,
kremp,kremp,,,,,0,75,75,75,,,,,,,,2762.1306291001383,None,"['k', 'r', 'e', 'm', 'p', 'o']",0,"[0.873046200023964, 0.9849880000110716, 1.1610880000516772, 1.2649381998926401, 1.4089039000682533, 1.4569520999211818]",2762.1306291001383,None,2762.130657440098,2762.23067170009,,,,,,,,,,,,s283_02292024,001,2024-02-29_16h11.58.065,test_typingtask_norepeats,2020.2.10,59.97591368515809,
think,think,,,,,0,76,76,76,,,,,,,,2767.630677399924,None,"['t', 'h', 'i', 'n', 'k']",1,"[0.596903899917379, 0.692811300046742, 0.7968903000000864, 0.9250336000695825, 1.0289056000765413]",2767.630677399924,None,2767.630713939946,2767.730752500007,,,,,,,,,,,,s283_02292024,001,2024-02-29_16h11.58.065,test_typingtask_norepeats,2020.2.10,59.97591368515809,
therm,therm,,,,,0,77,77,77,,,,,,,,2773.130719800014,None,"['t', 'h', 'e', 'r', 'm']",1,"[0.6169324000366032, 0.7128226000349969, 0.8490009000524879, 0.9929860001429915, 1.0809639999642968]",2773.130719800014,None,2773.1307252401484,2773.2307339999825,,,,,,,,,,,,s283_02292024,001,2024-02-29_16h11.58.065,test_typingtask_norepeats,2020.2.10,59.97591368515809,
pykka,pykka,,,,,0,78,78,78,,,,,,,,2778.630764500005,None,"['p', 'y', 'k', 'k', 'a']",1,"[0.8768251000437886, 1.1248025998938829, 1.3728157000150532, 1.4927834998816252, 1.6447842998895794]",2778.630764500005,None,2778.630731140077,2778.7307667999994,,,,,,,,,,,,s283_02292024,001,2024-02-29_16h11.58.065,test_typingtask_norepeats,2020.2.10,59.97591368515809,
there,there,,,,,0,79,79,79,,,,,,,,2784.1307431999594,None,"['t', 'h', 'e', 'r', 'e']",1,"[0.6170689999125898, 0.72105300007388, 0.8328005999792367, 0.9768189999740571, 1.1208154000341892]",2784.1307431999594,None,2784.1307383401318,None,,,,,,,,,,,,s283_02292024,001,2024-02-29_16h11.58.065,test_typingtask_norepeats,2020.2.10,59.97591368515809,
zibja,zibja,,,,,0,80,80,80,,,,,,,,2789.6308043000754,None,"['z', 'i', 'n', 'j', 'a']",0,"[0.9329691999591887, 1.4768889998085797, 1.676758699817583, 2.116946999914944, 2.252879399806261]",2789.6308043000754,None,2789.6308138401246,None,,,,,,,,,,,,s283_02292024,001,2024-02-29_16h11.58.065,test_typingtask_norepeats,2020.2.10,59.97591368515809,
buddy,buddy,,,,,0,81,81,81,,,,,,,,2795.130882699974,None,"['b', 'u', 'd', 'd', 'y']",1,"[1.1127899999264628, 1.2567407998722047, 1.3847863997798413, 1.5367088997736573, 1.640659499913454]",2795.130882699974,None,2795.130975839961,None,,,,,,,,,,,,s283_02292024,001,2024-02-29_16h11.58.065,test_typingtask_norepeats,2020.2.10,59.97591368515809,
faqir,faqir,,,,,0,82,82,82,,,,,,,,2800.6308589000255,None,"['f', 'a', 'q', 'i', 'r']",1,"[0.8048505999613553, 1.140712199965492, 1.4127481000032276, 1.9007136998698115, 2.108702299883589]",2800.6308589000255,None,2800.6307924399616,2800.7308809999377,,,,,,,,,,,,s283_02292024,001,2024-02-29_16h11.58.065,test_typingtask_norepeats,2020.2.10,59.97591368515809,
kremp,kremp,,,,,0,83,83,83,,,,,,,,2806.130881299963,None,"['k', 'r', 'e', 'm', 'p', 'o']",0,"[1.104641799814999, 1.3686498999595642, 1.5686412998475134, 1.6886530998162925, 1.8407758998218924, 1.8487524997908622]",2806.130881299963,None,2806.1308820399454,2806.2308845000807,,,,,,,,,,,,s283_02292024,001,2024-02-29_16h11.58.065,test_typingtask_norepeats,2020.2.10,59.97591368515809,
cooed,cooed,,,,,0,84,84,84,,,,,,,,2811.63090489991,None,"['c', 'o', 'o', 'e', 'd']",1,"[0.708652300061658, 0.8206432000733912, 0.9567362000234425, 1.148758600000292, 1.3087294001597911]",2811.63090489991,None,2811.6309203401206,None,,,,,,,,,,,,s283_02292024,001,2024-02-29_16h11.58.065,test_typingtask_norepeats,2020.2.10,59.97591368515809,
champ,champ,,,,,0,85,85,85,,,,,,,,2817.1309170001186,None,"['c', 'h', 'a', 'm', 'p']",1,"[0.6085995000321418, 0.7527092001400888, 0.9526206001173705, 1.0967194000259042, 1.2567591001279652]",2817.1309170001186,None,2817.1309694401452,None,,,,,,,,,,,,s283_02292024,001,2024-02-29_16h11.58.065,test_typingtask_norepeats,2020.2.10,59.97591368515809,
haole,haole,,,,,0,86,86,86,,,,,,,,2822.6309593000915,None,"['h', 'a', 'o', 'l', 'e']",1,"[0.7085988000035286, 0.8525767000392079, 0.9726048999000341, 1.164644599892199, 1.2685388000681996]",2822.6309593000915,None,2822.630993840098,2822.7309654001147,,,,,,,,,,,,s283_02292024,001,2024-02-29_16h11.58.065,test_typingtask_norepeats,2020.2.10,59.97591368515809,
tithe,tithe,,,,,0,87,87,87,,,,,,,,2828.130961399991,None,"['t', 'i', 't', 'h', 'e']",1,"[0.7846553002018481, 0.912649700185284, 1.000573500059545, 1.128680500201881, 1.2485739002004266]",2828.130961399991,None,2828.1309664401224,2828.2309850999154,,,,,,,,,,,,s283_02292024,001,2024-02-29_16h11.58.065,test_typingtask_norepeats,2020.2.10,59.97591368515809,
lucky,lucky,,,,,0,88,88,88,,,,,,,,2833.631056000013,None,"['l', 'u', 'c', 'k', 'y']",1,"[0.8285030000843108, 1.0284567000344396, 1.1404578001238406, 1.2205001001711935, 1.396445499965921]",2833.631056000013,None,2833.6309809401164,2833.730969300028,,,,,,,,,,,,s283_02292024,001,2024-02-29_16h11.58.065,test_typingtask_norepeats,2020.2.10,59.97591368515809,
vodka,vodka,,,,,0,89,89,89,,,,,,,,2839.1310115000233,None,"['v', 'o', 'd', 'k', 'a']",1,"[1.0724718000274152, 1.216454799985513, 1.5924734000582248, 1.808497800026089, 1.9126208000816405]",2839.1310115000233,None,2839.131056739995,2839.231044100132,,,,,,,,,,,,s283_02292024,001,2024-02-29_16h11.58.065,test_typingtask_norepeats,2020.2.10,59.97591368515809,
heond,heond,,,,,0,90,90,90,,,,,,,,2844.631384199951,None,"['h', 'e', 'o', 'n', 'd']",1,"[0.7722796997986734, 0.8922025000210851, 1.0601454998832196, 1.1641053999774158, 1.276187299983576]",2844.631384199951,None,2844.6312527400905,2844.731037999969,,,,,,,,,,,,s283_02292024,001,2024-02-29_16h11.58.065,test_typingtask_norepeats,2020.2.10,59.97591368515809,
kremp,kremp,,,,,0,91,91,91,,,,,,,,2850.1310924999416,None,"['k', 'r', 'e', 'm', 'p']",1,"[0.832561899907887, 0.9923328999429941, 1.1844611999113113, 1.2644626998808235, 1.3923760999459773]",2850.1310924999416,None,2850.131091840146,None,,,,,,,,,,,,s283_02292024,001,2024-02-29_16h11.58.065,test_typingtask_norepeats,2020.2.10,59.97591368515809,
tithe,tithe,,,,,0,92,92,92,,,,,,,,2855.631117100129,None,"['t', 'i', 't', 'h', 'e']",1,"[0.7164698000997305, 0.8204322999808937, 0.9084562000352889, 1.0285014000255615, 1.1163942001294345]",2855.631117100129,None,2855.631102439994,2855.7311225999147,,,,,,,,,,,,s283_02292024,001,2024-02-29_16h11.58.065,test_typingtask_norepeats,2020.2.10,59.97591368515809,
vanru,vanru,,,,,0,93,93,93,,,,,,,,2861.1311439999845,None,"['v', 'a', 'n', 'r', 'u']",1,"[0.7603855999186635, 1.0243820999749005, 1.1364694000221789, 1.2803444999735802, 1.408514800015837]",2861.1311439999845,None,2861.131139139924,None,,,,,,,,,,,,s283_02292024,001,2024-02-29_16h11.58.065,test_typingtask_norepeats,2020.2.10,59.97591368515809,
cheer,cheer,,,,,0,94,94,94,,,,,,,,2866.63116479991,None,"['c', 'h', 'e', 'e', 'r']",1,"[0.6443225999828428, 0.748445900157094, 0.916319000069052, 1.0443464999552816, 1.1963186000939459]",2866.63116479991,None,2866.6311352400107,None,,,,,,,,,,,,s283_02292024,001,2024-02-29_16h11.58.065,test_typingtask_norepeats,2020.2.10,59.97591368515809,
therm,therm,,,,,0,95,95,95,,,,,,,,2872.131196100032,None,"['t', 'h', 'e', 'r', 'm']",1,"[0.6882998000364751, 0.8402855000458658, 1.400316399987787, 1.5842935000546277, 1.720420900033787]",2872.131196100032,None,2872.131207139976,None,,,,,,,,,,,,s283_02292024,001,2024-02-29_16h11.58.065,test_typingtask_norepeats,2020.2.10,59.97591368515809,
theme,theme,,,,,0,96,96,96,,,,,,,,2877.6312198999804,None,"['t', 'h', 'e', 'm', 'e']",1,"[0.6042800000868738, 0.6762484000064433, 0.7963270999025553, 0.9002499000634998, 0.9884401999879628]",2877.6312198999804,None,2877.6312282400204,None,,,,,,,,,,,,s283_02292024,001,2024-02-29_16h11.58.065,test_typingtask_norepeats,2020.2.10,59.97591368515809,
haole,haole,,,,,0,97,97,97,,,,,,,,2883.1312506000977,None,"['h', 'a', 'o', 'l', 'e']",1,"[0.7282391001936048, 0.8721778001636267, 1.032268000068143, 1.2722607001196593, 1.37626240006648]",2883.1312506000977,None,2883.13123344006,None,,,,,,,,,,,,s283_02292024,001,2024-02-29_16h11.58.065,test_typingtask_norepeats,2020.2.10,59.97591368515809,
edthe,edthe,,,,,0,98,98,98,,,,,,,,2888.63127620006,None,"['e', 'd', 't', 'h', 'e']",1,"[0.6682963001076132, 0.8602255000732839, 1.0362740999553353, 1.1162489000707865, 1.2362224999815226]",2888.63127620006,None,2888.6312542399855,None,,,,,,,,,,,,s283_02292024,001,2024-02-29_16h11.58.065,test_typingtask_norepeats,2020.2.10,59.97591368515809,
think,think,,,,,0,99,99,99,,,,,,,,2894.131301000016,None,"['t', 'h', 'i', 'n', 'k']",1,"[0.6481602999847382, 0.7521834999788553, 0.8482303000055254, 0.9923688000999391, 1.0801832000724971]",2894.131301000016,None,2894.1312607401514,None,,,,,,,,,,,,s283_02292024,001,2024-02-29_16h11.58.065,test_typingtask_norepeats,2020.2.10,59.97591368515809,
theme,theme,,,,,0,100,100,100,,,,,,,,2899.63133429992,None,"['t', 'h', 'e', 'm', 'e']",1,"[0.6442156000994146, 0.7321836999617517, 0.8762209999840707, 1.1721582999452949, 1.324197000125423]",2899.63133429992,None,2899.6313405400606,None,,,,,,,,,,,,s283_02292024,001,2024-02-29_16h11.58.065,test_typingtask_norepeats,2020.2.10,59.97591368515809,
faqir,faqir,,,,,0,101,101,101,,,,,,,,2905.1313690999523,None,"['f', 'a', 'q', 'i', 'r']",1,"[0.7680849998723716, 1.1120436999481171, 1.376050799852237, 2.0003667999990284, 2.3760785998310894]",2905.1313690999523,None,2905.1313557399435,None,,,,,,,,,,,,s283_02292024,001,2024-02-29_16h11.58.065,test_typingtask_norepeats,2020.2.10,59.97591368515809,
puppy,puppy,,,,,0,102,102,102,,,,,,,,2910.6313497000374,None,"['p', 'u', 'p', 'p', 'y']",1,"[0.8441294999793172, 1.0441312999464571, 1.2120564000215381, 1.3082202000077814, 1.548163500148803]",2910.6313497000374,None,2910.631387939956,None,,,,,,,,,,,,s283_02292024,001,2024-02-29_16h11.58.065,test_typingtask_norepeats,2020.2.10,59.97591368515809,
vanru,vanru,,,,,0,103,103,103,,,,,,,,2916.1315240999684,None,"['v', 'a', 'n', 'r', 'u']",1,"[0.7600952000357211, 0.8641329000238329, 0.9679823000915349, 1.0959010999649763, 1.184027299983427]",2916.1315240999684,None,2916.131407540105,None,,,,,,,,,,,,s283_02292024,001,2024-02-29_16h11.58.065,test_typingtask_norepeats,2020.2.10,59.97591368515809,
about,about,,,,,0,104,104,104,,,,,,,,2921.631443500053,None,"['a', 'b', 'o', 'u', 't']",1,"[0.7320626999717206, 0.8521042999345809, 0.996018199948594, 1.1561157999094576, 1.2680666998494416]",2921.631443500053,None,2921.6314451399257,None,,,,,,,,,,,,s283_02292024,001,2024-02-29_16h11.58.065,test_typingtask_norepeats,2020.2.10,59.97591368515809,
would,would,,,,,0,105,105,105,,,,,,,,2927.131556400098,None,"['w', 'o', 'u', 'l', 'd']",1,"[0.8558960999362171, 1.0002431999891996, 1.2079476998187602, 1.399841499980539, 1.5038825999945402]",2927.131556400098,None,2927.131476240046,None,,,,,,,,,,,,s283_02292024,001,2024-02-29_16h11.58.065,test_typingtask_norepeats,2020.2.10,59.97591368515809,
tithe,tithe,,,,,0,106,106,106,,,,,,,,2932.631476599956,None,"['t', 'i', 't', 'h', 'e']",1,"[0.7079773999284953, 0.8281195999588817, 0.9401285999920219, 1.0440618998836726, 1.1721018999814987]",2932.631476599956,None,2932.6315228399353,None,,,,,,,,,,,,s283_02292024,001,2024-02-29_16h11.58.065,test_typingtask_norepeats,2020.2.10,59.97591368515809,
there,there,,,,,0,107,107,107,,,,,,,,2938.1315284001175,None,"['t', 'h', 'e', 'r', 'e']",1,"[0.6559087000787258, 0.7360006000380963, 0.8800279998686165, 1.0319133000448346, 1.1840818000491709]",2938.1315284001175,None,2938.1315251400692,None,,,,,,,,,,,,s283_02292024,001,2024-02-29_16h11.58.065,test_typingtask_norepeats,2020.2.10,59.97591368515809,
would,would,,,,,0,108,108,108,,,,,,,,2943.6315349000506,None,"['w', 'o', 'u', 'l', 'd']",1,"[0.6439500998239964, 0.7399623999372125, 0.9159714998677373, 1.0839584998320788, 1.1640051000285894]",2943.6315349000506,None,2943.6315481400115,None,,,,,,,,,,,,s283_02292024,001,2024-02-29_16h11.58.065,test_typingtask_norepeats,2020.2.10,59.97591368515809,
there,there,,,,,0,109,109,109,,,,,,,,2949.131562500028,None,"['t', 'h', 'e', 'r', 'e']",1,"[0.7199148999061435, 0.8000548998825252, 0.9440625999122858, 1.1117785999085754, 1.2479144998360425]",2949.131562500028,None,2949.1315699399447,None,,,,,,,,,,,,s283_02292024,001,2024-02-29_16h11.58.065,test_typingtask_norepeats,2020.2.10,59.97591368515809,
think,think,,,,,0,110,110,110,,,,,,,,2954.631561400136,None,"['t', 'h', 'i', 'n', 'k']",1,"[0.7719334999565035, 0.8680445998907089, 0.964064700063318, 1.091798499925062, 1.195900100050494]",2954.631561400136,None,2954.631613940047,None,,,,,,,,,,,,s283_02292024,001,2024-02-29_16h11.58.065,test_typingtask_norepeats,2020.2.10,59.97591368515809,
there,there,,,,,0,111,111,111,,,,,,,,2960.1317950999364,None,"['t', 'h', 'e', 'r', 'e']",1,"[0.7356206998229027, 0.7995702000334859, 0.9436351999174803, 1.0955697998870164, 1.2396688999142498]",2960.1317950999364,None,2960.1316027399616,None,,,,,,,,,,,,s283_02292024,001,2024-02-29_16h11.58.065,test_typingtask_norepeats,2020.2.10,59.97591368515809,
would,would,,,,,0,112,112,112,,,,,,,,2965.631661700085,None,"['w', 'o', 'u', 'l', 'd']",1,"[0.7239353999029845, 0.8198983001057059, 1.0037954000290483, 1.1716863999608904, 1.259867100045085]",2965.631661700085,None,2965.6316275401505,None,,,,,,,,,,,,s283_02292024,001,2024-02-29_16h11.58.065,test_typingtask_norepeats,2020.2.10,59.97591368515809,
belly,belly,,,,,0,113,113,113,,,,,,,,2971.1316573999356,None,"['b', 'e', 'l', 'l', 'y']",1,"[0.6477681999094784, 0.7597397998906672, 0.8398515998851508, 0.9677193998359144, 1.1358803999610245]",2971.1316573999356,None,2971.1316982401067,None,,,,,,,,,,,,s283_02292024,001,2024-02-29_16h11.58.065,test_typingtask_norepeats,2020.2.10,59.97591368515809,
edthe,edthe,,,,,0,114,114,114,,,,,,,,2976.6317161999177,None,"['e', 'd', 't', 'h', 'e']",1,"[0.811774899950251, 0.9558089000638574, 1.131751500070095, 1.2036777001339942, 1.3157113001216203]",2976.6317161999177,None,2976.631726539973,None,,,,,,,,,,,,s283_02292024,001,2024-02-29_16h11.58.065,test_typingtask_norepeats,2020.2.10,59.97591368515809,
pykka,pykka,,,,,0,115,115,115,,,,,,,,2982.1319868001156,None,"['p', 'y', 'k', 'k', 'a']",1,"[0.8394090998917818, 1.007349800085649, 1.18343949993141, 1.3115916000679135, 1.447461900068447]",2982.1319868001156,None,2982.131743639987,None,,,,,,,,,,,,s283_02292024,001,2024-02-29_16h11.58.065,test_typingtask_norepeats,2020.2.10,59.97591368515809,
vodka,vodka,,,,,0,116,116,116,,,,,,,,2987.631785900099,None,"['v', 'o', 'd', 'k', 'a']",1,"[0.8996999999508262, 1.0836712000891566, 1.491827900055796, 1.6436910999473184, 1.7877988000400364]",2987.631785900099,None,2987.631760139996,None,,,,,,,,,,,,s283_02292024,001,2024-02-29_16h11.58.065,test_typingtask_norepeats,2020.2.10,59.97591368515809,
tithe,tithe,,,,,0,117,117,117,,,,,,,,2993.131832400104,None,"['t', 'i', 't', 'h', 'e']",1,"[0.8074998001102358, 0.9596802000887692, 1.0717577000614256, 1.1914871002081782, 1.3117429001722485]",2993.131832400104,None,2993.131766940048,None,,,,,,,,,,,,s283_02292024,001,2024-02-29_16h11.58.065,test_typingtask_norepeats,2020.2.10,59.97591368515809,
therm,therm,,,,,0,118,118,118,,,,,,,,2998.6318298999686,None,"['t', 'h', 'e', 'm', 'r']",0,"[0.619608499808237, 0.7156508998014033, 0.8435958998743445, 0.9636681999545544, 1.0756573998369277]",2998.6318298999686,None,2998.631813640054,None,,,,,,,,,,,,s283_02292024,001,2024-02-29_16h11.58.065,test_typingtask_norepeats,2020.2.10,59.97591368515809,
haole,haole,,,,,0,119,119,119,,,,,,,,3004.131855200045,None,"['h', 'a', 'o', 'l', 'e']",1,"[0.7434929001610726, 0.8477384001016617, 0.9517553001642227, 1.111490000039339, 1.2555364000145346]",3004.131855200045,None,3004.1318308399523,None,,,,,,,,,,,,s283_02292024,001,2024-02-29_16h11.58.065,test_typingtask_norepeats,2020.2.10,59.97591368515809,
zibja,zibja,,,,,,,,,0,0,0,0,,,,,,,,,,,,,3009.6318823001347,None,3025.6653265000787,None,"['z', 'i', 'b', 'n', 'j', 'a']",0,"[1.0580737998243421, 1.202123099938035, 1.3220879998989403, 1.3301543998531997, 1.4821196999400854, 1.5779853998683393]",3025.6653265000787,None,3025.665300539974,3025.7653324999847,s283_02292024,001,2024-02-29_16h11.58.065,test_typingtask_norepeats,2020.2.10,59.97591368515809,
cheer,cheer,,,,,,,,,0,1,1,1,,,,,,,,,,,,,,,3031.165344200097,None,"['c', 'h', 'e', 'e', 'r']",1,"[0.6460605999454856, 0.7502655999269336, 0.8939698000904173, 1.0139899000059813, 1.1740560999605805]",3031.165344200097,None,3031.165339940041,3031.265334900003,s283_02292024,001,2024-02-29_16h11.58.065,test_typingtask_norepeats,2020.2.10,59.97591368515809,
faqir,faqir,,,,,,,,,0,2,2,2,,,,,,,,,,,,,,,3036.6653573000804,None,"['f', 'a', 'q', 'i', 'r']",1,"[0.7380450000055134, 1.0420045999344438, 1.5619904999621212, 1.985963199986145, 2.1220490999985486]",3036.6653573000804,None,3036.6653657400047,3036.7653661000077,s283_02292024,001,2024-02-29_16h11.58.065,test_typingtask_norepeats,2020.2.10,59.97591368515809,
vanru,vanru,,,,,,,,,0,3,3,3,,,,,,,,,,,,,,,3042.1653849000577,None,"['v', 'a', 'n', 'r', 'u']",1,"[0.837994399946183, 0.9420763999223709, 1.0378623998258263, 1.1820701998658478, 1.253945800010115]",3042.1653849000577,None,3042.1653621399773,3042.265397500014,s283_02292024,001,2024-02-29_16h11.58.065,test_typingtask_norepeats,2020.2.10,59.97591368515809,
kremp,kremp,,,,,,,,,0,4,4,4,,,,,,,,,,,,,,,3047.6654199000914,None,"['k', 'r', 'e', 'm', 'p']",1,"[0.8099573000799865, 0.9379505999386311, 1.106055699987337, 1.193973100045696, 1.3059286000207067]",3047.6654199000914,None,3047.665378140099,3047.7654218000825,s283_02292024,001,2024-02-29_16h11.58.065,test_typingtask_norepeats,2020.2.10,59.97591368515809,
think,think,,,,,,,,,0,5,5,5,,,,,,,,,,,,,,,3053.1658638999797,None,"['t', 'h', 'i', 'n', 'k']",1,"[0.6215061999391764, 0.7338900999166071, 0.829426399897784, 0.9735834000166506, 1.0774552999064326]",3053.1658638999797,None,3053.1654534400905,3053.265539499931,s283_02292024,001,2024-02-29_16h11.58.065,test_typingtask_norepeats,2020.2.10,59.97591368515809,
champ,champ,,,,,,,,,0,6,6,6,,,,,,,,,,,,,,,3058.665471000131,None,"['c', 'h', 'a', 'm', 'p']",1,"[0.6579857000615448, 0.7940132000949234, 0.9699165001511574, 1.105962699977681, 1.2344084000214934]",3058.665471000131,None,3058.6654878401196,3058.7654454000294,s283_02292024,001,2024-02-29_16h11.58.065,test_typingtask_norepeats,2020.2.10,59.97591368515809,
pykka,pykka,,,,,,,,,0,7,7,7,,,,,,,,,,,,,,,3064.1655135001056,None,"['p', 'y', 'k', 'k', 'a']",1,"[0.9018422001972795, 1.1099052000790834, 1.3659028999973089, 1.4938635001890361, 1.6300271002110094]",3064.1655135001056,None,3064.1655046400147,3064.265502900118,s283_02292024,001,2024-02-29_16h11.58.065,test_typingtask_norepeats,2020.2.10,59.97591368515809,
heond,heond,,,,,,,,,0,8,8,8,,,,,,,,,,,,,,,3069.665537700057,None,"['h', 'e', 'o', 'n', 'd']",1,"[0.6817881998140365, 0.7778460998088121, 0.921755800023675, 1.0341266999021173, 1.129806000040844]",3069.665537700057,None,3069.665543640079,None,s283_02292024,001,2024-02-29_16h11.58.065,test_typingtask_norepeats,2020.2.10,59.97591368515809,
buddy,buddy,,,,,,,,,0,9,9,9,,,,,,,,,,,,,,,3075.1655794000253,None,"['b', 'u', 'd', 'd', 'y']",1,"[0.8457555000204593, 0.9817975000478327, 1.109760700026527, 1.2617725001182407, 1.3342347999569029]",3075.1655794000253,None,3075.165576240094,None,s283_02292024,001,2024-02-29_16h11.58.065,test_typingtask_norepeats,2020.2.10,59.97591368515809,
about,about,,,,,,,,,0,10,10,10,,,,,,,,,,,,,,,3080.665596399922,None,"['a', 'b', 'o', 'u', 't']",1,"[0.6417196998372674, 0.7618484999984503, 0.8978401999920607, 1.0497961998917162, 1.145865899976343]",3080.665596399922,None,3080.665593239991,None,s283_02292024,001,2024-02-29_16h11.58.065,test_typingtask_norepeats,2020.2.10,59.97591368515809,
would,would,,,,,,,,,0,11,11,11,,,,,,,,,,,,,,,3086.1656458000652,None,"['w', 'o', 'u', 'l', 'd']",1,"[0.7016833999659866, 0.7416282999329269, 0.9657054000999779, 1.1336978999897838, 1.2057231001090258]",3086.1656458000652,None,3086.1656251401173,None,s283_02292024,001,2024-02-29_16h11.58.065,test_typingtask_norepeats,2020.2.10,59.97591368515809,
edthe,edthe,,,,,,,,,0,12,12,12,,,,,,,,,,,,,,,3091.6656555000227,None,"['e', 'd', 't', 'h', 'e']",1,"[0.8017166999634355, 1.0817064000293612, 1.2897210998926312, 1.369735199958086, 1.5459553999826312]",3091.6656555000227,None,3091.6656550399957,None,s283_02292024,001,2024-02-29_16h11.58.065,test_typingtask_norepeats,2020.2.10,59.97591368515809,
cooed,cooed,,,,,,,,,0,13,13,13,,,,,,,,,,,,,,,3097.165686500026,None,"['c', 'o', 'e', 'd']",0,"[0.6296254000626504, 0.8537390001583844, 1.02958680014126, 1.1896538001019508]",3097.165686500026,None,3097.1656858399974,None,s283_02292024,001,2024-02-29_16h11.58.065,test_typingtask_norepeats,2020.2.10,59.97591368515809,
heond,heond,,,,,,,,,0,14,14,14,,,,,,,,,,,,,,,3102.6657330000307,None,"['h', 'e', 'o', 'n', 'd']",1,"[0.6895542000420392, 0.8095612998586148, 0.9056640998460352, 1.0255827000364661, 1.1295387998688966]",3102.6657330000307,None,3102.6656721400095,None,s283_02292024,001,2024-02-29_16h11.58.065,test_typingtask_norepeats,2020.2.10,59.97591368515809,
zibja,zibja,,,,,,,,,0,15,15,15,,,,,,,,,,,,,,,3108.1657392999623,None,"['z', 'i', 'n', 'b', 'j', 'a']",0,"[1.0295520001091063, 1.1495330000761896, 1.3735477000009269, 2.0376377999782562, 2.173537600087002, 2.3015594999305904]",3108.1657392999623,None,3108.1657160399945,None,s283_02292024,001,2024-02-29_16h11.58.065,test_typingtask_norepeats,2020.2.10,59.97591368515809,
theme,theme,,,,,,,,,0,16,16,16,,,,,,,,,,,,,,,3113.665754900081,None,"['t', 'h', 'e', 'm', 'e']",1,"[0.6338965999893844, 0.7134983998257667, 0.8575161998160183, 0.9456565999425948, 1.033523399848491]",3113.665754900081,None,3113.665770740062,None,s283_02292024,001,2024-02-29_16h11.58.065,test_typingtask_norepeats,2020.2.10,59.97591368515809,
cooed,cooed,,,,,,,,,0,17,17,17,,,,,,,,,,,,,,,3119.1657660999335,None,"['c', 'o', 'o', 'e', 'd']",1,"[0.8455515999812633, 0.9574439998250455, 1.0854821000248194, 1.165541699854657, 1.334054799983278]",3119.1657660999335,None,3119.1658023400696,None,s283_02292024,001,2024-02-29_16h11.58.065,test_typingtask_norepeats,2020.2.10,59.97591368515809,
lucky,lucky,,,,,,,,,0,18,18,18,,,,,,,,,,,,,,,3124.6658380001318,None,"['l', 'u', 'c', 'k', 'y']",1,"[0.8735625999979675, 1.0575367000419647, 1.1773449999745935, 1.2494350001215935, 1.4495526000391692]",3124.6658380001318,None,3124.6658408400135,None,s283_02292024,001,2024-02-29_16h11.58.065,test_typingtask_norepeats,2020.2.10,59.97591368515809,
haole,haole,,,,,,,,,0,19,19,19,,,,,,,,,,,,,,,3130.165859000059,None,"['h', 'a', 'o', 'l', 'e']",1,"[0.701442199992016, 0.7973722000606358, 0.9173127999529243, 1.1094037001021206, 1.1973576000891626]",3130.165859000059,None,3130.165850640088,None,s283_02292024,001,2024-02-29_16h11.58.065,test_typingtask_norepeats,2020.2.10,59.97591368515809,
would,would,,,,,,,,,0,20,20,20,,,,,,,,,,,,,,,3135.6658882000484,None,"['w', 'o', 'u', 'l', 'd']",1,"[0.6813366999849677, 0.7853751999791712, 0.9933937999885529, 1.185560200130567, 1.2654911000281572]",3135.6658882000484,None,3135.6658886401447,None,s283_02292024,001,2024-02-29_16h11.58.065,test_typingtask_norepeats,2020.2.10,59.97591368515809,
heond,heond,,,,,,,,,0,21,21,21,,,,,,,,,,,,,,,3141.165908700088,None,"['h', 'e', 'o', 'n', 'd']",1,"[0.7013473000843078, 0.8293240000493824, 0.9496591000352055, 1.0533118001185358, 1.1734482001047581]",3141.165908700088,None,3141.165917840134,None,s283_02292024,001,2024-02-29_16h11.58.065,test_typingtask_norepeats,2020.2.10,59.97591368515809,
pykka,pykka,,,,,,,,,0,22,22,22,,,,,,,,,,,,,,,3146.6659325000364,None,"['p', 'y', 'k', 'k', 'a']",1,"[0.857468199916184, 1.0494391999673098, 1.2652952999342233, 1.3772777998819947, 1.5372635999228805]",3146.6659325000364,None,3146.6659446401054,None,s283_02292024,001,2024-02-29_16h11.58.065,test_typingtask_norepeats,2020.2.10,59.97591368515809,
about,about,,,,,,,,,0,23,23,23,,,,,,,,,,,,,,,3152.1659488999285,None,"['a', 'b', 'o', 'u', 't']",1,"[0.6693166999612004, 0.9252922998275608, 1.0852449999656528, 1.2692835999187082, 1.3654489999171346]",3152.1659488999285,None,3152.165985340066,None,s283_02292024,001,2024-02-29_16h11.58.065,test_typingtask_norepeats,2020.2.10,59.97591368515809,
zibja,zibja,,,,,,,,,0,24,24,24,,,,,,,,,,,,,,,3157.6659744000062,None,"['z', 'i', 'b', 'j', 'a']",1,"[0.9294203000608832, 1.0733170001767576, 1.2253784001804888, 2.0972494001034647, 2.249389600008726]",3157.6659744000062,None,3157.665999739943,None,s283_02292024,001,2024-02-29_16h11.58.065,test_typingtask_norepeats,2020.2.10,59.97591368515809,
haole,haole,,,,,,,,,0,25,25,25,,,,,,,,,,,,,,,3163.1659921000246,None,"['h', 'a', 'o', 'l', 'e']",1,"[0.6532405000180006, 0.7892310000024736, 0.9177534999325871, 1.0691784999798983, 1.1812876998446882]",3163.1659921000246,None,3163.166034240089,None,s283_02292024,001,2024-02-29_16h11.58.065,test_typingtask_norepeats,2020.2.10,59.97591368515809,
puppy,puppy,,,,,,,,,0,26,26,26,,,,,,,,,,,,,,,3168.6660623000935,None,"['p', 'u', 'p', 'p', 'y']",1,"[0.9932376001961529, 1.2331577001605183, 1.3770711000543088, 1.4812033001799136, 1.993178600212559]",3168.6660623000935,None,3168.6660252400206,None,s283_02292024,001,2024-02-29_16h11.58.065,test_typingtask_norepeats,2020.2.10,59.97591368515809,
druze,druze,,,,,,,,,0,27,27,27,,,,,,,,,,,,,,,3174.166085700039,None,"['d', 'r', 'u', 'z', 'e']",1,"[0.749151200056076, 0.9252911999356002, 1.0611117999069393, 1.1811474000569433, 1.3811327998992056]",3174.166085700039,None,3174.1660542400086,None,s283_02292024,001,2024-02-29_16h11.58.065,test_typingtask_norepeats,2020.2.10,59.97591368515809,
vodka,vodka,,,,,,,,,0,28,28,28,,,,,,,,,,,,,,,3179.6660836001392,None,"['v', 'o', 'd', 'k', 'a']",1,"[0.8651566000189632, 1.2972923999186605, 1.6252933000214398, 1.7612771999556571, 1.9211007000412792]",3179.6660836001392,None,3179.666151339933,None,s283_02292024,001,2024-02-29_16h11.58.065,test_typingtask_norepeats,2020.2.10,59.97591368515809,
pykka,pykka,,,,,,,,,0,29,29,29,,,,,,,,,,,,,,,3185.1661569001153,None,"['p', 'y', 'k', 'k', 'a']",1,"[0.8210539000574499, 1.037020399933681, 1.3650638998951763, 1.4930310999043286, 1.6210185999516398]",3185.1661569001153,None,3185.1661568400914,None,s283_02292024,001,2024-02-29_16h11.58.065,test_typingtask_norepeats,2020.2.10,59.97591368515809,
champ,champ,,,,,,,,,0,30,30,30,,,,,,,,,,,,,,,3190.666181599954,None,"['c', 'h', 'a', 'm', 'p']",1,"[0.6250636000186205, 0.7930089000146836, 0.9450004999525845, 1.0811205001082271, 1.193088399944827]",3190.666181599954,None,3190.6661874400916,None,s283_02292024,001,2024-02-29_16h11.58.065,test_typingtask_norepeats,2020.2.10,59.97591368515809,
belly,belly,,,,,,,,,0,31,31,31,,,,,,,,,,,,,,,3196.1662081000395,None,"['b', 'e', 'l', 'l', 'y']",1,"[0.6130752000026405, 0.7009435000363737, 0.8210897999815643, 0.9331106999889016, 1.0451972000300884]",3196.1662081000395,None,3196.166195640154,None,s283_02292024,001,2024-02-29_16h11.58.065,test_typingtask_norepeats,2020.2.10,59.97591368515809,
there,there,,,,,,,,,0,32,32,32,,,,,,,,,,,,,,,3201.666360900039,None,"['t', 'h', 'e', 'r', 'e']",1,"[0.6969019998796284, 0.8247977998107672, 0.9448141998145729, 1.1208347999490798, 1.272936699911952]",3201.666360900039,None,3201.666249339981,None,s283_02292024,001,2024-02-29_16h11.58.065,test_typingtask_norepeats,2020.2.10,59.97591368515809,
puppy,puppy,,,,,,,,,0,33,33,33,,,,,,,,,,,,,,,3207.166285000043,None,"['p', 'u', 'p', 'p', 'y']",1,"[0.6849378999322653, 0.8368454999290407, 0.9890213999897242, 1.0849856999702752, 1.2929040000308305]",3207.166285000043,None,3207.1666163399814,None,s283_02292024,001,2024-02-29_16h11.58.065,test_typingtask_norepeats,2020.2.10,59.97591368515809,
druze,druze,,,,,,,,,0,34,34,34,,,,,,,,,,,,,,,3212.66629380011,None,"['d', 'r', 'u', 'z', 'e']",1,"[0.9129232000559568, 1.0968770000617951, 1.2650176000315696, 1.376834300113842, 1.5848473000805825]",3212.66629380011,None,3212.6662614399565,None,s283_02292024,001,2024-02-29_16h11.58.065,test_typingtask_norepeats,2020.2.10,59.97591368515809,
vanru,vanru,,,,,,,,,0,35,35,35,,,,,,,,,,,,,,,3218.1663349000737,None,"['v', 'a', 'n', 'r', 'u']",1,"[0.8288664000574499, 1.02082490012981, 1.244838499929756, 1.4128370000980794, 1.5727737001143396]",3218.1663349000737,None,3218.1663199400527,None,s283_02292024,001,2024-02-29_16h11.58.065,test_typingtask_norepeats,2020.2.10,59.97591368515809,
would,would,,,,,,,,,0,36,36,36,,,,,,,,,,,,,,,3223.666364700068,None,"['w', 'o', 'u', 'l', 'd']",1,"[0.6569272999186069, 0.7767425999045372, 0.9609528998844326, 1.1367550999857485, 1.217166599817574]",3223.666364700068,None,3223.6663614400195,None,s283_02292024,001,2024-02-29_16h11.58.065,test_typingtask_norepeats,2020.2.10,59.97591368515809,
cooed,cooed,,,,,,,,,0,37,37,37,,,,,,,,,,,,,,,3229.166388000129,None,"['c', 'o', 'o', 'e', 'd']",1,"[0.6928888999391347, 0.7888169998768717, 0.9086821998935193, 0.9807567000389099, 1.1328785999212414]",3229.166388000129,None,3229.1663842399603,None,s283_02292024,001,2024-02-29_16h11.58.065,test_typingtask_norepeats,2020.2.10,59.97591368515809,
puppy,puppy,,,,,,,,,0,38,38,38,,,,,,,,,,,,,,,3234.6664309999906,None,"['p', 'u', 'p', 'p', 'y']",1,"[0.7047456000000238, 0.8647821999620646, 1.016677499981597, 1.1207135000731796, 1.2650236000772566]",3234.6664309999906,None,3234.666387639986,None,s283_02292024,001,2024-02-29_16h11.58.065,test_typingtask_norepeats,2020.2.10,59.97591368515809,
haole,haole,,,,,,,,,0,39,39,39,,,,,,,,,,,,,,,3240.166454399936,None,"['h', 'a', 'o', 'l', 'e']",1,"[0.6687918999232352, 0.7648716000840068, 0.8687531999312341, 1.2687045000493526, 1.3487635999917984]",3240.166454399936,None,3240.166454340145,None,s283_02292024,001,2024-02-29_16h11.58.065,test_typingtask_norepeats,2020.2.10,59.97591368515809,
puppy,puppy,,,,,,,,,0,40,40,40,,,,,,,,,,,,,,,3245.6665026999544,None,"['p', 'u', 'p', 'p', 'y']",1,"[0.6486687001306564, 0.816574800061062, 0.9447659999132156, 1.0646258001215756, 1.2006936999969184]",3245.6665026999544,None,3245.6664783400947,None,s283_02292024,001,2024-02-29_16h11.58.065,test_typingtask_norepeats,2020.2.10,59.97591368515809,
edthe,edthe,,,,,,,,,0,41,41,41,,,,,,,,,,,,,,,3251.1665038999636,None,"['e', 'd', 't', 'h', 'e']",1,"[0.7806576997973025, 0.9406939998734742, 1.132742099929601, 1.2207694000098854, 1.332626599818468]",3251.1665038999636,None,3251.166512040002,None,s283_02292024,001,2024-02-29_16h11.58.065,test_typingtask_norepeats,2020.2.10,59.97591368515809,
there,there,,,,,,,,,0,42,42,42,,,,,,,,,,,,,,,3256.666556400014,None,"['t', 'h', 'e', 'r', 'e']",1,"[0.6726188000757247, 0.7606007000431418, 0.880675199907273, 1.0405727999750525, 1.1686749998480082]",3256.666556400014,None,3256.6665377400814,None,s283_02292024,001,2024-02-29_16h11.58.065,test_typingtask_norepeats,2020.2.10,59.97591368515809,
heond,heond,,,,,,,,,0,43,43,43,,,,,,,,,,,,,,,3262.166573100025,None,"['h', 'e', 'o', 'n', 'd']",1,"[0.6445881999097764, 0.7166398998815566, 0.8207459000404924, 0.9247012999840081, 1.0446782000362873]",3262.166573100025,None,3262.1668644401243,None,s283_02292024,001,2024-02-29_16h11.58.065,test_typingtask_norepeats,2020.2.10,59.97591368515809,
champ,champ,,,,,,,,,0,44,44,44,,,,,,,,,,,,,,,3267.666561800055,None,"['c', 'h', 'a', 's', 'm', 'p']",0,"[0.6565507999621332, 0.7686218000017107, 0.9125947998836637, 0.9206635998561978, 1.0008039998356253, 1.192549099912867]",3267.666561800055,None,3267.6666037401183,None,s283_02292024,001,2024-02-29_16h11.58.065,test_typingtask_norepeats,2020.2.10,59.97591368515809,
haole,haole,,,,,,,,,0,45,45,45,,,,,,,,,,,,,,,3273.1666369999293,None,"['h', 'a', 'o', 'l', 'e']",1,"[0.7006369999144226, 0.8686102998908609, 1.0046067000366747, 1.1564331999979913, 1.2524904999881983]",3273.1666369999293,None,3273.166636140132,None,s283_02292024,001,2024-02-29_16h11.58.065,test_typingtask_norepeats,2020.2.10,59.97591368515809,
kremp,kremp,,,,,,,,,0,46,46,46,,,,,,,,,,,,,,,3278.666670900071,None,"['k', 'r', 'e', 'm', 'p']",1,"[0.8724986999295652, 0.9924465999938548, 1.1765936999581754, 1.264566299971193, 1.3763612001203]",3278.666670900071,None,3278.6666697399223,None,s283_02292024,001,2024-02-29_16h11.58.065,test_typingtask_norepeats,2020.2.10,59.97591368515809,
edthe,edthe,,,,,,,,,0,47,47,47,,,,,,,,,,,,,,,3284.1666767999995,None,"['e', 'd', 't', 'h', 'e']",1,"[0.5884322999045253, 0.7565623999107629, 0.9484530000481755, 1.0363994999788702, 1.1485830000601709]",3284.1666767999995,None,3284.166695640003,None,s283_02292024,001,2024-02-29_16h11.58.065,test_typingtask_norepeats,2020.2.10,59.97591368515809,
think,think,,,,,,,,,0,48,48,48,,,,,,,,,,,,,,,3289.666685800068,None,"['t', 'h', 'i', 'n', 'k']",1,"[0.6164402000140399, 0.7204848998226225, 0.8324483998585492, 0.9445423998404294, 1.0404801999684423]",3289.666685800068,None,3289.6667262400033,None,s283_02292024,001,2024-02-29_16h11.58.065,test_typingtask_norepeats,2020.2.10,59.97591368515809,
theme,theme,,,,,,,,,0,49,49,49,,,,,,,,,,,,,,,3295.166714299936,None,"['t', 'h', 'e', 'm', 'e']",1,"[0.6123971999622881, 0.7403730999212712, 0.8526899998541921, 0.9563332998659462, 1.044442499987781]",3295.166714299936,None,3295.1667644400613,None,s283_02292024,001,2024-02-29_16h11.58.065,test_typingtask_norepeats,2020.2.10,59.97591368515809,
therm,therm,,,,,,,,,0,50,50,50,,,,,,,,,,,,,,,3300.666751800105,None,"['t', 'h', 'e', 'r', 'm']",1,"[0.616457800148055, 0.7204666000325233, 0.8163599001709372, 0.968349400209263, 1.0483635000418872]",3300.666751800105,None,3300.666781439958,None,s283_02292024,001,2024-02-29_16h11.58.065,test_typingtask_norepeats,2020.2.10,59.97591368515809,
belly,belly,,,,,,,,,0,51,51,51,,,,,,,,,,,,,,,3306.1667699001264,None,"['b', 'e', 'l', 'l', 'y']",1,"[0.6123347000684589, 0.7483983000274748, 0.8364585000090301, 0.9645055001601577, 1.0763284000568092]",3306.1667699001264,None,3306.1668172399977,None,s283_02292024,001,2024-02-29_16h11.58.065,test_typingtask_norepeats,2020.2.10,59.97591368515809,
about,about,,,,,,,,,0,52,52,52,,,,,,,,,,,,,,,3311.666845400119,None,"['a', 'b', 'o', 'u', 't']",1,"[0.8722546000499278, 0.9761916999705136, 1.1203423999249935, 1.2722863000817597, 1.360245699994266]",3311.666845400119,None,3311.6668438399674,None,s283_02292024,001,2024-02-29_16h11.58.065,test_typingtask_norepeats,2020.2.10,59.97591368515809,
zibja,zibja,,,,,,,,,0,53,53,53,,,,,,,,,,,,,,,3317.1668545999564,None,"['z', 'i', 'b', 'j', 'a']",1,"[0.8922430998645723, 1.1642076999414712, 1.62022399995476, 1.8602068999316543, 1.9643247998319566]",3317.1668545999564,None,3317.166934439959,None,s283_02292024,001,2024-02-29_16h11.58.065,test_typingtask_norepeats,2020.2.10,59.97591368515809,
think,think,,,,,,,,,0,54,54,54,,,,,,,,,,,,,,,3322.666909000138,None,"['t', 'i', 'k', 'n', 'k']",0,"[0.6321823999751359, 0.840131500037387, 1.2004799998831004, 1.5361174999270588, 1.63215609989129]",3322.666909000138,None,3322.6669064399784,None,s283_02292024,001,2024-02-29_16h11.58.065,test_typingtask_norepeats,2020.2.10,59.97591368515809,
kremp,kremp,,,,,,,,,0,55,55,55,,,,,,,,,,,,,,,3328.166936099995,None,"['k', 'r', 'e', 'm', 'p']",1,"[0.8122543999925256, 0.9481594001408666, 1.1241261002141982, 1.220199700212106, 1.3721210001967847]",3328.166936099995,None,3328.166958640143,None,s283_02292024,001,2024-02-29_16h11.58.065,test_typingtask_norepeats,2020.2.10,59.97591368515809,
lucky,lucky,,,,,,,,,0,56,56,56,,,,,,,,,,,,,,,3333.6669383000117,None,"['l', 'u', 'c', 'l', 'y']",0,"[0.6641565000172704, 0.8640950999688357, 1.0482129999436438, 1.3441693000495434, 1.8881979999132454]",3333.6669383000117,None,3333.6669802400747,None,s283_02292024,001,2024-02-29_16h11.58.065,test_typingtask_norepeats,2020.2.10,59.97591368515809,
there,there,,,,,,,,,0,57,57,57,,,,,,,,,,,,,,,3339.167008999968,None,"['t', 'h', 'e', 'r', 'e']",1,"[0.6123069000896066, 0.7000633999705315, 0.8282337000127882, 0.9800954998936504, 1.116072200005874]",3339.167008999968,None,3339.167004740145,None,s283_02292024,001,2024-02-29_16h11.58.065,test_typingtask_norepeats,2020.2.10,59.97591368515809,
lucky,lucky,,,,,,,,,0,58,58,58,,,,,,,,,,,,,,,3344.6670323999133,None,"['l', 'u', 'c', 'k', 'y']",1,"[0.7361475999932736, 0.975948799867183, 1.215955999912694, 1.3759331000037491, 1.6320336998905987]",3344.6670323999133,None,3344.667032340122,None,s283_02292024,001,2024-02-29_16h11.58.065,test_typingtask_norepeats,2020.2.10,59.97591368515809,
buddy,buddy,,,,,,,,,0,59,59,59,,,,,,,,,,,,,,,3350.1670256000943,None,"['b', 'u', 'd', 'd', 'y']",1,"[0.7561668998096138, 0.9000637999270111, 1.0280674998648465, 1.1800505998544395, 1.2441965998150408]",3350.1670256000943,None,3350.1670317401176,None,s283_02292024,001,2024-02-29_16h11.58.065,test_typingtask_norepeats,2020.2.10,59.97591368515809,
therm,therm,,,,,,,,,0,60,60,60,,,,,,,,,,,,,,,3355.6670607000124,None,"['t', 'h', 'e', 'r', 'm']",1,"[0.6400446000043303, 0.7521436000242829, 0.9280650999862701, 1.104051300091669, 1.2081195001956075]",3355.6670607000124,None,3355.667055839952,None,s283_02292024,001,2024-02-29_16h11.58.065,test_typingtask_norepeats,2020.2.10,59.97591368515809,
champ,champ,,,,,,,,,0,61,61,61,,,,,,,,,,,,,,,3361.1670890001114,None,"['c', 'h', 'a', 'm', 'p']",1,"[0.6439489000476897, 0.7639727999921888, 0.9239005001727492, 1.475950000109151, 1.6279445001855493]",3361.1670890001114,None,3361.167139140004,None,s283_02292024,001,2024-02-29_16h11.58.065,test_typingtask_norepeats,2020.2.10,59.97591368515809,
buddy,buddy,,,,,,,,,0,62,62,62,,,,,,,,,,,,,,,3366.6671233000234,None,"['b', 'u', 'd', 'd', 'y']",1,"[0.6719493998680264, 0.8479507998563349, 1.04005439998582, 1.231977199902758, 1.3440298000350595]",3366.6671233000234,None,3366.667157440027,None,s283_02292024,001,2024-02-29_16h11.58.065,test_typingtask_norepeats,2020.2.10,59.97591368515809,
pykka,pykka,,,,,,,,,0,63,63,63,,,,,,,,,,,,,,,3372.1671986000147,None,"['p', 'y', 'k', 'k', 'a']",1,"[0.8278636999893934, 1.004044600063935, 1.1640232000499964, 1.2918484001420438, 1.4278847000095993]",3372.1671986000147,None,3372.167200140003,None,s283_02292024,001,2024-02-29_16h11.58.065,test_typingtask_norepeats,2020.2.10,59.97591368515809,
heond,heond,,,,,,,,,0,64,64,64,,,,,,,,,,,,,,,3377.667214300018,None,"['h', 'e', 'o', 'n', 'd']",1,"[0.6238357000984251, 0.727808800060302, 0.8720368000213057, 0.9598730001598597, 1.0798873000312597]",3377.667214300018,None,3377.667215840006,None,s283_02292024,001,2024-02-29_16h11.58.065,test_typingtask_norepeats,2020.2.10,59.97591368515809,
vodka,vodka,,,,,,,,,0,65,65,65,,,,,,,,,,,,,,,3383.167244600132,None,"['v', 'o', 'd', 'k', 'a']",1,"[0.7959521999582648, 0.9718959999736398, 1.2758714000228792, 1.435736000072211, 1.5637760001700372]",3383.167244600132,None,3383.167248640023,3383.26724870014,s283_02292024,001,2024-02-29_16h11.58.065,test_typingtask_norepeats,2020.2.10,59.97591368515809,
vanru,vanru,,,,,,,,,0,66,66,66,,,,,,,,,,,,,,,3388.667281199945,None,"['v', 'a', 'n', 'r', 'u']",1,"[0.9117777000647038, 1.0398103999905288, 1.1356760999187827, 1.263744299998507, 1.3761114000808448]",3388.667281199945,None,3388.6673243400173,3388.7673126000445,s283_02292024,001,2024-02-29_16h11.58.065,test_typingtask_norepeats,2020.2.10,59.97591368515809,
vodka,vodka,,,,,,,,,0,67,67,67,,,,,,,,,,,,,,,3394.1673097000457,None,"['v', 'o', 'd', 'k', 'a']",1,"[0.803717799950391, 1.1158261001110077, 1.3397187001537532, 1.4996754000894725, 1.6598477000370622]",3394.1673097000457,None,3394.167350939987,3394.267306300113,s283_02292024,001,2024-02-29_16h11.58.065,test_typingtask_norepeats,2020.2.10,59.97591368515809,
lucky,lucky,,,,,,,,,0,68,68,68,,,,,,,,,,,,,,,3399.66734299995,None,"['l', 'u', 'c', 'k', 'y']",1,"[0.639684199821204, 0.8236552998423576, 1.191660099895671, 1.5436664998997003, 1.9276986999902874]",3399.66734299995,None,3399.667343739932,3399.767345600063,s283_02292024,001,2024-02-29_16h11.58.065,test_typingtask_norepeats,2020.2.10,59.97591368515809,
belly,belly,,,,,,,,,0,69,69,69,,,,,,,,,,,,,,,3405.167377799982,None,"['b', 'e', 'l', 'l', 'y']",1,"[0.6517116001341492, 0.7637225000653416, 0.8516179001890123, 0.9637316002044827, 1.0836896002292633]",3405.167377799982,None,3405.16737234015,3405.267371899914,s283_02292024,001,2024-02-29_16h11.58.065,test_typingtask_norepeats,2020.2.10,59.97591368515809,
about,about,,,,,,,,,0,70,70,70,,,,,,,,,,,,,,,3410.6673691999167,None,"['a', 'b', 'o', 'u', 't']",1,"[0.5677193000447005, 0.6638079001568258, 0.8078277001623064, 0.9596252001356333, 1.0396189000457525]",3410.6673691999167,None,3410.667423439957,3410.767361999955,s283_02292024,001,2024-02-29_16h11.58.065,test_typingtask_norepeats,2020.2.10,59.97591368515809,
theme,theme,,,,,,,,,0,71,71,71,,,,,,,,,,,,,,,3416.167460900033,None,"['t', 'h', 'e', 'm', 'e']",1,"[0.6435380999464542, 0.7315911999903619, 0.8596384001430124, 0.9636327000334859, 1.0354723001364619]",3416.167460900033,None,3416.167420839937,None,s283_02292024,001,2024-02-29_16h11.58.065,test_typingtask_norepeats,2020.2.10,59.97591368515809,
faqir,faqir,,,,,,,,,0,72,72,72,,,,,,,,,,,,,,,3421.6674659999553,None,"['f', 'a', 'q', 'i', 'r']",1,"[0.8396380001213402, 1.2075080999638885, 1.815633200109005, 2.423544100020081, 2.5356147000566125]",3421.6674659999553,None,3421.6674241400788,None,s283_02292024,001,2024-02-29_16h11.58.065,test_typingtask_norepeats,2020.2.10,59.97591368515809,
would,would,,,,,,,,,0,73,73,73,,,,,,,,,,,,,,,3427.1674890001304,None,"['w', 'o', 'u', 'l', 'd']",1,"[0.6595159000717103, 0.7556192001793534, 0.9395518000237644, 1.1076576001942158, 1.2034828001633286]",3427.1674890001304,None,3427.1674984400624,None,s283_02292024,001,2024-02-29_16h11.58.065,test_typingtask_norepeats,2020.2.10,59.97591368515809,
belly,belly,,,,,,,,,0,74,74,74,,,,,,,,,,,,,,,3432.667528799968,None,"['b', 'e', 'l', 'l', 'y']",1,"[0.6634855000302196, 0.7756499999668449, 0.8554384999442846, 0.9754037999082357, 1.0953705001156777]",3432.667528799968,None,3432.667529240064,None,s283_02292024,001,2024-02-29_16h11.58.065,test_typingtask_norepeats,2020.2.10,59.97591368515809,
there,there,,,,,,,,,0,75,75,75,,,,,,,,,,,,,,,3438.1675642000046,None,"['t', 'h', 'e', 'r', 'e']",1,"[0.651437200140208, 0.7477516999933869, 0.8513729001861066, 1.219394400017336, 1.3953732000663877]",3438.1675642000046,None,3438.1675663399974,None,s283_02292024,001,2024-02-29_16h11.58.065,test_typingtask_norepeats,2020.2.10,59.97591368515809,
tithe,tithe,,,,,,,,,0,76,76,76,,,,,,,,,,,,,,,3443.667737599928,None,"['t', 'i', 't', 'h', 'e']",1,"[0.7352260001935065, 0.8232925999909639, 0.9192000001203269, 1.0232573000248522, 1.135161700192839]",3443.667737599928,None,3443.667595139984,None,s283_02292024,001,2024-02-29_16h11.58.065,test_typingtask_norepeats,2020.2.10,59.97591368515809,
edthe,edthe,,,,,,,,,0,77,77,77,,,,,,,,,,,,,,,3449.1676052999683,None,"['e', 'd', 't', 'h', 'e']",1,"[0.6753839999437332, 0.851352899800986, 1.043420200003311, 1.1394139998592436, 1.235278599895537]",3449.1676052999683,None,3449.1676557399796,None,s283_02292024,001,2024-02-29_16h11.58.065,test_typingtask_norepeats,2020.2.10,59.97591368515809,
think,think,,,,,,,,,0,78,78,78,,,,,,,,,,,,,,,3454.667659800034,None,"['t', 'h', 'i', 'n', 'k']",1,"[0.7114260999951512, 0.8154283000621945, 0.9034291999414563, 1.0394129999913275, 1.1514678001403809]",3454.667659800034,None,3454.667653939966,None,s283_02292024,001,2024-02-29_16h11.58.065,test_typingtask_norepeats,2020.2.10,59.97591368515809,
vanru,vanru,,,,,,,,,0,79,79,79,,,,,,,,,,,,,,,3460.1676910000388,None,"['v', 'a', 'n', 'r', 'u']",1,"[0.8832896000239998, 0.9793343001510948, 1.1233135000802577, 1.2433301000855863, 1.3713116999715567]",3460.1676910000388,None,3460.1676797399296,None,s283_02292024,001,2024-02-29_16h11.58.065,test_typingtask_norepeats,2020.2.10,59.97591368515809,
edthe,edthe,,,,,,,,,0,80,80,80,,,,,,,,,,,,,,,3465.667677300051,None,"['e', 'd', 't', 'h', 'e']",1,"[0.6713437999133021, 0.8472737998235971, 1.0553339999169111, 1.1433541998267174, 1.23931650002487]",3465.667677300051,None,3465.66768113994,None,s283_02292024,001,2024-02-29_16h11.58.065,test_typingtask_norepeats,2020.2.10,59.97591368515809,
theme,theme,,,,,,,,,0,81,81,81,,,,,,,,,,,,,,,3471.167749900138,None,"['t', 'h', 'e', 'm', 'e']",1,"[0.6673356001265347, 0.7472536000423133, 0.8751340000890195, 0.9713000999763608, 1.0671512000262737]",3471.167749900138,None,3471.1677514401263,None,s283_02292024,001,2024-02-29_16h11.58.065,test_typingtask_norepeats,2020.2.10,59.97591368515809,
vodka,vodka,,,,,,,,,0,82,82,82,,,,,,,,,,,,,,,3476.6677381999325,None,"['v', 'o', 'd', 'k', 'a']",1,"[0.7512902000453323, 0.9433273000176996, 1.095174000132829, 1.2151427001226693, 1.335363799938932]",3476.6677381999325,None,3476.667781140003,None,s283_02292024,001,2024-02-29_16h11.58.065,test_typingtask_norepeats,2020.2.10,59.97591368515809,
about,about,,,,,,,,,0,83,83,83,,,,,,,,,,,,,,,3482.1677971000317,None,"['a', 'b', 'o', 'u', 't']",1,"[0.6674372998531908, 0.7391544999554753, 0.9232352999970317, 1.083111499901861, 1.1952829000074416]",3482.1677971000317,None,3482.1677645401096,None,s283_02292024,001,2024-02-29_16h11.58.065,test_typingtask_norepeats,2020.2.10,59.97591368515809,
would,would,,,,,,,,,0,84,84,84,,,,,,,,,,,,,,,3487.6678241000045,None,"['w', 'o', 'u', 'l', 'd']",1,"[0.6391253001056612, 0.7351679001003504, 0.9352818999905139, 1.143111300189048, 1.2471820001956075]",3487.6678241000045,None,3487.667835640069,None,s283_02292024,001,2024-02-29_16h11.58.065,test_typingtask_norepeats,2020.2.10,59.97591368515809,
cheer,cheer,,,,,,,,,0,85,85,85,,,,,,,,,,,,,,,3493.167846400058,None,"['c', 'h', 'e', 'e', 'r']",1,"[0.7231342000886798, 0.8191810001153499, 0.9631000000517815, 1.107124200090766, 1.2591001000255346]",3493.167846400058,None,3493.167870339984,None,s283_02292024,001,2024-02-29_16h11.58.065,test_typingtask_norepeats,2020.2.10,59.97591368515809,
druze,druze,,,,,,,,,0,86,86,86,,,,,,,,,,,,,,,3498.6679038000293,None,"['d', 'r', 'u', 'z', 'e']",1,"[0.8951051998883486, 1.086998299928382, 1.2311092000454664, 1.3673010999336839, 1.6151149000506848]",3498.6679038000293,None,3498.667914340086,None,s283_02292024,001,2024-02-29_16h11.58.065,test_typingtask_norepeats,2020.2.10,59.97591368515809,
lucky,lucky,,,,,,,,,0,87,87,87,,,,,,,,,,,,,,,3504.1679573000874,None,"['l', 'u', 'c', 'k', 'y']",1,"[0.746973600005731, 0.9469031000044197, 1.099065100075677, 1.2110659000463784, 1.4029115000739694]",3504.1679573000874,None,3504.167933339998,None,s283_02292024,001,2024-02-29_16h11.58.065,test_typingtask_norepeats,2020.2.10,59.97591368515809,
champ,champ,,,,,,,,,0,88,88,88,,,,,,,,,,,,,,,3509.667972699972,None,"['c', 'h', 'a', 'm', 'p']",1,"[0.6150750999804586, 0.7348822997882962, 0.878990099998191, 0.9829322998411953, 1.0948327998630702]",3509.667972699972,None,3509.667959339963,None,s283_02292024,001,2024-02-29_16h11.58.065,test_typingtask_norepeats,2020.2.10,59.97591368515809,
druze,druze,,,,,,,,,0,89,89,89,,,,,,,,,,,,,,,3515.167997899931,None,"['d', 'r', 'u', 'z', 'e']",1,"[0.8669185000471771, 1.0348686000797898, 1.179020999930799, 1.4029072001576424, 1.6109297999646515]",3515.167997899931,None,3515.168015739927,None,s283_02292024,001,2024-02-29_16h11.58.065,test_typingtask_norepeats,2020.2.10,59.97591368515809,
pykka,pykka,,,,,,,,,0,90,90,90,,,,,,,,,,,,,,,3520.6680252000224,None,"['p', 'y', 'l', 'k', 'k', 'a']",0,"[1.1268787998706102, 1.4309068999718875, 1.6790690999478102, 1.6790690999478102, 1.7828142999205738, 1.9749189999420196]",3520.6680252000224,None,3520.6679927399846,None,s283_02292024,001,2024-02-29_16h11.58.065,test_typingtask_norepeats,2020.2.10,59.97591368515809,
haole,haole,,,,,,,,,0,91,91,91,,,,,,,,,,,,,,,3526.1680674999952,None,"['h', 'a', 'o', 'l', 'e']",1,"[0.7308400000911206, 0.8028663999866694, 0.9229369000531733, 1.0747549999505281, 1.154779100092128]",3526.1680674999952,None,3526.168029240146,None,s283_02292024,001,2024-02-29_16h11.58.065,test_typingtask_norepeats,2020.2.10,59.97591368515809,
tithe,tithe,,,,,,,,,0,92,92,92,,,,,,,,,,,,,,,3531.6680588999297,None,"['t', 'i', 't', 'h', 'e']",1,"[0.6870421001221985, 0.8069629999808967, 0.8870072001591325, 1.0147870001383126, 1.1268052000086755]",3531.6680588999297,None,3531.6680972399654,None,s283_02292024,001,2024-02-29_16h11.58.065,test_typingtask_norepeats,2020.2.10,59.97591368515809,
think,think,,,,,,,,,0,93,93,93,,,,,,,,,,,,,,,3537.1681820999365,None,"['r', 't', 'h', 'i', 'n', 'k']",0,"[0.5946941000875086, 0.5946941000875086, 0.6586126999463886, 0.7788505000062287, 0.898675600066781, 1.0106864999979734]",3537.1681820999365,None,3537.1681201400233,None,s283_02292024,001,2024-02-29_16h11.58.065,test_typingtask_norepeats,2020.2.10,59.97591368515809,
theme,theme,,,,,,,,,0,94,94,94,,,,,,,,,,,,,,,3542.668162100017,None,"['t', 'h', 'e', 'm', 'e']",1,"[0.678737600101158, 0.7829042000230402, 0.9187062999699265, 1.0146682001650333, 1.11086990009062]",3542.668162100017,None,3542.668456340022,3542.768153199926,s283_02292024,001,2024-02-29_16h11.58.065,test_typingtask_norepeats,2020.2.10,59.97591368515809,
druze,druze,,,,,,,,,0,95,95,95,,,,,,,,,,,,,,,3548.168188699987,None,"['d', 'r', 'u', 'z', 'e']",1,"[0.6907132000196725, 0.874626100063324, 0.9946257001720369, 1.1387383001856506, 1.3466716001275927]",3548.168188699987,None,3548.168153940048,None,s283_02292024,001,2024-02-29_16h11.58.065,test_typingtask_norepeats,2020.2.10,59.97591368515809,
kremp,kremp,,,,,,,,,0,96,96,96,,,,,,,,,,,,,,,3553.668201700086,None,"['k', 'r', 'e', 'm', 'p']",1,"[0.8147513999138027, 0.926733500091359, 1.0946849999018013, 1.1827332999091595, 1.2787150999065489]",3553.668201700086,None,3553.668218140071,None,s283_02292024,001,2024-02-29_16h11.58.065,test_typingtask_norepeats,2020.2.10,59.97591368515809,
cooed,cooed,,,,,,,,,0,97,97,97,,,,,,,,,,,,,,,3559.168247099966,None,"['c', 'o', 'o', 'e', 'd']",1,"[0.6985909999348223, 0.7867203999776393, 0.9066632001195103, 1.0106480000540614, 1.1627491998951882]",3559.168247099966,None,3559.1682519400956,None,s283_02292024,001,2024-02-29_16h11.58.065,test_typingtask_norepeats,2020.2.10,59.97591368515809,
buddy,buddy,,,,,,,,,0,98,98,98,,,,,,,,,,,,,,,3564.668282300001,None,"['b', 'u', 'd', 'd', 'y']",1,"[0.6225914000533521, 0.766574600012973, 0.8626608999911696, 1.0066784999798983, 1.0626396001316607]",3564.668282300001,None,3564.6682863401247,None,s283_02292024,001,2024-02-29_16h11.58.065,test_typingtask_norepeats,2020.2.10,59.97591368515809,
faqir,faqir,,,,,,,,,0,99,99,99,,,,,,,,,,,,,,,3570.168312900001,None,"['f', 'a', 'q', 'i', 'r']",1,"[0.626565300161019, 0.9385009000543505, 1.1546623001340777, 1.6346779000014067, 1.7864970001392066]",3570.168312900001,None,3570.168308940064,None,s283_02292024,001,2024-02-29_16h11.58.065,test_typingtask_norepeats,2020.2.10,59.97591368515809,
belly,belly,,,,,,,,,0,100,100,100,,,,,,,,,,,,,,,3575.6684012000915,None,"['b', 'e', 'l', 'l', 'y']",1,"[0.5825814998243004, 0.694553199922666, 0.7984158999752253, 0.9343681000173092, 1.0705275998916477]",3575.6684012000915,None,3575.6683435400946,None,s283_02292024,001,2024-02-29_16h11.58.065,test_typingtask_norepeats,2020.2.10,59.97591368515809,
faqir,faqir,,,,,,,,,0,101,101,101,,,,,,,,,,,,,,,3581.1683539000805,None,"['f', 'a', 'q', 'i', 'r']",1,"[0.9625108998734504, 1.3225042999256402, 1.5865232998039573, 1.8505082000046968, 2.018478199839592]",3581.1683539000805,None,3581.1683809401466,None,s283_02292024,001,2024-02-29_16h11.58.065,test_typingtask_norepeats,2020.2.10,59.97591368515809,
puppy,puppy,,,,,,,,,0,102,102,102,,,,,,,,,,,,,,,3586.6684240000322,None,"['p', 'u', 'p', 'p', 'y']",1,"[0.7904314000625163, 1.0143852999899536, 1.1743401000276208, 1.3025352000258863, 1.4703910001553595]",3586.6684240000322,None,3586.6684064399915,None,s283_02292024,001,2024-02-29_16h11.58.065,test_typingtask_norepeats,2020.2.10,59.97591368515809,
cheer,cheer,,,,,,,,,0,103,103,103,,,,,,,,,,,,,,,3592.1684195001144,None,"['c', 'v', 'h', 'e', 'e', 'r']",0,"[0.6904541000258178, 0.6985565000213683, 0.7864322001114488, 0.9384636001195759, 1.090563900070265, 1.2425397001206875]",3592.1684195001144,None,3592.1684373401104,None,s283_02292024,001,2024-02-29_16h11.58.065,test_typingtask_norepeats,2020.2.10,59.97591368515809,
therm,therm,,,,,,,,,0,104,104,104,,,,,,,,,,,,,,,3597.668460499961,None,"['t', 'h', 'e', 'r', 'm']",1,"[0.5903942999430001, 0.6703870000783354, 0.7823757000733167, 0.9507035000715405, 1.0864436000119895]",3597.668460499961,None,3597.6684690400025,None,s283_02292024,001,2024-02-29_16h11.58.065,test_typingtask_norepeats,2020.2.10,59.97591368515809,
buddy,buddy,,,,,,,,,0,105,105,105,,,,,,,,,,,,,,,3603.168459299952,None,"['b', 'u', 'd', 'd', 'y']",1,"[0.7064775999169797, 0.8344864998944104, 0.9543188000097871, 1.1064341999590397, 1.194405699847266]",3603.168459299952,None,3603.168510139966,None,s283_02292024,001,2024-02-29_16h11.58.065,test_typingtask_norepeats,2020.2.10,59.97591368515809,
cooed,cooed,,,,,,,,,0,106,106,106,,,,,,,,,,,,,,,3608.6685087999795,None,"['c', 'o', 'o', 'e', 'd']",1,"[0.6623088999185711, 0.7823467999696732, 0.9184345998801291, 0.9983818000182509, 1.6063375000376254]",3608.6685087999795,None,3608.6685347401535,None,s283_02292024,001,2024-02-29_16h11.58.065,test_typingtask_norepeats,2020.2.10,59.97591368515809,
vanru,vanru,,,,,,,,,0,107,107,107,,,,,,,,,,,,,,,3614.1685288001318,None,"['v', 'a', 'n', 'r', 'u']",1,"[0.722360499901697, 0.8265154999680817, 0.9462884999811649, 1.3383078000042588, 1.4502818000037223]",3614.1685288001318,None,3614.1685621401293,None,s283_02292024,001,2024-02-29_16h11.58.065,test_typingtask_norepeats,2020.2.10,59.97591368515809,
therm,therm,,,,,,,,,0,108,108,108,,,,,,,,,,,,,,,3619.6686108000576,None,"['t', 'h', 'e', 'r', 'm']",1,"[0.5822134998161346, 0.6943334999959916, 0.8302110999356955, 0.9741400999482721, 1.070250199874863]",3619.6686108000576,None,3619.668597040046,None,s283_02292024,001,2024-02-29_16h11.58.065,test_typingtask_norepeats,2020.2.10,59.97591368515809,
cheer,cheer,,,,,,,,,0,109,109,109,,,,,,,,,,,,,,,3625.168625900056,None,"['c', 'h', 'e', 'e', 'r']",1,"[0.6743387999013066, 0.7942845998331904, 0.8981984998099506, 1.0422161999158561, 1.1941395998001099]",3625.168625900056,None,3625.1686427400446,3625.268594000023,s283_02292024,001,2024-02-29_16h11.58.065,test_typingtask_norepeats,2020.2.10,59.97591368515809,
tithe,tithe,,,,,,,,,0,110,110,110,,,,,,,,,,,,,,,3630.6686668000184,None,"['t', 'i', 't', 'h', 'e']",1,"[0.7181534999981523, 0.8382800000254065, 0.9262197001371533, 1.070266199996695, 1.1502146001439542]",3630.6686668000184,None,3630.6686613399534,None,s283_02292024,001,2024-02-29_16h11.58.065,test_typingtask_norepeats,2020.2.10,59.97591368515809,
there,there,,,,,,,,,0,111,111,111,,,,,,,,,,,,,,,3636.1686982000247,None,"['t', 'h', 'e', 'r', 'e']",1,"[0.7621591999195516, 0.8580887999851257, 1.010095200035721, 1.1781202999409288, 1.338097299914807]",3636.1686982000247,None,3636.168701640144,3636.268694499973,s283_02292024,001,2024-02-29_16h11.58.065,test_typingtask_norepeats,2020.2.10,59.97591368515809,
tithe,tithe,,,,,,,,,0,112,112,112,,,,,,,,,,,,,,,3641.668716999935,None,"['t', 'i', 't', 'h', 'e']",1,"[0.7181029999628663, 0.8141091999132186, 0.9020895999856293, 1.0301254999358207, 1.1020789998583496]",3641.668716999935,None,3641.6687403400892,3641.768734900048,s283_02292024,001,2024-02-29_16h11.58.065,test_typingtask_norepeats,2020.2.10,59.97591368515809,
zibja,zibja,,,,,,,,,0,113,113,113,,,,,,,,,,,,,,,3647.1687584000174,None,"['z', 'i', 'n', 'j', 'a']",0,"[1.1060643999371678, 1.2980291999410838, 1.4180791999679059, 2.298026599921286, 2.4262037998996675]",3647.1687584000174,None,3647.1687724399844,3647.268764199922,s283_02292024,001,2024-02-29_16h11.58.065,test_typingtask_norepeats,2020.2.10,59.97591368515809,
vodka,vodka,,,,,,,,,0,114,114,114,,,,,,,,,,,,,,,3652.668750700075,None,"['v', 'o', 'd', 'k', 'a']",1,"[0.7500368000473827, 0.9581502000801265, 1.1340721000451595, 1.42203289992176, 1.5821400000713766]",3652.668750700075,None,3652.6688080400227,None,s283_02292024,001,2024-02-29_16h11.58.065,test_typingtask_norepeats,2020.2.10,59.97591368515809,
kremp,kremp,,,,,,,,,0,115,115,115,,,,,,,,,,,,,,,3658.168779599946,None,"['k', 'r', 'e', 'm', 'o', 'p']",0,"[0.8739508998114616, 0.9700962000060827, 1.122115499805659, 1.2181545000057667, 1.3780873999930918, 1.3859808000270277]",3658.168779599946,None,3658.1688546401447,None,s283_02292024,001,2024-02-29_16h11.58.065,test_typingtask_norepeats,2020.2.10,59.97591368515809,
cheer,cheer,,,,,,,,,0,116,116,116,,,,,,,,,,,,,,,3663.668820100138,None,"['c', 'h', 'e', 'e', 'r']",1,"[0.5819848999381065, 0.7179147000424564, 0.8219463999848813, 0.9579549999907613, 1.1100522000342607]",3663.668820100138,None,3663.668878739979,None,s283_02292024,001,2024-02-29_16h11.58.065,test_typingtask_norepeats,2020.2.10,59.97591368515809,
therm,therm,,,,,,,,,0,117,117,117,,,,,,,,,,,,,,,3669.168845300097,None,"['t', 'h', 'e', 'r', 'm']",1,"[0.6579394000582397, 0.7538999000098556, 0.8821076001040637, 1.0422030999325216, 1.1300449999980628]",3669.168845300097,None,3669.1688510401173,None,s283_02292024,001,2024-02-29_16h11.58.065,test_typingtask_norepeats,2020.2.10,59.97591368515809,
faqir,faqir,,,,,,,,,0,118,118,118,,,,,,,,,,,,,,,3674.6688820999116,None,"['f', 'a', 'q', 'i', 'r']",1,"[0.7740109001751989, 1.149914599955082, 1.3658857000991702, 1.558009000029415, 1.6698639001697302]",3674.6688820999116,None,3674.668943740008,None,s283_02292024,001,2024-02-29_16h11.58.065,test_typingtask_norepeats,2020.2.10,59.97591368515809,
tithe,tithe,,,,,,,,,0,119,119,119,,,,,,,,,,,,,,,3680.1689202000853,None,"['t', 'i', 't', 'h', 'e']",1,"[0.6658530000131577, 0.7778018000535667, 0.8579675999935716, 1.0099593000486493, 1.0978759001009166]",3680.1689202000853,None,3680.168956340104,None,s283_02292024,001,2024-02-29_16h11.58.065,test_typingtask_norepeats,2020.2.10,59.97591368515809,
