string,corrAns,practice_trials.thisRepN,practice_trials.thisTrialN,practice_trials.thisN,practice_trials.thisIndex,trials_1.thisRepN,trials_1.thisTrialN,trials_1.thisN,trials_1.thisIndex,trials_2.thisRepN,trials_2.thisTrialN,trials_2.thisN,trials_2.thisIndex,key_resp_0.keys,key_resp_0.corr,key_resp_0.rt,text_1.started,text_1.stopped,key_resp_1.keys,key_resp_1.corr,key_resp_1.rt,key_resp_1.started,key_resp_1.stopped,sound_1A_1.started,sound_1A_1.stopped,break_time.started,break_time.stopped,text_2.started,text_2.stopped,key_resp_2.keys,key_resp_2.corr,key_resp_2.rt,key_resp_2.started,key_resp_2.stopped,sound_1A_2.started,sound_1A_2.stopped,participant,session,date,expName,psychopyVersion,frameRate,
fresh,fresh,0,0,0,0,,,,,,,,,"['f', 'r', 'e', 's', 'h']",1,"[1.1875999001786113, 1.7317148000001907, 1.9555901000276208, 2.187568800058216, 2.339567400049418]",,,,,,,,,,,,,,,,,,,,,s286_03082024,001,2024-03-08_12h28.24.262,test_typingtask_norepeats,2020.2.10,59.976992845859094,
dream,dream,0,1,1,1,,,,,,,,,"['d', 'r', 'e', 'a', 'm']",1,"[1.2156210001558065, 1.5355879003182054, 1.7676396002061665, 1.999675900209695, 2.143587900325656]",,,,,,,,,,,,,,,,,,,,,s286_03082024,001,2024-03-08_12h28.24.262,test_typingtask_norepeats,2020.2.10,59.976992845859094,
slime,slime,0,2,2,2,,,,,,,,,"['s', 'l', 'i', 'm', 'e']",1,"[1.1075384002178907, 1.2275025001727045, 1.4595731003209949, 1.651626800186932, 1.7715200004167855]",,,,,,,,,,,,,,,,,,,,,s286_03082024,001,2024-03-08_12h28.24.262,test_typingtask_norepeats,2020.2.10,59.976992845859094,
about,about,,,,,0,0,0,0,,,,,,,,2354.8473188998178,None,"['a', 'b', 'o', 'u', 't']",1,"[1.4116344000212848, 1.547416599933058, 1.771540000103414, 2.019444600213319, 2.187449499964714]",2354.8473188998178,None,2354.8464969600086,2354.9466101001017,,,,,,,,,,,,s286_03082024,001,2024-03-08_12h28.24.262,test_typingtask_norepeats,2020.2.10,59.976992845859094,
pykka,pykka,,,,,0,1,1,1,,,,,,,,2360.3466257001273,None,"['p', 'y', 'k', 'k', 'a', 'space']",0,"[0.8961732001043856, 1.2402011998929083, 2.056138699874282, 2.200531499926001, 2.3362770001403987, 2.9041416998952627]",2360.3466257001273,None,2360.3465141601396,None,,,,,,,,,,,,s286_03082024,001,2024-03-08_12h28.24.262,test_typingtask_norepeats,2020.2.10,59.976992845859094,
lucky,lucky,,,,,0,2,2,2,,,,,,,,2365.8466162001714,None,"['l', 'u', 'c', 'k', 'y']",1,"[1.0041565001010895, 1.2681360999122262, 1.4361375998705626, 1.5881627998314798, 1.8522298000752926]",2365.8466162001714,None,2365.8465361598414,None,,,,,,,,,,,,s286_03082024,001,2024-03-08_12h28.24.262,test_typingtask_norepeats,2020.2.10,59.976992845859094,
there,there,,,,,0,3,3,3,,,,,,,,2371.3466471000575,None,"['t', 'h', 'e', 'r', 'e']",1,"[0.8321177000179887, 0.9440681003034115, 1.0961160003207624, 1.3122090003453195, 1.496047000400722]",2371.3466471000575,None,2371.346553959744,None,,,,,,,,,,,,s286_03082024,001,2024-03-08_12h28.24.262,test_typingtask_norepeats,2020.2.10,59.976992845859094,
druze,druze,,,,,0,4,4,4,,,,,,,,2376.8467064998113,None,"['d', 'r', 'u', 'z', 'e']",1,"[0.9240537998266518, 1.1400422998704016, 1.2921365997754037, 1.6280200998298824, 1.9080309998244047]",2376.8467064998113,None,2376.846583359735,None,,,,,,,,,,,,s286_03082024,001,2024-03-08_12h28.24.262,test_typingtask_norepeats,2020.2.10,59.976992845859094,
about,about,,,,,0,5,5,5,,,,,,,,2382.3467276999727,None,"['a', 'b', 'o', 'u', 't']",1,"[0.9200332998298109, 1.0641422998160124, 1.4080031998455524, 1.663991100154817, 1.7680795001797378]",2382.3467276999727,None,2382.3466036597733,None,,,,,,,,,,,,s286_03082024,001,2024-03-08_12h28.24.262,test_typingtask_norepeats,2020.2.10,59.976992845859094,
pykka,pykka,,,,,0,6,6,6,,,,,,,,2387.846748500131,None,"['p', 'y', 'k', 'k', 'a']",1,"[1.1799965999089181, 1.5239813001826406, 1.9079791000112891, 2.059976499993354, 2.1799836000427604]",2387.846748500131,None,2387.846627159836,None,,,,,,,,,,,,s286_03082024,001,2024-03-08_12h28.24.262,test_typingtask_norepeats,2020.2.10,59.976992845859094,
cooed,cooed,,,,,0,7,7,7,,,,,,,,2393.3467934001237,None,"['c', 'o', 'o', 'e', 'd']",1,"[0.9439515001140535, 1.127910400275141, 1.2800527000799775, 1.4480306999757886, 1.6800537002272904]",2393.3467934001237,None,2393.346653160034,None,,,,,,,,,,,,s286_03082024,001,2024-03-08_12h28.24.262,test_typingtask_norepeats,2020.2.10,59.976992845859094,
faqir,faqir,,,,,0,8,8,8,,,,,,,,2398.846808599774,None,"['f', 'a', 'q', 'u', 'i', 'r']",0,"[1.31599080003798, 1.7958857999183238, 2.0520441997796297, 2.236033800058067, 2.4439211999997497, 2.5558625999838114]",2398.846808599774,None,2398.84667236018,None,,,,,,,,,,,,s286_03082024,001,2024-03-08_12h28.24.262,test_typingtask_norepeats,2020.2.10,59.976992845859094,
buddy,buddy,,,,,0,9,9,9,,,,,,,,2404.3468236997724,None,"['b', 'u', 'd', 'd', 'y']",1,"[0.8399145002476871, 1.0640102000907063, 1.2719872002489865, 1.463928600307554, 1.551911300048232]",2404.3468236997724,None,2404.346698659798,None,,,,,,,,,,,,s286_03082024,001,2024-03-08_12h28.24.262,test_typingtask_norepeats,2020.2.10,59.976992845859094,
cheer,cheer,,,,,0,10,10,10,,,,,,,,2409.8468345999718,None,"['c', 'h', 'e', 'e', 'r']",1,"[1.1078935000114143, 1.3078713999129832, 1.4919572998769581, 1.7080276999622583, 1.9158600997179747]",2409.8468345999718,None,2409.8467202599627,None,,,,,,,,,,,,s286_03082024,001,2024-03-08_12h28.24.262,test_typingtask_norepeats,2020.2.10,59.976992845859094,
haole,haole,,,,,0,11,11,11,,,,,,,,2415.3468244997784,None,"['h', 'a', 'o', 'l', 'e']",1,"[1.0079155000858009, 1.127868500072509, 1.2959620002657175, 1.5278411000035703, 1.6239563999697566]",2415.3468244997784,None,2415.3467498597224,None,,,,,,,,,,,,s286_03082024,001,2024-03-08_12h28.24.262,test_typingtask_norepeats,2020.2.10,59.976992845859094,
therm,therm,,,,,0,12,12,12,,,,,,,,2420.846847699955,None,"['t', 'h', 'e', 'r', 'm']",1,"[0.8679078998975456, 1.0839276001788676, 1.3878235002048314, 1.963867800310254, 2.1238814000971615]",2420.846847699955,None,2420.8467682598625,None,,,,,,,,,,,,s286_03082024,001,2024-03-08_12h28.24.262,test_typingtask_norepeats,2020.2.10,59.976992845859094,
vanru,vanru,,,,,0,13,13,13,,,,,,,,2426.346910700202,None,"['v', 'a', 'n', 'r', 'u']",1,"[0.9998178998939693, 1.319932899903506, 1.527784800156951, 1.8078091000206769, 1.959781600162387]",2426.346910700202,None,2426.3467567598914,2426.4469205997884,,,,,,,,,,,,s286_03082024,001,2024-03-08_12h28.24.262,test_typingtask_norepeats,2020.2.10,59.976992845859094,
about,about,,,,,0,14,14,14,,,,,,,,2431.8469304000027,None,"['a', 'b', 'o', 'u', 't']",1,"[0.9158095000311732, 0.9879216002300382, 1.2038800003938377, 1.4357445002533495, 1.5558857000432909]",2431.8469304000027,None,2431.8467819600833,None,,,,,,,,,,,,s286_03082024,001,2024-03-08_12h28.24.262,test_typingtask_norepeats,2020.2.10,59.976992845859094,
kremp,kremp,,,,,0,15,15,15,,,,,,,,2437.3469282998703,None,"['k', 'r', 'e', 'm', 'p']",1,"[0.8798058000393212, 1.0077831000089645, 1.2237436999566853, 1.3117613000795245, 1.4957892000675201]",2437.3469282998703,None,2437.3468431600836,None,,,,,,,,,,,,s286_03082024,001,2024-03-08_12h28.24.262,test_typingtask_norepeats,2020.2.10,59.976992845859094,
pykka,pykka,,,,,0,16,16,16,,,,,,,,2442.846989599988,None,"['p', 'y', 'k', 'k', 'a']",1,"[0.9957311996258795, 1.3317065997980535, 1.6838818998076022, 1.8198158000595868, 1.9637351999990642]",2442.846989599988,None,2442.8468605599833,None,,,,,,,,,,,,s286_03082024,001,2024-03-08_12h28.24.262,test_typingtask_norepeats,2020.2.10,59.976992845859094,
zibja,zibja,,,,,0,17,17,17,,,,,,,,2448.347010300029,None,"['z', 'i', 'b', 'j', 'a']",1,"[1.9356820997782052, 2.0798579999245703, 2.3437656997703016, 2.919670599978417, 3.095679699908942]",2448.347010300029,None,2448.346890659863,2448.447006000206,,,,,,,,,,,,s286_03082024,001,2024-03-08_12h28.24.262,test_typingtask_norepeats,2020.2.10,59.976992845859094,
puppy,puppy,,,,,0,18,18,18,,,,,,,,2453.847034300212,None,"['p', 'u', 'p', 'p', 'y']",1,"[0.8356901998631656, 1.1956189000047743, 1.5076179997995496, 1.6596332001499832, 1.7636325997300446]",2453.847034300212,None,2453.846907859994,None,,,,,,,,,,,,s286_03082024,001,2024-03-08_12h28.24.262,test_typingtask_norepeats,2020.2.10,59.976992845859094,
there,there,,,,,0,19,19,19,,,,,,,,2459.347058999818,None,"['t', 'h', 'e', 'r', 'e']",1,"[1.015617599710822, 1.1355823995545506, 1.3275957996957004, 1.527565499767661, 1.6956212995573878]",2459.347058999818,None,2459.3469215597493,None,,,,,,,,,,,,s286_03082024,001,2024-03-08_12h28.24.262,test_typingtask_norepeats,2020.2.10,59.976992845859094,
buddy,buddy,,,,,0,20,20,20,,,,,,,,2464.8470760998316,None,"['b', 'u', 'd', 'd', 'y']",1,"[0.8356290003284812, 1.051706500351429, 1.235509400255978, 1.3876877003349364, 1.4996589003130794]",2464.8470760998316,None,2464.8469302601648,None,,,,,,,,,,,,s286_03082024,001,2024-03-08_12h28.24.262,test_typingtask_norepeats,2020.2.10,59.976992845859094,
lucky,lucky,,,,,0,21,21,21,,,,,,,,2470.347109899856,None,"['l', 'u', 'c', 'k', 'k', 'y']",0,"[0.9115691999904811, 1.1675994000397623, 1.31963080028072, 1.4795438000001013, 2.1595680001191795, 2.3036660002544522]",2470.347109899856,None,2470.346984559996,None,,,,,,,,,,,,s286_03082024,001,2024-03-08_12h28.24.262,test_typingtask_norepeats,2020.2.10,59.976992845859094,
there,there,,,,,0,22,22,22,,,,,,,,2475.8471392001957,None,"['t', 'h', 'e', 'r', 'e']",1,"[0.8115392997860909, 0.9235204001888633, 1.0835851998999715, 1.291614499874413, 1.4675074997358024]",2475.8471392001957,None,2475.8469809599687,None,,,,,,,,,,,,s286_03082024,001,2024-03-08_12h28.24.262,test_typingtask_norepeats,2020.2.10,59.976992845859094,
champ,champ,,,,,0,23,23,23,,,,,,,,2481.347149199806,None,"['c', 'h', 'a', 'm', 'p']",1,"[0.8955198996700346, 0.9915618998929858, 1.2235073996707797, 1.3997924998402596, 1.6795032997615635]",2481.347149199806,None,2481.347007760173,None,,,,,,,,,,,,s286_03082024,001,2024-03-08_12h28.24.262,test_typingtask_norepeats,2020.2.10,59.976992845859094,
puppy,puppy,,,,,0,24,24,24,,,,,,,,2486.8471474000253,None,"['p', 'u', 'p', 'p', 'y']",1,"[0.8115098997950554, 1.131620700005442, 1.4194960999302566, 1.6515110996551812, 1.7555488999933004]",2486.8471474000253,None,2486.8470276597423,None,,,,,,,,,,,,s286_03082024,001,2024-03-08_12h28.24.262,test_typingtask_norepeats,2020.2.10,59.976992845859094,
there,there,,,,,0,25,25,25,,,,,,,,2492.3472051001154,None,"['t', 'h', 'e', 'r', 'e']",1,"[0.9674593000672758, 1.1194261000491679, 1.2714030002243817, 1.503488800022751, 1.8154390002600849]",2492.3472051001154,None,2492.3470471597743,None,,,,,,,,,,,,s286_03082024,001,2024-03-08_12h28.24.262,test_typingtask_norepeats,2020.2.10,59.976992845859094,
haole,haole,,,,,0,26,26,26,,,,,,,,2497.8472112999298,None,"['h', 'a', 'o', 'l', 'e']",1,"[0.8594797002151608, 1.075409000273794, 1.2835836000740528, 1.5314182001166046, 1.6755704004317522]",2497.8472112999298,None,2497.847119659977,None,,,,,,,,,,,,s286_03082024,001,2024-03-08_12h28.24.262,test_typingtask_norepeats,2020.2.10,59.976992845859094,
vanru,vanru,,,,,0,27,27,27,,,,,,,,2503.347257600166,None,"['v', 'a', 'n', 'r', 'u']",1,"[0.8555923001840711, 1.0233972002752125, 1.1353604001924396, 1.359366700053215, 1.4873680002056062]",2503.347257600166,None,2503.3471454599407,None,,,,,,,,,,,,s286_03082024,001,2024-03-08_12h28.24.262,test_typingtask_norepeats,2020.2.10,59.976992845859094,
tithe,tithe,,,,,0,28,28,28,,,,,,,,2508.8473056000657,None,"['t', 'i', 't', 'h', 'e']",1,"[0.963357999920845, 1.1073104999959469, 1.2673030002042651, 1.4113917001523077, 1.6194374999031425]",2508.8473056000657,None,2508.8471644598526,None,,,,,,,,,,,,s286_03082024,001,2024-03-08_12h28.24.262,test_typingtask_norepeats,2020.2.10,59.976992845859094,
lucky,lucky,,,,,0,29,29,29,,,,,,,,2514.347318700049,None,"['l', 'u', 'c', 'k', 'y']",1,"[0.8633258999325335, 1.1433544997125864, 1.2713711000978947, 1.3833592999726534, 1.5834177997894585]",2514.347318700049,None,2514.3471809600946,None,,,,,,,,,,,,s286_03082024,001,2024-03-08_12h28.24.262,test_typingtask_norepeats,2020.2.10,59.976992845859094,
champ,champ,,,,,0,30,30,30,,,,,,,,2519.847337400075,None,"['h', 'c', 'm', 'a', 'p']",0,"[0.9392893998883665, 1.027360700070858, 1.2432782002724707, 1.379250600002706, 1.547346199862659]",2519.847337400075,None,2519.8472118599807,2519.947331899777,,,,,,,,,,,,s286_03082024,001,2024-03-08_12h28.24.262,test_typingtask_norepeats,2020.2.10,59.976992845859094,
think,think,,,,,0,31,31,31,,,,,,,,2525.347327900119,None,"['t', 'h', 'i', 'n', 'k']",1,"[0.8553038001991808, 0.9992979001253843, 1.2713063000701368, 1.5435166000388563, 1.7513764002360404]",2525.347327900119,None,2525.347227159748,None,,,,,,,,,,,,s286_03082024,001,2024-03-08_12h28.24.262,test_typingtask_norepeats,2020.2.10,59.976992845859094,
puppy,puppy,,,,,0,32,32,32,,,,,,,,2530.8473418001086,None,"['p', 'u', 'p', 'p', 'y']",1,"[0.9072896996513009, 1.2353143999353051, 1.5152515997178853, 1.6832701996900141, 1.7873439998365939]",2530.8473418001086,None,2530.8472594598775,None,,,,,,,,,,,,s286_03082024,001,2024-03-08_12h28.24.262,test_typingtask_norepeats,2020.2.10,59.976992845859094,
zibja,zibja,,,,,0,33,33,33,,,,,,,,2536.3474091999233,None,"['z', 'i', 'b', 'j', 'a']",1,"[1.6072159996256232, 1.7593636997044086, 2.0152289997786283, 2.3432173999026418, 2.5192961995489895]",2536.3474091999233,None,2536.3472915597727,None,,,,,,,,,,,,s286_03082024,001,2024-03-08_12h28.24.262,test_typingtask_norepeats,2020.2.10,59.976992845859094,
vodka,vodka,,,,,0,34,34,34,,,,,,,,2541.847403699998,None,"['v', 'o', 'd', 'k', 'a']",1,"[1.163217400200665, 1.2993344003334641, 1.4831668003462255, 1.8511793999932706, 2.011187500320375]",2541.847403699998,None,2541.8473175599706,None,,,,,,,,,,,,s286_03082024,001,2024-03-08_12h28.24.262,test_typingtask_norepeats,2020.2.10,59.976992845859094,
druze,druze,,,,,0,35,35,35,,,,,,,,2547.3474495997652,None,"['d', 'r', 'u', 'z', 'e']",1,"[1.1911507998593152, 1.4231480001471937, 1.5431389999575913, 1.9431301997974515, 2.2311595999635756]",2547.3474495997652,None,2547.3473468598445,None,,,,,,,,,,,,s286_03082024,001,2024-03-08_12h28.24.262,test_typingtask_norepeats,2020.2.10,59.976992845859094,
heond,heond,,,,,0,36,36,36,,,,,,,,2552.8474465999752,None,"['h', 'e', 'o', 'n', 'd']",1,"[0.8511709999293089, 1.0512429000809789, 1.1391361998394132, 1.371145499870181, 1.5233070002868772]",2552.8474465999752,None,2552.847328760056,None,,,,,,,,,,,,s286_03082024,001,2024-03-08_12h28.24.262,test_typingtask_norepeats,2020.2.10,59.976992845859094,
cheer,cheer,,,,,0,37,37,37,,,,,,,,2558.347504899837,None,"['c', 'c', 'h', 'e', 'e', 'r']",0,"[0.8310986999422312, 1.063102399930358, 1.2471847999840975, 1.4471162999980152, 1.6552424998953938, 1.8710902999155223]",2558.347504899837,None,2558.347397160111,None,,,,,,,,,,,,s286_03082024,001,2024-03-08_12h28.24.262,test_typingtask_norepeats,2020.2.10,59.976992845859094,
think,think,,,,,0,38,38,38,,,,,,,,2563.847549700178,None,"['y', 'backspace', 't', 'h', 'i', 'n', 'k']",0,"[0.9950886000879109, 1.7152011999860406, 1.9310854002833366, 2.0829904000274837, 2.2830460001714528, 2.4830161002464592, 2.643155200406909]",2563.847549700178,None,2563.847458859766,None,,,,,,,,,,,,s286_03082024,001,2024-03-08_12h28.24.262,test_typingtask_norepeats,2020.2.10,59.976992845859094,
would,would,,,,,0,39,39,39,,,,,,,,2569.3475589999,None,"['w', 'o', 'u', 'l', 'd']",1,"[1.0310399001464248, 1.1270853001624346, 1.3510726001113653, 1.5750247999094427, 1.6710434001870453]",2569.3475589999,None,2569.347447759798,None,,,,,,,,,,,,s286_03082024,001,2024-03-08_12h28.24.262,test_typingtask_norepeats,2020.2.10,59.976992845859094,
vanru,vanru,,,,,0,40,40,40,,,,,,,,2574.847591899801,None,"['v', 'a', 'n', 'r', 'u']",1,"[0.9309884002432227, 1.067000700160861, 1.1790573000907898, 1.3790988000109792, 1.4669940997846425]",2574.847591899801,None,2574.84746775995,None,,,,,,,,,,,,s286_03082024,001,2024-03-08_12h28.24.262,test_typingtask_norepeats,2020.2.10,59.976992845859094,
heond,heond,,,,,0,41,41,41,,,,,,,,2580.3476379001513,None,"['h', 'e', 'o', 'n', 'd']",1,"[0.8149080001749098, 0.9829510003328323, 1.5669249999336898, 1.8149006003513932, 1.9829023000784218]",2580.3476379001513,None,2580.3474552597386,None,,,,,,,,,,,,s286_03082024,001,2024-03-08_12h28.24.262,test_typingtask_norepeats,2020.2.10,59.976992845859094,
zibja,zibja,,,,,0,42,42,42,,,,,,,,2585.8476042998955,None,"['z', 'i', 'b', 'j', 'a']",1,"[1.2509678001515567, 1.3549759997986257, 1.5869533997029066, 1.7710706000216305, 1.9229361996985972]",2585.8476042998955,None,2585.8475208597724,None,,,,,,,,,,,,s286_03082024,001,2024-03-08_12h28.24.262,test_typingtask_norepeats,2020.2.10,59.976992845859094,
edthe,edthe,,,,,0,43,43,43,,,,,,,,2591.3476696000434,None,"['e', 'd', 't', 'h', 'e']",1,"[0.9269170998595655, 1.158926900010556, 1.2709840000607073, 1.5108909998089075, 1.5908778999000788]",2591.3476696000434,None,2591.347551760124,None,,,,,,,,,,,,s286_03082024,001,2024-03-08_12h28.24.262,test_typingtask_norepeats,2020.2.10,59.976992845859094,
druze,druze,,,,,0,44,44,44,,,,,,,,2596.847675399855,None,"['d', 'r', 'u', 'z', 'e']",1,"[0.9308862998150289, 1.1789583000354469, 1.346961900126189, 1.5869016000069678, 1.8509052000008523]",2596.847675399855,None,2596.8475747600664,None,,,,,,,,,,,,s286_03082024,001,2024-03-08_12h28.24.262,test_typingtask_norepeats,2020.2.10,59.976992845859094,
buddy,buddy,,,,,0,45,45,45,,,,,,,,2602.3476999998093,None,"['b', 'u', 'd', 'd', 'y']",1,"[0.7748564998619258, 0.9748623999767005, 1.1347820996306837, 1.3188511999323964, 1.3909733998589218]",2602.3476999998093,None,2602.3475785598625,None,,,,,,,,,,,,s286_03082024,001,2024-03-08_12h28.24.262,test_typingtask_norepeats,2020.2.10,59.976992845859094,
belly,belly,,,,,0,46,46,46,,,,,,,,2607.8477268000133,None,"['b', 'e', 'l', 'l', 'y']",1,"[0.7628247998654842, 0.9548375001177192, 1.0988139999099076, 1.242938700132072, 1.3627566001378]",2607.8477268000133,None,2607.847608560091,None,,,,,,,,,,,,s286_03082024,001,2024-03-08_12h28.24.262,test_typingtask_norepeats,2020.2.10,59.976992845859094,
faqir,faqir,,,,,0,47,47,47,,,,,,,,2613.3477361002006,None,"['f', 'a', 'q', 'u', 'i', 'r']",0,"[0.9188195001333952, 1.5187971000559628, 1.7827901998534799, 1.8868650002405047, 2.0628748000599444, 2.2228872003033757]",2613.3477361002006,None,2613.347640459752,None,,,,,,,,,,,,s286_03082024,001,2024-03-08_12h28.24.262,test_typingtask_norepeats,2020.2.10,59.976992845859094,
tithe,tithe,,,,,0,48,48,48,,,,,,,,2618.847821599804,None,"['t', 'h', 't', 'h', 'e']",0,"[0.7947677997872233, 1.0586888999678195, 2.2347180997021496, 2.3550294996239245, 2.546816899906844]",2618.847821599804,None,2618.847653559735,None,,,,,,,,,,,,s286_03082024,001,2024-03-08_12h28.24.262,test_typingtask_norepeats,2020.2.10,59.976992845859094,
would,would,,,,,0,49,49,49,,,,,,,,2624.348154100124,None,"['w', 'o', 'u', 'l', 'd']",1,"[1.1345197996124625, 1.2224002997390926, 1.4544453998096287, 1.7023397996090353, 1.8064846997149289]",2624.348154100124,None,2624.3477243598086,None,,,,,,,,,,,,s286_03082024,001,2024-03-08_12h28.24.262,test_typingtask_norepeats,2020.2.10,59.976992845859094,
tithe,tithe,,,,,0,50,50,50,,,,,,,,2629.847859099973,None,"['t', 'i', 't', 'h', 'e']",1,"[0.8826653002761304, 0.994684100151062, 1.1786484001204371, 1.3068907000124454, 1.522618000395596]",2629.847859099973,None,2629.8477311598604,None,,,,,,,,,,,,s286_03082024,001,2024-03-08_12h28.24.262,test_typingtask_norepeats,2020.2.10,59.976992845859094,
heond,heond,,,,,0,51,51,51,,,,,,,,2635.347933100071,None,"['h', 'e', 'o', 'n', 'd']",1,"[0.7505965000018477, 0.8945459998212755, 1.0065287998877466, 1.1985307997092605, 1.3185322997160256]",2635.347933100071,None,2635.347758859722,None,,,,,,,,,,,,s286_03082024,001,2024-03-08_12h28.24.262,test_typingtask_norepeats,2020.2.10,59.976992845859094,
would,would,,,,,0,52,52,52,,,,,,,,2640.8479034998454,None,"['w', 'o', 'u', 'l', 'd']",1,"[0.8986176000908017, 0.9946061000227928, 1.242557399906218, 1.5067012002691627, 1.5946031999774277]",2640.8479034998454,None,2640.847743260069,2640.9479085002095,,,,,,,,,,,,s286_03082024,001,2024-03-08_12h28.24.262,test_typingtask_norepeats,2020.2.10,59.976992845859094,
vanru,vanru,,,,,0,53,53,53,,,,,,,,2646.3479188000783,None,"['v', 'a', 'n', 'r', 'u']",1,"[0.8626072998158634, 1.0705574001185596, 1.1506325001828372, 1.422615900170058, 1.5265919999219477]",2646.3479188000783,None,2646.3478239601013,2646.447925799992,,,,,,,,,,,,s286_03082024,001,2024-03-08_12h28.24.262,test_typingtask_norepeats,2020.2.10,59.976992845859094,
belly,belly,,,,,0,54,54,54,,,,,,,,2651.8479712000117,None,"['b', 'e', 'l', 'l', 'y']",1,"[0.7705459999851882, 0.93859519995749, 1.114478399977088, 1.7065507997758687, 1.850498199928552]",2651.8479712000117,None,2651.84780625985,2651.9479629998095,,,,,,,,,,,,s286_03082024,001,2024-03-08_12h28.24.262,test_typingtask_norepeats,2020.2.10,59.976992845859094,
zibja,zibja,,,,,0,55,55,55,,,,,,,,2657.347957899794,None,"['z', 'i', 'b', 'j', 'a']",1,"[1.1506162998266518, 1.3025821996852756, 1.5265147997997701, 1.7425143998116255, 1.8945204000920057]",2657.347957899794,None,2657.3478656600696,2657.447975799907,,,,,,,,,,,,s286_03082024,001,2024-03-08_12h28.24.262,test_typingtask_norepeats,2020.2.10,59.976992845859094,
theme,theme,,,,,0,56,56,56,,,,,,,,2662.848021300044,None,"['t', 'h', 'e', 'm', 'e']",1,"[0.9384797997772694, 1.0425203000195324, 1.2344478000886738, 1.3465847000479698, 1.5784358996897936]",2662.848021300044,None,2662.8479061600287,2662.948011000175,,,,,,,,,,,,s286_03082024,001,2024-03-08_12h28.24.262,test_typingtask_norepeats,2020.2.10,59.976992845859094,
cooed,cooed,,,,,0,57,57,57,,,,,,,,2668.348029300105,None,"['c', 'o', 'o', 'e']",0,"[0.8064904003404081, 0.9984613000415266, 1.1345431003719568, 1.2864785999991]",2668.348029300105,None,2668.3479258598295,2668.448070799932,,,,,,,,,,,,s286_03082024,001,2024-03-08_12h28.24.262,test_typingtask_norepeats,2020.2.10,59.976992845859094,
therm,therm,,,,,0,58,58,58,,,,,,,,2673.8480841000564,None,"['t', 'h', 'e', 'r', 'm']",1,"[0.8024177001789212, 0.9304444999434054, 1.0903679002076387, 1.3223907998763025, 1.426390300039202]",2673.8480841000564,None,2673.8479216600304,2673.9480356001295,,,,,,,,,,,,s286_03082024,001,2024-03-08_12h28.24.262,test_typingtask_norepeats,2020.2.10,59.976992845859094,
pykka,pykka,,,,,0,59,59,59,,,,,,,,2679.348122399766,None,"['p', 'y', 'k', 'k', 'a']",1,"[1.0223610997200012, 1.3743369998410344, 1.7344440999440849, 1.8705342998728156, 1.998411700129509]",2679.348122399766,None,2679.3479434599635,2679.448110099882,,,,,,,,,,,,s286_03082024,001,2024-03-08_12h28.24.262,test_typingtask_norepeats,2020.2.10,59.976992845859094,
cooed,cooed,,,,,0,60,60,60,,,,,,,,2684.848091899883,None,"['c', 'o', 'o', 'e', 'd']",1,"[0.9703994998708367, 1.106445699930191, 1.266383099835366, 1.3865339001640677, 1.6023236997425556]",2684.848091899883,None,2684.8480174600613,2684.9481313000433,,,,,,,,,,,,s286_03082024,001,2024-03-08_12h28.24.262,test_typingtask_norepeats,2020.2.10,59.976992845859094,
about,about,,,,,0,61,61,61,,,,,,,,2690.3481259997934,None,"['a', 'b', 'o', 'u', 't']",1,"[0.9023362002335489, 1.00635900022462, 1.302309799939394, 1.52632400020957, 1.6624024999327958]",2690.3481259997934,None,2690.3480277600233,2690.448121999856,,,,,,,,,,,,s286_03082024,001,2024-03-08_12h28.24.262,test_typingtask_norepeats,2020.2.10,59.976992845859094,
heond,heond,,,,,0,62,62,62,,,,,,,,2695.8481787000783,None,"['h', 'e', 'o', 'n', 'd']",1,"[0.7622940000146627, 0.914401900023222, 1.0103047001175582, 1.218334199860692, 1.3622690001502633]",2695.8481787000783,None,2695.8480949600694,2695.9481756999157,,,,,,,,,,,,s286_03082024,001,2024-03-08_12h28.24.262,test_typingtask_norepeats,2020.2.10,59.976992845859094,
edthe,edthe,,,,,0,63,63,63,,,,,,,,2701.348214100115,None,"['e', 'd', 't', 'h', 'e']",1,"[0.7425572001375258, 1.4942417000420392, 1.7902425001375377, 1.9103647000156343, 2.0703501999378204]",2701.348214100115,None,2701.348100560112,2701.4482129998505,,,,,,,,,,,,s286_03082024,001,2024-03-08_12h28.24.262,test_typingtask_norepeats,2020.2.10,59.976992845859094,
theme,theme,,,,,0,64,64,64,,,,,,,,2706.848240800202,None,"['t', 'h', 'e', 'm', 'e']",1,"[0.7142250002361834, 0.8022684999741614, 0.9862072998657823, 1.0983402002602816, 1.266217099968344]",2706.848240800202,None,2706.848111959966,2706.9482402000576,,,,,,,,,,,,s286_03082024,001,2024-03-08_12h28.24.262,test_typingtask_norepeats,2020.2.10,59.976992845859094,
tithe,tithe,,,,,0,65,65,65,,,,,,,,2712.348265899811,None,"['t', 'i', 't', 'h', 'e']",1,"[0.69419139996171, 0.8063028999604285, 0.9661608999595046, 1.1021758997812867, 1.3022648999467492]",2712.348265899811,None,2712.348167760158,2712.4482690999284,,,,,,,,,,,,s286_03082024,001,2024-03-08_12h28.24.262,test_typingtask_norepeats,2020.2.10,59.976992845859094,
haole,haole,,,,,0,66,66,66,,,,,,,,2717.8482806999236,None,"['h', 'a', 'o', 'l', 'e']",1,"[0.7862392999231815, 0.954116600099951, 1.1141511001624167, 1.3861779998987913, 1.506152800284326]",2717.8482806999236,None,2717.848169859825,2717.94829080021,,,,,,,,,,,,s286_03082024,001,2024-03-08_12h28.24.262,test_typingtask_norepeats,2020.2.10,59.976992845859094,
kremp,kremp,,,,,0,67,67,67,,,,,,,,2723.34828549996,None,"['k', 'r', 'e', 'm', 'p']",1,"[0.9506863998249173, 1.1421356000937521, 1.358186800032854, 1.3901459001936018, 1.6141813998110592]",2723.34828549996,None,2723.348173359735,2723.448324599769,,,,,,,,,,,,s286_03082024,001,2024-03-08_12h28.24.262,test_typingtask_norepeats,2020.2.10,59.976992845859094,
heond,heond,,,,,0,68,68,68,,,,,,,,2728.8483119998127,None,"['h', 'e', 'p', 'n', 'd']",0,"[0.8100688997656107, 0.97014269977808, 1.0902907997369766, 1.8902650997042656, 2.050277799833566]",2728.8483119998127,None,2728.8482465598267,2728.948352199979,,,,,,,,,,,,s286_03082024,001,2024-03-08_12h28.24.262,test_typingtask_norepeats,2020.2.10,59.976992845859094,
vodka,vodka,,,,,0,69,69,69,,,,,,,,2734.3483474999666,None,"['v', 'o', 'd', 'k', 'a']",1,"[1.0861206999979913, 1.1981377000920475, 1.7980900001712143, 2.0700977998785675, 2.214192799758166]",2734.3483474999666,None,2734.348260859819,2734.4483858998865,,,,,,,,,,,,s286_03082024,001,2024-03-08_12h28.24.262,test_typingtask_norepeats,2020.2.10,59.976992845859094,
theme,theme,,,,,0,70,70,70,,,,,,,,2739.848408699967,None,"['t', 'h', 'e', 'm', 'e']",1,"[0.7222567000426352, 0.8260142002254725, 1.0019788001663983, 1.1140252002514899, 1.266137800179422]",2739.848408699967,None,2739.848248959845,2739.948405600153,,,,,,,,,,,,s286_03082024,001,2024-03-08_12h28.24.262,test_typingtask_norepeats,2020.2.10,59.976992845859094,
about,about,,,,,0,71,71,71,,,,,,,,2745.3484155000187,None,"['a', 'b', 'o', 'u', 't']",1,"[0.7420337996445596, 0.8300315998494625, 1.0700121996924281, 1.3020777995698154, 1.4219660996459424]",2745.3484155000187,None,2745.34827456004,2745.448467500042,,,,,,,,,,,,s286_03082024,001,2024-03-08_12h28.24.262,test_typingtask_norepeats,2020.2.10,59.976992845859094,
champ,champ,,,,,0,72,72,72,,,,,,,,2750.8484633998014,None,"['c', 'h', 'm', 'a', 'p']",0,"[0.9539500996470451, 1.041935299988836, 1.3380096997134387, 1.43389489967376, 1.681892099790275]",2750.8484633998014,None,2750.84842305989,2750.94843009999,,,,,,,,,,,,s286_03082024,001,2024-03-08_12h28.24.262,test_typingtask_norepeats,2020.2.10,59.976992845859094,
think,think,,,,,0,73,73,73,,,,,,,,2756.3485006000847,None,"['t', 'h', 'i', 'n', 'k']",1,"[0.7819222998805344, 0.9099166998639703, 1.0860588997602463, 1.2780464999377728, 1.509934099856764]",2756.3485006000847,None,2756.3483629597818,2756.448497099802,,,,,,,,,,,,s286_03082024,001,2024-03-08_12h28.24.262,test_typingtask_norepeats,2020.2.10,59.976992845859094,
haole,haole,,,,,0,74,74,74,,,,,,,,2761.8485289998353,None,"['h', 'a', 'o', 'l', 'e']",1,"[0.8818816998973489, 1.0738868000917137, 1.1699871001765132, 1.4019932001829147, 1.5219748998060822]",2761.8485289998353,None,2761.8483801599127,2761.948517799843,,,,,,,,,,,,s286_03082024,001,2024-03-08_12h28.24.262,test_typingtask_norepeats,2020.2.10,59.976992845859094,
belly,belly,,,,,0,75,75,75,,,,,,,,2767.348565099761,None,"['b', 'e', 'l', 'l', 'y']",1,"[0.6778629003092647, 0.8378243003971875, 1.1738925003446639, 1.3739337003789842, 1.4939069002866745]",2767.348565099761,None,2767.3484194598627,2767.448551800102,,,,,,,,,,,,s286_03082024,001,2024-03-08_12h28.24.262,test_typingtask_norepeats,2020.2.10,59.976992845859094,
think,think,,,,,0,76,76,76,,,,,,,,2772.8485757000744,None,"['t', 'h', 'i', 'n', 'k']",1,"[1.0578243997879326, 1.1858183997683227, 1.3858105996623635, 1.6097945999354124, 1.8099245997145772]",2772.8485757000744,None,2772.848443659814,2772.9485939000733,,,,,,,,,,,,s286_03082024,001,2024-03-08_12h28.24.262,test_typingtask_norepeats,2020.2.10,59.976992845859094,
champ,champ,,,,,0,77,77,77,,,,,,,,2778.3485992997885,None,"['c', 'h', 'a', 'm', 'p']",1,"[0.9257972999475896, 0.9897890998981893, 1.2619610000401735, 1.3817782001569867, 1.6379019999876618]",2778.3485992997885,None,2778.348470359901,2778.448604799807,,,,,,,,,,,,s286_03082024,001,2024-03-08_12h28.24.262,test_typingtask_norepeats,2020.2.10,59.976992845859094,
cheer,cheer,,,,,0,78,78,78,,,,,,,,2783.848641099874,None,"['c', 'h', 'e', 'e', 'r']",1,"[1.1697573997080326, 1.3700175997801125, 1.553781199734658, 1.729868299793452, 1.9137401999905705]",2783.848641099874,None,2783.8484815599863,2783.948638699949,,,,,,,,,,,,s286_03082024,001,2024-03-08_12h28.24.262,test_typingtask_norepeats,2020.2.10,59.976992845859094,
theme,theme,,,,,0,79,79,79,,,,,,,,2789.348660499789,None,"['t', 'h', 'e', 'm', 'e']",1,"[0.9497324000112712, 1.0778009998612106, 1.2458517998456955, 1.3817219999618828, 1.5257306001149118]",2789.348660499789,None,2789.34857675978,2789.448661299888,,,,,,,,,,,,s286_03082024,001,2024-03-08_12h28.24.262,test_typingtask_norepeats,2020.2.10,59.976992845859094,
faqir,faqir,,,,,0,80,80,80,,,,,,,,2794.8486919999123,None,"['f', 'a', 'q', 'i', 'r']",1,"[1.073722899891436, 1.385667399968952, 1.6976878000423312, 2.1616842998191714, 2.3777652997523546]",2794.8486919999123,None,2794.8486473600847,2794.9486916000023,,,,,,,,,,,,s286_03082024,001,2024-03-08_12h28.24.262,test_typingtask_norepeats,2020.2.10,59.976992845859094,
kremp,kremp,,,,,0,81,81,81,,,,,,,,2800.348708999809,None,"['k', 'r', 'e', 'm', 'p']",1,"[0.9416875001043081, 1.1017690999433398, 1.317781100049615, 1.3976569003425539, 1.6456475001759827]",2800.348708999809,None,2800.348613160057,2800.4487124998122,,,,,,,,,,,,s286_03082024,001,2024-03-08_12h28.24.262,test_typingtask_norepeats,2020.2.10,59.976992845859094,
champ,champ,,,,,0,82,82,82,,,,,,,,2805.848770900164,None,"['c', 'h', 'a', 'm', 'p']",1,"[0.8339105001650751, 0.9616018002852798, 1.2017475999891758, 1.3297955999150872, 1.6816012999042869]",2805.848770900164,None,2805.848590560118,2805.9487502998672,,,,,,,,,,,,s286_03082024,001,2024-03-08_12h28.24.262,test_typingtask_norepeats,2020.2.10,59.976992845859094,
vodka,vodka,,,,,0,83,83,83,,,,,,,,2811.348755199928,None,"['v', 'o', 'd', 'k', 'a']",1,"[1.1176119996234775, 1.2697162996046245, 1.4535457999445498, 1.9815936996601522, 2.14155749976635]",2811.348755199928,None,2811.348807460023,None,,,,,,,,,,,,s286_03082024,001,2024-03-08_12h28.24.262,test_typingtask_norepeats,2020.2.10,59.976992845859094,
cheer,cheer,,,,,0,84,84,84,,,,,,,,2816.84880529996,None,"['c', 'h', 'e', 'e', 'r']",1,"[0.8016777001321316, 0.9935857001692057, 1.1535461000166833, 1.3296668999828398, 1.5536843002773821]",2816.84880529996,None,2816.8486991597806,None,,,,,,,,,,,,s286_03082024,001,2024-03-08_12h28.24.262,test_typingtask_norepeats,2020.2.10,59.976992845859094,
therm,therm,,,,,0,85,85,85,,,,,,,,2822.348834999837,None,"['t', 'h', 'e', 'r', 'm']",1,"[0.805568799842149, 0.9577546999789774, 1.1335624996572733, 1.3656032998114824, 1.5014928998425603]",2822.348834999837,None,2822.348855359806,2822.4488396998495,,,,,,,,,,,,s286_03082024,001,2024-03-08_12h28.24.262,test_typingtask_norepeats,2020.2.10,59.976992845859094,
kremp,kremp,,,,,0,86,86,86,,,,,,,,2827.848872500006,None,"['k', 'r', 'e', 'm', 'p']",1,"[0.921471499837935, 1.0894662998616695, 1.3374354997649789, 1.4255256997421384, 1.641573399771005]",2827.848872500006,None,2827.8487384597306,None,,,,,,,,,,,,s286_03082024,001,2024-03-08_12h28.24.262,test_typingtask_norepeats,2020.2.10,59.976992845859094,
edthe,edthe,,,,,0,87,87,87,,,,,,,,2833.348899899982,None,"['e', 'd', 't', 'h', 'e']",1,"[0.8934537996537983, 1.1575555000454187, 1.3336077998392284, 1.5894462000578642, 1.6376021998003125]",2833.348899899982,None,2833.3490425598343,None,,,,,,,,,,,,s286_03082024,001,2024-03-08_12h28.24.262,test_typingtask_norepeats,2020.2.10,59.976992845859094,
belly,belly,,,,,0,88,88,88,,,,,,,,2838.848919800017,None,"['n', 'e', 'l', 'l', 'y']",0,"[0.8094196999445558, 1.5774192996323109, 1.7934008999727666, 1.9374622995965183, 2.0254728998988867]",2838.848919800017,None,2838.8488277600613,2838.9489206001163,,,,,,,,,,,,s286_03082024,001,2024-03-08_12h28.24.262,test_typingtask_norepeats,2020.2.10,59.976992845859094,
tithe,tithe,,,,,0,89,89,89,,,,,,,,2844.34892020002,None,"['t', 'i', 't', 'h', 'e']",1,"[0.8538432000204921, 0.9734554998576641, 1.1575488997623324, 1.277387899812311, 1.49356359988451]",2844.34892020002,None,2844.3488548601513,None,,,,,,,,,,,,s286_03082024,001,2024-03-08_12h28.24.262,test_typingtask_norepeats,2020.2.10,59.976992845859094,
edthe,edthe,,,,,0,90,90,90,,,,,,,,2849.8489783001132,None,"['e', 'd', 't', 'h', 'e']",1,"[1.1053532999940217, 1.3613355001434684, 1.505380999762565, 1.7614607000723481, 1.865669199731201]",2849.8489783001132,None,2849.848978360044,None,,,,,,,,,,,,s286_03082024,001,2024-03-08_12h28.24.262,test_typingtask_norepeats,2020.2.10,59.976992845859094,
think,think,,,,,0,91,91,91,,,,,,,,2855.348973200191,None,"['t', 'h', 'i', 'n', 'k']",1,"[0.7973552001640201, 0.9333566003479064, 1.1174424001947045, 1.3493550000712276, 1.565387099981308]",2855.348973200191,None,2855.3488693599124,None,,,,,,,,,,,,s286_03082024,001,2024-03-08_12h28.24.262,test_typingtask_norepeats,2020.2.10,59.976992845859094,
belly,belly,,,,,0,92,92,92,,,,,,,,2860.8490031999536,None,"['b', 'e', 'l', 'l', 'y']",1,"[0.8493292001076043, 1.0173090999014676, 1.1932926001027226, 1.3454025001265109, 1.5132880001328886]",2860.8490031999536,None,2860.8489446601366,None,,,,,,,,,,,,s286_03082024,001,2024-03-08_12h28.24.262,test_typingtask_norepeats,2020.2.10,59.976992845859094,
edthe,edthe,,,,,0,93,93,93,,,,,,,,2866.349057099782,None,"['e', 'd', 't', 'h', 'e']",1,"[0.7974457000382245, 1.6774197001941502, 1.9332281998358667, 2.101352000143379, 2.2373195998370647]",2866.349057099782,None,2866.348894059984,None,,,,,,,,,,,,s286_03082024,001,2024-03-08_12h28.24.262,test_typingtask_norepeats,2020.2.10,59.976992845859094,
would,would,,,,,0,94,94,94,,,,,,,,2871.8490665000863,None,"['w', 'o', 'u', 'l', 'd']",1,"[0.969246500171721, 1.1212349999696016, 1.3772430997341871, 1.6172329001128674, 1.745199500117451]",2871.8490665000863,None,2871.849008059921,None,,,,,,,,,,,,s286_03082024,001,2024-03-08_12h28.24.262,test_typingtask_norepeats,2020.2.10,59.976992845859094,
faqir,faqir,,,,,0,95,95,95,,,,,,,,2877.3491333001293,None,"['f', 'a', 'q', 'i', 'r']",1,"[1.0933296997100115, 1.5093006999231875, 1.8212266997434199, 2.4211607999168336, 2.5571641996502876]",2877.3491333001293,None,2877.3490641599988,None,,,,,,,,,,,,s286_03082024,001,2024-03-08_12h28.24.262,test_typingtask_norepeats,2020.2.10,59.976992845859094,
buddy,buddy,,,,,0,96,96,96,,,,,,,,2882.8491607997566,None,"['b', 'u', 'd', 'd', 'y']",1,"[0.9611378000117838, 1.1851321002468467, 1.3851147000677884, 1.54510959982872, 1.681212699972093]",2882.8491607997566,None,2882.8490242598114,None,,,,,,,,,,,,s286_03082024,001,2024-03-08_12h28.24.262,test_typingtask_norepeats,2020.2.10,59.976992845859094,
vodka,vodka,,,,,0,97,97,97,,,,,,,,2888.3491932000034,None,"['v', 'o', 'd', 'k', 'a']",1,"[0.9572850000113249, 1.1174475997686386, 1.277118899859488, 1.445222099777311, 1.6611007996834815]",2888.3491932000034,None,2888.3491406597664,2888.4491862999275,,,,,,,,,,,,s286_03082024,001,2024-03-08_12h28.24.262,test_typingtask_norepeats,2020.2.10,59.976992845859094,
buddy,buddy,,,,,0,98,98,98,,,,,,,,2893.8492123000324,None,"['b', 'u', 'd', 'y']",0,"[0.8170924000442028, 1.0410492001101375, 1.2330136001110077, 1.9770574001595378]",2893.8492123000324,None,2893.849105859967,2893.9492256999947,,,,,,,,,,,,s286_03082024,001,2024-03-08_12h28.24.262,test_typingtask_norepeats,2020.2.10,59.976992845859094,
lucky,lucky,,,,,0,99,99,99,,,,,,,,2899.349266999867,None,"['l', 'u', 'c', 'k', 'y']",1,"[0.8290043999440968, 1.1250479998998344, 1.341130199842155, 1.3889763997867703, 1.7330181999132037]",2899.349266999867,None,2899.3491213599686,2899.44923939975,,,,,,,,,,,,s286_03082024,001,2024-03-08_12h28.24.262,test_typingtask_norepeats,2020.2.10,59.976992845859094,
druze,druze,,,,,0,100,100,100,,,,,,,,2904.8492523999885,None,"['d', 'r', 'u', 'z', 'e']",1,"[0.8010471002198756, 1.009031600318849, 1.1850020000711083, 1.4490185002796352, 1.7370132002979517]",2904.8492523999885,None,2904.8491602599156,2904.9492744999006,,,,,,,,,,,,s286_03082024,001,2024-03-08_12h28.24.262,test_typingtask_norepeats,2020.2.10,59.976992845859094,
therm,therm,,,,,0,101,101,101,,,,,,,,2910.3493074001744,None,"['t', 'h', 'e', 'r', 'm']",1,"[0.7969676000066102, 0.9089327002875507, 1.0850724000483751, 1.292936600279063, 1.4212950002402067]",2910.3493074001744,None,2910.349164559832,2910.4493089001626,,,,,,,,,,,,s286_03082024,001,2024-03-08_12h28.24.262,test_typingtask_norepeats,2020.2.10,59.976992845859094,
pykka,pykka,,,,,0,102,102,102,,,,,,,,2915.8493184000254,None,"['p', 'y', 'k', 'k', 'a']",1,"[0.8169752000831068, 1.2169761001132429, 1.5449876999482512, 1.7050569001585245, 1.8569661998189986]",2915.8493184000254,None,2915.8491972599645,None,,,,,,,,,,,,s286_03082024,001,2024-03-08_12h28.24.262,test_typingtask_norepeats,2020.2.10,59.976992845859094,
puppy,puppy,,,,,0,103,103,103,,,,,,,,2921.3493661000393,None,"['p', 'u', 'p', 'p', 'y']",1,"[0.7649022997356951, 1.0928874998353422, 1.3890102999284863, 1.5568560999818146, 1.692878999747336]",2921.3493661000393,None,2921.3492292597425,2921.449534200132,,,,,,,,,,,,s286_03082024,001,2024-03-08_12h28.24.262,test_typingtask_norepeats,2020.2.10,59.976992845859094,
cooed,cooed,,,,,0,104,104,104,,,,,,,,2926.849382400047,None,"['c', 'o', 'o', 'e', 'd']",1,"[1.0329360999166965, 1.1929910997860134, 1.36083950009197, 1.5288884998299181, 1.7529686000198126]",2926.849382400047,None,2926.8492561600638,2926.949393999763,,,,,,,,,,,,s286_03082024,001,2024-03-08_12h28.24.262,test_typingtask_norepeats,2020.2.10,59.976992845859094,
therm,therm,,,,,0,105,105,105,,,,,,,,2932.349423999898,None,"['t', 'h', 'e', 'r', 'm']",1,"[0.8690307000651956, 0.9968338999897242, 1.1808449998497963, 1.380895100068301, 1.5488022998906672]",2932.349423999898,None,2932.349260059977,None,,,,,,,,,,,,s286_03082024,001,2024-03-08_12h28.24.262,test_typingtask_norepeats,2020.2.10,59.976992845859094,
faqir,faqir,,,,,0,106,106,106,,,,,,,,2937.8494226001203,None,"['f', 'a', 'q', 'i', 'r']",1,"[1.072841899935156, 1.4407923999242485, 1.7128277998417616, 2.0728334998711944, 2.232940999791026]",2937.8494226001203,None,2937.8493337597233,None,,,,,,,,,,,,s286_03082024,001,2024-03-08_12h28.24.262,test_typingtask_norepeats,2020.2.10,59.976992845859094,
zibja,zibja,,,,,0,107,107,107,,,,,,,,2943.3494929000735,None,"['z', 'i', 'b', 'j', 'a']",1,"[1.2927507003769279, 1.4607428000308573, 1.7088867002166808, 1.9727294002659619, 2.1007693000137806]",2943.3494929000735,None,2943.34941465999,None,,,,,,,,,,,,s286_03082024,001,2024-03-08_12h28.24.262,test_typingtask_norepeats,2020.2.10,59.976992845859094,
vodka,vodka,,,,,0,108,108,108,,,,,,,,2948.8495229999535,None,"['v', 'o', 'd', 'k', 'a']",1,"[1.2488779001869261, 1.3847659002058208, 1.5446720998734236, 1.81690669991076, 1.976896199863404]",2948.8495229999535,None,2948.849397059856,None,,,,,,,,,,,,s286_03082024,001,2024-03-08_12h28.24.262,test_typingtask_norepeats,2020.2.10,59.976992845859094,
druze,druze,,,,,0,109,109,109,,,,,,,,2954.34954919992,None,"['d', 'r', 'u', 'z', 'e']",1,"[0.8127493998035789, 1.0526589001528919, 1.2446735999546945, 1.4927126998081803, 1.7566972998902202]",2954.34954919992,None,2954.3493906598073,None,,,,,,,,,,,,s286_03082024,001,2024-03-08_12h28.24.262,test_typingtask_norepeats,2020.2.10,59.976992845859094,
cooed,cooed,,,,,0,110,110,110,,,,,,,,2959.849549099803,None,"['c', 'o', 'o', 'e', 'd']",1,"[0.7846924997866154, 0.9367716000415385, 1.0966583001427352, 1.2246771999634802, 1.4566437001340091]",2959.849549099803,None,2959.84946316001,None,,,,,,,,,,,,s286_03082024,001,2024-03-08_12h28.24.262,test_typingtask_norepeats,2020.2.10,59.976992845859094,
puppy,puppy,,,,,0,111,111,111,,,,,,,,2965.3496187999845,None,"['p', 'u', 'p', 'p', 'y']",1,"[0.700791500043124, 1.0287167001515627, 1.3085837997496128, 1.492609600070864, 1.612577899824828]",2965.3496187999845,None,2965.349503159849,None,,,,,,,,,,,,s286_03082024,001,2024-03-08_12h28.24.262,test_typingtask_norepeats,2020.2.10,59.976992845859094,
kremp,kremp,,,,,0,112,112,112,,,,,,,,2970.8496472002007,None,"['k', 'r', 'e', 'm', 'p']",1,"[0.8406068999320269, 0.9927783999592066, 1.2565460000187159, 1.3366657998412848, 1.6326259998604655]",2970.8496472002007,None,2970.849529260164,None,,,,,,,,,,,,s286_03082024,001,2024-03-08_12h28.24.262,test_typingtask_norepeats,2020.2.10,59.976992845859094,
vanru,vanru,,,,,0,113,113,113,,,,,,,,2976.3497298997827,None,"['v', 'a', 'n', 'r', 'u']",1,"[0.9884741003625095, 1.1485287002287805, 1.2525777001865208, 1.5084856003522873, 1.6444517001509666]",2976.3497298997827,None,2976.3495545600076,None,,,,,,,,,,,,s286_03082024,001,2024-03-08_12h28.24.262,test_typingtask_norepeats,2020.2.10,59.976992845859094,
would,would,,,,,0,114,114,114,,,,,,,,2981.8496677000076,None,"['w', 'o', 'u', 'l', 'd']",1,"[0.7766614998690784, 0.8725580000318587, 1.1606442998163402, 1.4085277998819947, 1.5045886998996139]",2981.8496677000076,None,2981.8495755599347,None,,,,,,,,,,,,s286_03082024,001,2024-03-08_12h28.24.262,test_typingtask_norepeats,2020.2.10,59.976992845859094,
haole,haole,,,,,0,115,115,115,,,,,,,,2987.349739000201,None,"['h', 'a', 'o', 'l', 'e']",1,"[0.8764684000052512, 2.0526840002276003, 2.196459200233221, 2.460457400418818, 2.5805769003927708]",2987.349739000201,None,2987.349607759947,None,,,,,,,,,,,,s286_03082024,001,2024-03-08_12h28.24.262,test_typingtask_norepeats,2020.2.10,59.976992845859094,
cheer,cheer,,,,,0,116,116,116,,,,,,,,2992.849772399757,None,"['c', 'h', 'e', 'e', 'r']",1,"[0.7444291999563575, 0.9124186001718044, 1.0563969002105296, 1.2645241999998689, 1.4405423002317548]",2992.849772399757,None,2992.8496064598207,None,,,,,,,,,,,,s286_03082024,001,2024-03-08_12h28.24.262,test_typingtask_norepeats,2020.2.10,59.976992845859094,
lucky,lucky,,,,,0,117,117,117,,,,,,,,2998.3497760999016,None,"['l', 'u', 'c', 'k', 'y']",1,"[0.8604172002524137, 1.2043860000558197, 1.404403599910438, 1.5324830999597907, 1.804495200049132]",2998.3497760999016,None,2998.3496698600707,None,,,,,,,,,,,,s286_03082024,001,2024-03-08_12h28.24.262,test_typingtask_norepeats,2020.2.10,59.976992845859094,
theme,theme,,,,,0,118,118,118,,,,,,,,3003.8498343997635,None,"['t', 'h', 'e', 'm', 'e']",1,"[0.736353799700737, 0.8563811001367867, 1.0325688999146223, 1.1445657997392118, 1.312360200099647]",3003.8498343997635,None,3003.8496716598515,None,,,,,,,,,,,,s286_03082024,001,2024-03-08_12h28.24.262,test_typingtask_norepeats,2020.2.10,59.976992845859094,
there,there,,,,,0,119,119,119,,,,,,,,3009.349854900036,None,"['t', 'h', 'e', 'r', 'e']",1,"[0.700641100294888, 0.8363868999294937, 0.9964247001335025, 1.2044331999495625, 1.396299300249666]",3009.349854900036,None,3009.349735559756,None,,,,,,,,,,,,s286_03082024,001,2024-03-08_12h28.24.262,test_typingtask_norepeats,2020.2.10,59.976992845859094,
buddy,buddy,,,,,,,,,0,0,0,0,,,,,,,,,,,,,3014.849883399904,None,3103.000393500086,None,"['b', 'u', 'd', 'd', 'y']",1,"[0.8177566002123058, 1.0416685002855957, 1.185756000224501, 1.3537585004232824, 1.4897578000091016]",3103.000393500086,None,3103.0004006599543,3103.1003531999886,s286_03082024,001,2024-03-08_12h28.24.262,test_typingtask_norepeats,2020.2.10,59.976992845859094,
think,think,,,,,,,,,0,1,1,1,,,,,,,,,,,,,,,3108.5004110997543,None,"['t', 'h', 'i', 'n', 'k']",1,"[0.7417072998359799, 0.8697151001542807, 1.021710000000894, 1.2617406998760998, 1.485678399913013]",3108.5004110997543,None,3108.5002953599674,None,s286_03082024,001,2024-03-08_12h28.24.262,test_typingtask_norepeats,2020.2.10,59.976992845859094,
tithe,tithe,,,,,,,,,0,2,2,2,,,,,,,,,,,,,,,3114.0004496998154,None,"['t', 'i', 't', 'h', 'e']",1,"[0.6976525001227856, 0.8336384003050625, 0.9855599999427795, 1.1057633003219962, 1.2896301001310349]",3114.0004496998154,None,3114.000337560056,None,s286_03082024,001,2024-03-08_12h28.24.262,test_typingtask_norepeats,2020.2.10,59.976992845859094,
heond,heond,,,,,,,,,0,3,3,3,,,,,,,,,,,,,,,3119.5004822001792,None,"['h', 'e', 'o', 'n', 'd']",1,"[0.7657808000221848, 1.1256067999638617, 1.3016698001883924, 1.5176099999807775, 1.62157760001719]",3119.5004822001792,None,3119.5003281597515,None,s286_03082024,001,2024-03-08_12h28.24.262,test_typingtask_norepeats,2020.2.10,59.976992845859094,
pykka,pykka,,,,,,,,,0,4,4,4,,,,,,,,,,,,,,,3125.0005128001794,None,"['p', 'y', 'k', 'k', 'a']",1,"[0.6655608997680247, 1.0095838997513056, 1.3456611996516585, 1.497580099850893, 1.6097210999578238]",3125.0005128001794,None,3125.0004032597412,None,s286_03082024,001,2024-03-08_12h28.24.262,test_typingtask_norepeats,2020.2.10,59.976992845859094,
kremp,kremp,,,,,,,,,0,5,5,5,,,,,,,,,,,,,,,3130.5005434001796,None,"['k', 'r', 'e', 'm', 'p']",1,"[0.8455582000315189, 1.0135798999108374, 1.2135017002001405, 1.3175117997452617, 1.7175357998348773]",3130.5005434001796,None,3130.500387260085,None,s286_03082024,001,2024-03-08_12h28.24.262,test_typingtask_norepeats,2020.2.10,59.976992845859094,
haole,haole,,,,,,,,,0,6,6,6,,,,,,,,,,,,,,,3136.000580099877,None,"['h', 'a', 'o', 'l', 'e']",1,"[0.8495322996750474, 1.0414997995831072, 1.1775544998236, 1.4015298997983336, 1.5455926996655762]",3136.000580099877,None,3136.0004994597753,None,s286_03082024,001,2024-03-08_12h28.24.262,test_typingtask_norepeats,2020.2.10,59.976992845859094,
would,would,,,,,,,,,0,7,7,7,,,,,,,,,,,,,,,3141.500576300081,None,"['w', 'o', 'u', 'l', 'd']",1,"[0.8855011998675764, 1.1014809999614954, 1.4454919998534024, 1.7574898996390402, 1.9495822000317276]",3141.500576300081,None,3141.5004821599928,None,s286_03082024,001,2024-03-08_12h28.24.262,test_typingtask_norepeats,2020.2.10,59.976992845859094,
haole,haole,,,,,,,,,0,8,8,8,,,,,,,,,,,,,,,3147.000652300194,None,"['h', 'a', 'o', 'l', 'e']",1,"[0.7774132997728884, 1.0015266998670995, 1.1773935998789966, 1.457374599762261, 1.609383299946785]",3147.000652300194,None,3147.000477559725,None,s286_03082024,001,2024-03-08_12h28.24.262,test_typingtask_norepeats,2020.2.10,59.976992845859094,
cheer,cheer,,,,,,,,,0,9,9,9,,,,,,,,,,,,,,,3152.5006670001894,None,"['c', 'h', 'e', 'e', 'r']",1,"[0.8614187003113329, 1.0533551000989974, 1.1733516003005207, 1.3813631003722548, 1.5815064003691077]",3152.5006670001894,None,3152.500544359768,None,s286_03082024,001,2024-03-08_12h28.24.262,test_typingtask_norepeats,2020.2.10,59.976992845859094,
zibja,zibja,,,,,,,,,0,10,10,10,,,,,,,,,,,,,,,3158.000682900194,None,"['z', 'i', 'b', 'j', 'a']",1,"[1.1933744996786118, 1.3373531997203827, 1.5853935997001827, 1.777351399883628, 1.8974087997339666]",3158.000682900194,None,3158.0005683599506,None,s286_03082024,001,2024-03-08_12h28.24.262,test_typingtask_norepeats,2020.2.10,59.976992845859094,
there,there,,,,,,,,,0,11,11,11,,,,,,,,,,,,,,,3163.500733499881,None,"['t', 'h', 'e', 'r', 'e']",1,"[0.7333209998905659, 0.9013048997148871, 1.053394100163132, 1.2693582000210881, 1.4692847998812795]",3163.500733499881,None,3163.500609659916,None,s286_03082024,001,2024-03-08_12h28.24.262,test_typingtask_norepeats,2020.2.10,59.976992845859094,
theme,theme,,,,,,,,,0,12,12,12,,,,,,,,,,,,,,,3169.000794299878,None,"['t', 'h', 'e', 'm', 'e']",1,"[0.7212855997495353, 0.8412301996722817, 1.0573616996407509, 1.1612326996400952, 1.3212353996932507]",3169.000794299878,None,3169.0006428601687,None,s286_03082024,001,2024-03-08_12h28.24.262,test_typingtask_norepeats,2020.2.10,59.976992845859094,
tithe,tithe,,,,,,,,,0,13,13,13,,,,,,,,,,,,,,,3174.5007806997746,None,"['t', 'i', 't', 'h', 'e']",1,"[0.653269300237298, 0.797238300088793, 0.9495850000530481, 1.0612940001301467, 1.2372317002154887]",3174.5007806997746,None,3174.500667860126,None,s286_03082024,001,2024-03-08_12h28.24.262,test_typingtask_norepeats,2020.2.10,59.976992845859094,
haole,haole,,,,,,,,,0,14,14,14,,,,,,,,,,,,,,,3180.000812599901,None,"['h', 'a', 's', 'o', 'l', 'e']",0,"[0.9772215001285076, 1.1612309999763966, 1.1693243999034166, 1.3531931000761688, 1.6413306999020278, 1.7533153998665512]",3180.000812599901,None,3180.0006980601233,None,s286_03082024,001,2024-03-08_12h28.24.262,test_typingtask_norepeats,2020.2.10,59.976992845859094,
therm,therm,,,,,,,,,0,15,15,15,,,,,,,,,,,,,,,3185.5008633998223,None,"['t', 'h', 'e', 'r', 'm']",1,"[0.7171678999438882, 0.829124900046736, 1.0290906000882387, 1.2371549000963569, 1.3731260998174548]",3185.5008633998223,None,3185.5007328599227,None,s286_03082024,001,2024-03-08_12h28.24.262,test_typingtask_norepeats,2020.2.10,59.976992845859094,
theme,theme,,,,,,,,,0,16,16,16,,,,,,,,,,,,,,,3191.000878999941,None,"['t', 'h', 'e', 'm', 'e']",1,"[0.6251297001726925, 0.7611071998253465, 0.9771974999457598, 1.0731295999139547, 1.2172508998773992]",3191.000878999941,None,3191.00076006013,None,s286_03082024,001,2024-03-08_12h28.24.262,test_typingtask_norepeats,2020.2.10,59.976992845859094,
buddy,buddy,,,,,,,,,0,17,17,17,,,,,,,,,,,,,,,3196.500926400069,None,"['b', 'u', 'd', 'd', 'y']",1,"[0.63710100017488, 0.9332097000442445, 1.1172704002819955, 1.301293000113219, 1.3970452002249658]",3196.500926400069,None,3196.5008010597435,None,s286_03082024,001,2024-03-08_12h28.24.262,test_typingtask_norepeats,2020.2.10,59.976992845859094,
vodka,vodka,,,,,,,,,0,18,18,18,,,,,,,,,,,,,,,3202.0009086001664,None,"['v', 'o', 'd', 'j', 'a']",0,"[0.945108599960804, 1.041191800031811, 1.2491858997382224, 1.4732154998928308, 2.4011741997674108]",3202.0009086001664,None,3202.0008278599475,None,s286_03082024,001,2024-03-08_12h28.24.262,test_typingtask_norepeats,2020.2.10,59.976992845859094,
about,about,,,,,,,,,0,19,19,19,,,,,,,,,,,,,,,3207.5009802998975,None,"['b', 'a', 'o', 'u', 't']",0,"[1.1810257998295128, 1.2451705001294613, 1.5170057998038828, 1.7490102001465857, 1.8530270997434855]",3207.5009802998975,None,3207.50082996008,None,s286_03082024,001,2024-03-08_12h28.24.262,test_typingtask_norepeats,2020.2.10,59.976992845859094,
lucky,lucky,,,,,,,,,0,20,20,20,,,,,,,,,,,,,,,3213.000996199902,None,"['l', 'u', 'c', 'k', 'y']",1,"[0.6970050996169448, 1.0011055995710194, 1.1370829995721579, 1.2889672997407615, 1.5371178998611867]",3213.000996199902,None,3213.0008662597743,None,s286_03082024,001,2024-03-08_12h28.24.262,test_typingtask_norepeats,2020.2.10,59.976992845859094,
therm,therm,,,,,,,,,0,21,21,21,,,,,,,,,,,,,,,3218.5010363999754,None,"['t', 'h', 'e', 'r', 'm']",1,"[0.7249599997885525, 0.8289568000473082, 1.0049454001709819, 1.244953399989754, 1.3409480997361243]",3218.5010363999754,None,3218.5009323599284,None,s286_03082024,001,2024-03-08_12h28.24.262,test_typingtask_norepeats,2020.2.10,59.976992845859094,
pykka,pykka,,,,,,,,,0,22,22,22,,,,,,,,,,,,,,,3224.001095800195,None,"['p', 'y', 'k', 'k', 'a']",1,"[0.720896300394088, 1.1049494002945721, 1.4408912002108991, 1.6248714001849294, 1.7448484003543854]",3224.001095800195,None,3224.000960459793,None,s286_03082024,001,2024-03-08_12h28.24.262,test_typingtask_norepeats,2020.2.10,59.976992845859094,
edthe,edthe,,,,,,,,,0,23,23,23,,,,,,,,,,,,,,,3229.5011339001358,None,"['e', 'd', 't', 'h', 'e']",1,"[1.0048528998158872, 1.3490268997848034, 1.5728900996036828, 1.8048744997940958, 1.908848499879241]",3229.5011339001358,None,3229.500968159968,None,s286_03082024,001,2024-03-08_12h28.24.262,test_typingtask_norepeats,2020.2.10,59.976992845859094,
heond,heond,,,,,,,,,0,24,24,24,,,,,,,,,,,,,,,3235.0011466997676,None,"['h', 'e', 'o', 'n', 'd']",1,"[0.8728354997001588, 1.0568144000135362, 1.1609442997723818, 1.4169901995919645, 1.5608267998322845]",3235.0011466997676,None,3235.001005260134,None,s286_03082024,001,2024-03-08_12h28.24.262,test_typingtask_norepeats,2020.2.10,59.976992845859094,
champ,champ,,,,,,,,,0,25,25,25,,,,,,,,,,,,,,,3240.501322200056,None,"['c', 'h', 'a', 'm', 'p']",1,"[1.1646572998724878, 1.2846244000829756, 1.5246345000341535, 1.7326460001058877, 2.2448860998265445]",3240.501322200056,None,3240.501035559783,None,s286_03082024,001,2024-03-08_12h28.24.262,test_typingtask_norepeats,2020.2.10,59.976992845859094,
therm,therm,,,,,,,,,0,26,26,26,,,,,,,,,,,,,,,3246.001206799876,None,"['t', 'h', 'e', 'r', 'm']",1,"[0.7127574998885393, 0.8807882997207344, 1.0568458000198007, 1.2967646000906825, 1.4170058998279274]",3246.001206799876,None,3246.0010779601057,None,s286_03082024,001,2024-03-08_12h28.24.262,test_typingtask_norepeats,2020.2.10,59.976992845859094,
tithe,tithe,,,,,,,,,0,27,27,27,,,,,,,,,,,,,,,3251.501244000159,None,"['t', 'i', 't', 'h', 'e']",1,"[0.7407601000741124, 0.8847089000046253, 1.0846617999486625, 1.236670000012964, 1.436795599758625]",3251.501244000159,None,3251.5011087598746,None,s286_03082024,001,2024-03-08_12h28.24.262,test_typingtask_norepeats,2020.2.10,59.976992845859094,
would,would,,,,,,,,,0,28,28,28,,,,,,,,,,,,,,,3257.00123309996,None,"['w', 'o', 'u', 'l', 'd']",1,"[0.9447440002113581, 1.0567227001301944, 1.3287255000323057, 1.6007104003801942, 1.7287159003317356]",3257.00123309996,None,3257.0011178598274,None,s286_03082024,001,2024-03-08_12h28.24.262,test_typingtask_norepeats,2020.2.10,59.976992845859094,
there,there,,,,,,,,,0,29,29,29,,,,,,,,,,,,,,,3262.5013089999557,None,"['t', 'h', 'e', 'r', 'e']",1,"[1.1166513003408909, 1.2927756002172828, 1.452629600185901, 1.6766356001608074, 1.8686898001469672]",3262.5013089999557,None,3262.501146760164,None,s286_03082024,001,2024-03-08_12h28.24.262,test_typingtask_norepeats,2020.2.10,59.976992845859094,
tithe,tithe,,,,,,,,,0,30,30,30,,,,,,,,,,,,,,,3268.0013295998797,None,"['t', 'i', 't', 'h', 'e']",1,"[0.6166240000165999, 0.7446118998341262, 1.0166221000254154, 1.144593599718064, 1.3125386997126043]",3268.0013295998797,None,3268.0011747599115,None,s286_03082024,001,2024-03-08_12h28.24.262,test_typingtask_norepeats,2020.2.10,59.976992845859094,
cooed,cooed,,,,,,,,,0,31,31,31,,,,,,,,,,,,,,,3273.501399899833,None,"['c', 'o', 'o', 'e', 'd']",1,"[0.7965468000620604, 0.9406006000936031, 1.1085064997896552, 1.2046078997664154, 1.4285309999249876]",3273.501399899833,None,3273.501225360064,None,s286_03082024,001,2024-03-08_12h28.24.262,test_typingtask_norepeats,2020.2.10,59.976992845859094,
about,about,,,,,,,,,0,32,32,32,,,,,,,,,,,,,,,3279.001561400015,None,"['a', 'b', 'o', 'u', 't']",1,"[0.9443847998045385, 1.0803696997463703, 1.3523754999041557, 1.6003515999764204, 2.1923704999499023]",3279.001561400015,None,3279.001277259877,None,s286_03082024,001,2024-03-08_12h28.24.262,test_typingtask_norepeats,2020.2.10,59.976992845859094,
cheer,cheer,,,,,,,,,0,33,33,33,,,,,,,,,,,,,,,3284.5016966997646,None,"['c', 'h', 'e', 'e', 'r']",1,"[0.86022669961676, 1.0362023999914527, 1.1802049996331334, 1.3882764000445604, 1.5962477000430226]",3284.5016966997646,None,3284.501303159958,None,s286_03082024,001,2024-03-08_12h28.24.262,test_typingtask_norepeats,2020.2.10,59.976992845859094,
faqir,faqir,,,,,,,,,0,34,34,34,,,,,,,,,,,,,,,3290.0014471001923,None,"['f', 'a', 'q', 'i', 'r']",1,"[0.9444871000014246, 1.256484900135547, 1.528459300287068, 1.8004808998666704, 1.9764665002003312]",3290.0014471001923,None,3290.0013382601087,None,s286_03082024,001,2024-03-08_12h28.24.262,test_typingtask_norepeats,2020.2.10,59.976992845859094,
theme,theme,,,,,,,,,0,35,35,35,,,,,,,,,,,,,,,3295.5014975001104,None,"['t', 'h', 'e', 'm', 'e']",1,"[0.7804232002235949, 0.9164201002568007, 1.0924714002758265, 1.1965315998531878, 1.3404287998564541]",3295.5014975001104,None,3295.5013808597346,None,s286_03082024,001,2024-03-08_12h28.24.262,test_typingtask_norepeats,2020.2.10,59.976992845859094,
champ,champ,,,,,,,,,0,36,36,36,,,,,,,,,,,,,,,3301.001737399958,None,"['c', 'h', 'a', 'm', 'p']",1,"[0.8322052001021802, 0.912202499806881, 1.1281723999418318, 1.2801634999923408, 1.5841525001451373]",3301.001737399958,None,3301.002170360042,None,s286_03082024,001,2024-03-08_12h28.24.262,test_typingtask_norepeats,2020.2.10,59.976992845859094,
belly,belly,,,,,,,,,0,37,37,37,,,,,,,,,,,,,,,3306.501575899776,None,"['b', 'e', 'l', 'l', 'y']",1,"[0.7563465000130236, 0.8924604998901486, 1.0524010001681745, 1.2683104001916945, 1.3883032999001443]",3306.501575899776,None,3306.501442859741,None,s286_03082024,001,2024-03-08_12h28.24.262,test_typingtask_norepeats,2020.2.10,59.976992845859094,
cheer,cheer,,,,,,,,,0,38,38,38,,,,,,,,,,,,,,,3312.0016080997884,None,"['c', 'h', 'e', 'e', 'r']",1,"[0.6483398000709713, 0.7603070000186563, 0.9122981000691652, 1.1203050999902189, 1.2964212000370026]",3312.0016080997884,None,3312.001437859936,None,s286_03082024,001,2024-03-08_12h28.24.262,test_typingtask_norepeats,2020.2.10,59.976992845859094,
druze,druze,,,,,,,,,0,39,39,39,,,,,,,,,,,,,,,3317.502037399914,None,"['c', 'r', 'u', 'z', 'e']",0,"[1.131878400221467, 1.6038559000007808, 1.8758415998890996, 2.627872600220144, 2.8678880999796093]",3317.502037399914,None,3317.5017533598934,None,s286_03082024,001,2024-03-08_12h28.24.262,test_typingtask_norepeats,2020.2.10,59.976992845859094,
champ,champ,,,,,,,,,0,40,40,40,,,,,,,,,,,,,,,3323.001970899757,None,"['c', 'h', 'a', 'm', 'p']",1,"[0.7279348000884056, 0.8239144999533892, 1.0479997997172177, 1.1440444998443127, 1.3680090997368097]",3323.001970899757,None,3323.001537259994,None,s286_03082024,001,2024-03-08_12h28.24.262,test_typingtask_norepeats,2020.2.10,59.976992845859094,
faqir,faqir,,,,,,,,,0,41,41,41,,,,,,,,,,,,,,,3328.5022160997614,None,"['f', 'a', 'q', 'u', 'i', 'r']",0,"[0.9556768997572362, 1.3157423995435238, 1.571715199854225, 1.89165179990232, 2.1317157996818423, 2.2517772996798158]",3328.5022160997614,None,3328.5016022597906,None,s286_03082024,001,2024-03-08_12h28.24.262,test_typingtask_norepeats,2020.2.10,59.976992845859094,
puppy,puppy,,,,,,,,,0,42,42,42,,,,,,,,,,,,,,,3334.0017229998484,None,"['p', 'u', 'p', 'p', 'y']",1,"[0.6721713999286294, 0.9921395997516811, 1.3602857999503613, 1.5201606000773609, 1.6161492997780442]",3334.0017229998484,None,3334.001586359786,None,s286_03082024,001,2024-03-08_12h28.24.262,test_typingtask_norepeats,2020.2.10,59.976992845859094,
lucky,lucky,,,,,,,,,0,43,43,43,,,,,,,,,,,,,,,3339.501717499923,None,"['l', 'u', 'c', 'k', 'y']",1,"[0.7004869999364018, 0.9882748001255095, 1.1163253001868725, 1.2441467000171542, 1.5162912998348475]",3339.501717499923,None,3339.5016347601545,None,s286_03082024,001,2024-03-08_12h28.24.262,test_typingtask_norepeats,2020.2.10,59.976992845859094,
would,would,,,,,,,,,0,44,44,44,,,,,,,,,,,,,,,3345.001953000203,None,"['w', 'o', 'u', 'l', 'd']",1,"[1.0321518001146615, 1.1518836999312043, 1.3759685000404716, 1.6159355002455413, 1.6958886999636889]",3345.001953000203,None,3345.0016602597666,3345.1017244998366,s286_03082024,001,2024-03-08_12h28.24.262,test_typingtask_norepeats,2020.2.10,59.976992845859094,
vodka,vodka,,,,,,,,,0,45,45,45,,,,,,,,,,,,,,,3350.501841600053,None,"['v', 'o', 'd', 'k', 'a']",1,"[0.9400241998955607, 1.0440903999842703, 1.2120341998524964, 1.4600231000222266, 1.6441389000974596]",3350.501841600053,None,3350.501697060047,None,s286_03082024,001,2024-03-08_12h28.24.262,test_typingtask_norepeats,2020.2.10,59.976992845859094,
vanru,vanru,,,,,,,,,0,46,46,46,,,,,,,,,,,,,,,3356.001900599804,None,"['v', 'a', 'n', 'r', 'u']",1,"[0.8479868001304567, 1.160033700056374, 1.288002600427717, 1.4640688002109528, 1.5439376002177596]",3356.001900599804,None,3356.001739459904,3356.1018729000352,s286_03082024,001,2024-03-08_12h28.24.262,test_typingtask_norepeats,2020.2.10,59.976992845859094,
would,would,,,,,,,,,0,47,47,47,,,,,,,,,,,,,,,3361.502131300047,None,"['w', 'o', 'u', 'l', 'd']",1,"[0.6757359001785517, 0.7797896000556648, 1.0517280003987253, 1.2997005004435778, 1.4037112002260983]",3361.502131300047,None,3361.5017630600837,3361.6019390001893,s286_03082024,001,2024-03-08_12h28.24.262,test_typingtask_norepeats,2020.2.10,59.976992845859094,
vanru,vanru,,,,,,,,,0,48,48,48,,,,,,,,,,,,,,,3367.001894199755,None,"['v', 'a', 'n', 'r', 'u']",1,"[0.9279807000420988, 1.0560212996788323, 1.1919490997679532, 1.4079784997738898, 1.5279578999616206]",3367.001894199755,None,3367.001796060102,3367.1019171997905,s286_03082024,001,2024-03-08_12h28.24.262,test_typingtask_norepeats,2020.2.10,59.976992845859094,
champ,champ,,,,,,,,,0,49,49,49,,,,,,,,,,,,,,,3372.5019577997737,None,"['c', 'h', 'a', 'm', 'p']",1,"[0.9081398998387158, 1.1398935001343489, 1.3959951000288129, 1.5159922000020742, 1.7961037000641227]",3372.5019577997737,None,3372.5018323597965,3372.6019867002033,s286_03082024,001,2024-03-08_12h28.24.262,test_typingtask_norepeats,2020.2.10,59.976992845859094,
haole,haole,,,,,,,,,0,50,50,50,,,,,,,,,,,,,,,3378.0023432997987,None,"['h', 'a', 'o', 'l', 'e']",1,"[0.8075128002092242, 1.367597300093621, 1.5435045999474823, 1.7835936998017132, 1.8874901002272964]",3378.0023432997987,None,3378.0018617597875,3378.1020106999204,s286_03082024,001,2024-03-08_12h28.24.262,test_typingtask_norepeats,2020.2.10,59.976992845859094,
edthe,edthe,,,,,,,,,0,51,51,51,,,,,,,,,,,,,,,3383.502014399972,None,"['e', 'd', 't', 'h', 'e']",1,"[0.7638326999731362, 1.0678608999587595, 1.2038886998780072, 1.4358260999433696, 1.5319091998971999]",3383.502014399972,None,3383.5018721598667,3383.602025900036,s286_03082024,001,2024-03-08_12h28.24.262,test_typingtask_norepeats,2020.2.10,59.976992845859094,
vanru,vanru,,,,,,,,,0,52,52,52,,,,,,,,,,,,,,,3389.0020189001225,None,"['v', 'a', 'n', 'r', 'u']",1,"[0.7760840998962522, 0.9844002998434007, 1.1517948000691831, 1.3517682999372482, 1.4718117997981608]",3389.0020189001225,None,3389.0019484598656,None,s286_03082024,001,2024-03-08_12h28.24.262,test_typingtask_norepeats,2020.2.10,59.976992845859094,
zibja,zibja,,,,,,,,,0,53,53,53,,,,,,,,,,,,,,,3394.502111500129,None,"['z', 'i', 'b', 'j', 'a']",1,"[1.6597279999405146, 1.795734299812466, 2.051837499719113, 2.284171300008893, 2.4116964996792376]",3394.502111500129,None,3394.5019267600496,None,s286_03082024,001,2024-03-08_12h28.24.262,test_typingtask_norepeats,2020.2.10,59.976992845859094,
faqir,faqir,,,,,,,,,0,54,54,54,,,,,,,,,,,,,,,3400.00211679982,None,"['f', 'a', 'q', 'i', 'r']",1,"[0.8957308996468782, 1.2877479996532202, 1.5842404998838902, 1.8797221998684108, 2.055809299927205]",3400.00211679982,None,3400.001969159907,None,s286_03082024,001,2024-03-08_12h28.24.262,test_typingtask_norepeats,2020.2.10,59.976992845859094,
edthe,edthe,,,,,,,,,0,55,55,55,,,,,,,,,,,,,,,3405.5024554999545,None,"['e', 'd', 't', 'h', 'e']",1,"[0.7393808998167515, 0.9954383000731468, 1.107502699829638, 1.3313794997520745, 1.4515132997184992]",3405.5024554999545,None,3405.502130260086,None,s286_03082024,001,2024-03-08_12h28.24.262,test_typingtask_norepeats,2020.2.10,59.976992845859094,
cooed,cooed,,,,,,,,,0,56,56,56,,,,,,,,,,,,,,,3411.0021832999773,None,"['c', 'o', 'o', 'e', 'd']",1,"[0.7436731001362205, 0.8476499998942018, 1.0157560999505222, 1.1276018000207841, 1.4076020000502467]",3411.0021832999773,None,3411.002064660052,None,s286_03082024,001,2024-03-08_12h28.24.262,test_typingtask_norepeats,2020.2.10,59.976992845859094,
lucky,lucky,,,,,,,,,0,57,57,57,,,,,,,,,,,,,,,3416.5022089001723,None,"['l', 'u', 'c', 'k', 'y']",1,"[0.835608399938792, 1.155608699657023, 1.3316593999043107, 1.4275821996852756, 1.7556318999268115]",3416.5022089001723,None,3416.5020912600216,None,s286_03082024,001,2024-03-08_12h28.24.262,test_typingtask_norepeats,2020.2.10,59.976992845859094,
edthe,edthe,,,,,,,,,0,58,58,58,,,,,,,,,,,,,,,3422.002238799818,None,"['e', 'd', 't', 'h', 'e']",1,"[0.7756670000962913, 1.0235415999777615, 1.127565300092101, 1.3677404001355171, 1.455652100034058]",3422.002238799818,None,3422.002147159865,None,s286_03082024,001,2024-03-08_12h28.24.262,test_typingtask_norepeats,2020.2.10,59.976992845859094,
think,think,,,,,,,,,0,59,59,59,,,,,,,,,,,,,,,3427.5022738999687,None,"['t', 'h', 'i', 'n', 'k']",1,"[1.0755340000614524, 1.1955652004107833, 1.4195798002183437, 1.6916259001009166, 2.0195626001805067]",3427.5022738999687,None,3427.5021580600646,None,s286_03082024,001,2024-03-08_12h28.24.262,test_typingtask_norepeats,2020.2.10,59.976992845859094,
heond,heond,,,,,,,,,0,60,60,60,,,,,,,,,,,,,,,3433.0023467000574,None,"['h', 'e', 'o', 'n', 'd']",1,"[0.8239554003812373, 0.9435843001119792, 1.039523800369352, 1.279424900189042, 1.4154472001828253]",3433.0023467000574,None,3433.0021571599414,None,s286_03082024,001,2024-03-08_12h28.24.262,test_typingtask_norepeats,2020.2.10,59.976992845859094,
faqir,faqir,,,,,,,,,0,61,61,61,,,,,,,,,,,,,,,3438.502303000074,None,"['f', 'a', 'q', 'i', 'r']",1,"[1.0034893001429737, 1.427492099814117, 1.6914792000316083, 2.1634730999358, 2.283653600141406]",3438.502303000074,None,3438.5022267600057,None,s286_03082024,001,2024-03-08_12h28.24.262,test_typingtask_norepeats,2020.2.10,59.976992845859094,
puppy,puppy,,,,,,,,,0,62,62,62,,,,,,,,,,,,,,,3444.002373499796,None,"['p', 'u', 'p', 'p', 'y']",1,"[0.7594455000944436, 1.0874554999172688, 1.343459399882704, 1.5273823998868465, 1.6233938001096249]",3444.002373499796,None,3444.0022563597654,None,s286_03082024,001,2024-03-08_12h28.24.262,test_typingtask_norepeats,2020.2.10,59.976992845859094,
pykka,pykka,,,,,,,,,0,63,63,63,,,,,,,,,,,,,,,3449.50241299998,None,"['p', 'y', 'k', 'k', 'a']",1,"[0.7873845999129117, 1.2033424000255764, 1.5394031000323594, 1.7073768000118434, 1.8273481000214815]",3449.50241299998,None,3449.5022916601506,None,s286_03082024,001,2024-03-08_12h28.24.262,test_typingtask_norepeats,2020.2.10,59.976992845859094,
would,would,,,,,,,,,0,64,64,64,,,,,,,,,,,,,,,3455.0024501001462,None,"['w', 'o', 'u', 'l', 'd']",1,"[1.0873409998603165, 1.2073083999566734, 1.4552898998372257, 1.7913437001407146, 1.959341200068593]",3455.0024501001462,None,3455.002288060123,None,s286_03082024,001,2024-03-08_12h28.24.262,test_typingtask_norepeats,2020.2.10,59.976992845859094,
lucky,lucky,,,,,,,,,0,65,65,65,,,,,,,,,,,,,,,3460.5024715000764,None,"['l', 'u', 'c', 'k', 'y']",1,"[0.7473055999726057, 1.1073528998531401, 1.3553006001748145, 1.483398700132966, 1.811264700256288]",3460.5024715000764,None,3460.5023210601416,None,s286_03082024,001,2024-03-08_12h28.24.262,test_typingtask_norepeats,2020.2.10,59.976992845859094,
buddy,buddy,,,,,,,,,0,66,66,66,,,,,,,,,,,,,,,3466.0024740998633,None,"['b', 'u', 'd', 'd', 'y']",1,"[0.6873057996854186, 0.9272992997430265, 1.1193186999298632, 1.2632740996778011, 1.359273999929428]",3466.0024740998633,None,3466.0023820599076,None,s286_03082024,001,2024-03-08_12h28.24.262,test_typingtask_norepeats,2020.2.10,59.976992845859094,
vodka,vodka,,,,,,,,,0,67,67,67,,,,,,,,,,,,,,,3471.5024967999198,None,"['v', 'o', 'd', 'k', 'a']",1,"[0.9072753000073135, 1.0033142999745905, 1.1873214999213815, 1.363298499956727, 1.555260700173676]",3471.5024967999198,None,3471.502413859917,None,s286_03082024,001,2024-03-08_12h28.24.262,test_typingtask_norepeats,2020.2.10,59.976992845859094,
there,there,,,,,,,,,0,68,68,68,,,,,,,,,,,,,,,3477.0025899000466,None,"['t', 'h', 'e', 'r', 'e']",1,"[0.9592204000800848, 1.1031280001625419, 1.3112747999839485, 1.5672101001255214, 1.7592806997708976]",3477.0025899000466,None,3477.002455459768,None,s286_03082024,001,2024-03-08_12h28.24.262,test_typingtask_norepeats,2020.2.10,59.976992845859094,
vanru,vanru,,,,,,,,,0,69,69,69,,,,,,,,,,,,,,,3482.502606099937,None,"['v', 'a', 'n', 'r', 'u']",1,"[1.0191506003029644, 1.4351578000932932, 1.5713651003316045, 1.787274300120771, 1.8911274001002312]",3482.502606099937,None,3482.50248986003,None,s286_03082024,001,2024-03-08_12h28.24.262,test_typingtask_norepeats,2020.2.10,59.976992845859094,
puppy,puppy,,,,,,,,,0,70,70,70,,,,,,,,,,,,,,,3488.002632299904,None,"['p', 'u', 'p', 'p', 'y']",1,"[0.6391173000447452, 0.9511409997940063, 1.2231960999779403, 1.4071610998362303, 1.5352407000027597]",3488.002632299904,None,3488.0025153601077,None,s286_03082024,001,2024-03-08_12h28.24.262,test_typingtask_norepeats,2020.2.10,59.976992845859094,
vodka,vodka,,,,,,,,,0,71,71,71,,,,,,,,,,,,,,,3493.502636199817,None,"['v', 'o', 'd', 'k', 'a']",1,"[0.9791719997301698, 1.0750849000178277, 1.275065999943763, 1.4592173998244107, 1.6830947999842465]",3493.502636199817,None,3493.5025557599497,None,s286_03082024,001,2024-03-08_12h28.24.262,test_typingtask_norepeats,2020.2.10,59.976992845859094,
faqir,faqir,,,,,,,,,0,72,72,72,,,,,,,,,,,,,,,3499.0027020000853,None,"['f', 'a', 'q', 'i', 'r']",1,"[1.0470432001166046, 1.4951908001676202, 1.9511526999995112, 2.239059600047767, 2.390999199822545]",3499.0027020000853,None,3499.0025836600457,None,s286_03082024,001,2024-03-08_12h28.24.262,test_typingtask_norepeats,2020.2.10,59.976992845859094,
about,about,,,,,,,,,0,73,73,73,,,,,,,,,,,,,,,3504.5027533001266,None,"['a', 'b', 'o', 'u', 't']",1,"[0.7629956998862326, 0.923008400015533, 1.1790462997741997, 1.4270497998222709, 1.546928099822253]",3504.5027533001266,None,3504.5026215597522,None,s286_03082024,001,2024-03-08_12h28.24.262,test_typingtask_norepeats,2020.2.10,59.976992845859094,
zibja,zibja,,,,,,,,,0,74,74,74,,,,,,,,,,,,,,,3510.002731999848,None,"['z', 'i', 'b', 'j', 'a']",1,"[1.7030009999871254, 1.8069926002062857, 2.046970000024885, 2.286976500414312, 2.414977699983865]",3510.002731999848,None,3510.0026495599654,None,s286_03082024,001,2024-03-08_12h28.24.262,test_typingtask_norepeats,2020.2.10,59.976992845859094,
there,there,,,,,,,,,0,75,75,75,,,,,,,,,,,,,,,3515.5028610997833,None,"['t', 'h', 'e', 'r', 'e']",1,"[0.6748565998859704, 0.835010000038892, 0.9709164001978934, 1.2028423002921045, 1.4028231999836862]",3515.5028610997833,None,3515.5026820598637,None,s286_03082024,001,2024-03-08_12h28.24.262,test_typingtask_norepeats,2020.2.10,59.976992845859094,
belly,belly,,,,,,,,,0,76,76,76,,,,,,,,,,,,,,,3521.0028356998228,None,"['b', 'e', 'l', 'l', 'y']",1,"[0.6628947998397052, 0.8070384999737144, 0.9749071998521686, 1.1670291000045836, 1.2630023998208344]",3521.0028356998228,None,3521.0026869600174,None,s286_03082024,001,2024-03-08_12h28.24.262,test_typingtask_norepeats,2020.2.10,59.976992845859094,
cheer,cheer,,,,,,,,,0,77,77,77,,,,,,,,,,,,,,,3526.502835200168,None,"['c', 'h', 'e', 'e', 'r']",1,"[0.7388979000970721, 0.8988316003233194, 1.0588303999975324, 1.2588519998826087, 1.4829910001717508]",3526.502835200168,None,3526.5027121597436,None,s286_03082024,001,2024-03-08_12h28.24.262,test_typingtask_norepeats,2020.2.10,59.976992845859094,
puppy,puppy,,,,,,,,,0,78,78,78,,,,,,,,,,,,,,,3532.002867099829,None,"['p', 'u', 'p', 'p', 'y']",1,"[1.0948629998601973, 1.422877799719572, 1.678890099748969, 1.8228834997862577, 1.9029169999994338]",3532.002867099829,None,3532.0027834599373,None,s286_03082024,001,2024-03-08_12h28.24.262,test_typingtask_norepeats,2020.2.10,59.976992845859094,
about,about,,,,,,,,,0,79,79,79,,,,,,,,,,,,,,,3537.5029365001246,None,"['a', 'b', 'o', 'u', 't']",1,"[0.9467798001132905, 1.0827485998161137, 1.586761999875307, 1.8748821001499891, 2.010877199936658]",3537.5029365001246,None,3537.5028144599405,None,s286_03082024,001,2024-03-08_12h28.24.262,test_typingtask_norepeats,2020.2.10,59.976992845859094,
belly,belly,,,,,,,,,0,80,80,80,,,,,,,,,,,,,,,3543.002973999828,None,"['b', 'e', 'l', 'l', 'y']",1,"[0.6948516997508705, 0.8307320000603795, 0.9988180999644101, 1.1747348997741938, 1.2706691999919713]",3543.002973999828,None,3543.00284676007,None,s286_03082024,001,2024-03-08_12h28.24.262,test_typingtask_norepeats,2020.2.10,59.976992845859094,
puppy,puppy,,,,,,,,,0,81,81,81,,,,,,,,,,,,,,,3548.503010999877,None,"['p', 'u', 'p', 'p', 'y']",1,"[0.7067183996550739, 1.0347049999982119, 1.290657399687916, 1.4667432997375727, 1.5626434995792806]",3548.503010999877,None,3548.502874660166,None,s286_03082024,001,2024-03-08_12h28.24.262,test_typingtask_norepeats,2020.2.10,59.976992845859094,
kremp,kremp,,,,,,,,,0,82,82,82,,,,,,,,,,,,,,,3554.003030099906,None,"['k', 'r', 'e', 'm', 'p', 's']",0,"[0.950773200020194, 1.1826239000074565, 1.5906507996842265, 1.7587329000234604, 2.0227478998713195, 2.174737900029868]",3554.003030099906,None,3554.002901660139,None,s286_03082024,001,2024-03-08_12h28.24.262,test_typingtask_norepeats,2020.2.10,59.976992845859094,
cooed,cooed,,,,,,,,,0,83,83,83,,,,,,,,,,,,,,,3559.5030710999854,None,"['c', 'o', 'o', 'e', 'd']",1,"[0.8506738999858499, 0.9545932998880744, 1.1466100998222828, 1.2586808996275067, 1.5067134997807443]",3559.5030710999854,None,3559.502937159827,None,s286_03082024,001,2024-03-08_12h28.24.262,test_typingtask_norepeats,2020.2.10,59.976992845859094,
pykka,pykka,,,,,,,,,0,84,84,84,,,,,,,,,,,,,,,3565.0031018001027,None,"['p', 'y', 'k', 'k', 'a']",1,"[0.6305800997652113, 1.0305642001330853, 1.3907689000479877, 1.5665428000502288, 1.6865384997799993]",3565.0031018001027,None,3565.0029835601804,None,s286_03082024,001,2024-03-08_12h28.24.262,test_typingtask_norepeats,2020.2.10,59.976992845859094,
belly,belly,,,,,,,,,0,85,85,85,,,,,,,,,,,,,,,3570.5031383000314,None,"['b', 'e', 'l', 'l', 'y']",1,"[0.6985391001217067, 0.8667683000676334, 1.0344885000959039, 1.2264644000679255, 1.3945307997055352]",3570.5031383000314,None,3570.5030224601273,None,s286_03082024,001,2024-03-08_12h28.24.262,test_typingtask_norepeats,2020.2.10,59.976992845859094,
tithe,tithe,,,,,,,,,0,86,86,86,,,,,,,,,,,,,,,3576.003173700068,None,"['t', 'i', 't', 'h', 'e']",1,"[0.6546269999817014, 0.7906805002130568, 0.9184702001512051, 1.0624538003467023, 1.2145660002715886]",3576.003173700068,None,3576.003051359998,None,s286_03082024,001,2024-03-08_12h28.24.262,test_typingtask_norepeats,2020.2.10,59.976992845859094,
cheer,cheer,,,,,,,,,0,87,87,87,,,,,,,,,,,,,,,3581.5031944001094,None,"['c', 'h', 'e', 'e', 'r']",1,"[0.8184794001281261, 0.9864368000999093, 1.1385794999077916, 1.338429099880159, 1.5304335998371243]",3581.5031944001094,None,3581.5030488598627,None,s286_03082024,001,2024-03-08_12h28.24.262,test_typingtask_norepeats,2020.2.10,59.976992845859094,
think,think,,,,,,,,,0,88,88,88,,,,,,,,,,,,,,,3587.0032283999026,None,"['t', 'h', 'i', 'n', 'k']",1,"[0.9585881000384688, 1.086438599973917, 1.3104012999683619, 1.5508944001048803, 1.7984059997834265]",3587.0032283999026,None,3587.0030877598097,None,s286_03082024,001,2024-03-08_12h28.24.262,test_typingtask_norepeats,2020.2.10,59.976992845859094,
therm,therm,,,,,,,,,0,89,89,89,,,,,,,,,,,,,,,3592.5032346001826,None,"['t', 'h', 'e', 'r', 'm']",1,"[0.7224316000938416, 0.8903918997384608, 1.0583798000589013, 1.266520299948752, 1.4344555996358395]",3592.5032346001826,None,3592.503140959749,None,s286_03082024,001,2024-03-08_12h28.24.262,test_typingtask_norepeats,2020.2.10,59.976992845859094,
zibja,zibja,,,,,,,,,0,90,90,90,,,,,,,,,,,,,,,3598.003299199976,None,"['z', 'i', 'b', 'j', 'a']",1,"[1.4546558000147343, 1.5584607999771833, 1.806329700164497, 2.022427100222558, 2.134456100407988]",3598.003299199976,None,3598.003178459918,None,s286_03082024,001,2024-03-08_12h28.24.262,test_typingtask_norepeats,2020.2.10,59.976992845859094,
haole,haole,,,,,,,,,0,91,91,91,,,,,,,,,,,,,,,3603.5033346000127,None,"['h', 'a', 'o', 'l', 'e']",1,"[0.8342952001839876, 0.94630610011518, 1.1223332998342812, 1.3622965002432466, 1.4822737998329103]",3603.5033346000127,None,3603.503217759868,None,s286_03082024,001,2024-03-08_12h28.24.262,test_typingtask_norepeats,2020.2.10,59.976992845859094,
heond,heond,,,,,,,,,0,92,92,92,,,,,,,,,,,,,,,3609.003375600092,None,"['h', 'e', 'o', 'n', 'd']",1,"[0.7583090998232365, 0.9022977999411523, 1.006382499821484, 1.2303093001246452, 1.4063488999381661]",3609.003375600092,None,3609.003245559847,None,s286_03082024,001,2024-03-08_12h28.24.262,test_typingtask_norepeats,2020.2.10,59.976992845859094,
buddy,buddy,,,,,,,,,0,93,93,93,,,,,,,,,,,,,,,3614.503405299969,None,"['b', 'u', 'd', 'd', 'y']",1,"[1.0822457000613213, 1.3062089001759887, 1.4663853999227285, 1.6263282001018524, 1.7382248002104461]",3614.503405299969,None,3614.503448259877,None,s286_03082024,001,2024-03-08_12h28.24.262,test_typingtask_norepeats,2020.2.10,59.976992845859094,
pykka,pykka,,,,,,,,,0,94,94,94,,,,,,,,,,,,,,,3620.003433300182,None,"['p', 'y', 'k', 'k', 'a']",1,"[0.966285000089556, 1.3662316999398172, 1.7021826999261975, 1.8701757998205721, 2.0223016999661922]",3620.003433300182,None,3620.003321759729,None,s286_03082024,001,2024-03-08_12h28.24.262,test_typingtask_norepeats,2020.2.10,59.976992845859094,
there,there,,,,,,,,,0,95,95,95,,,,,,,,,,,,,,,3625.5034496998414,None,"['t', 'h', 'e', 'r', 'e']",1,"[1.5541974999941885, 1.818169199861586, 2.0101606999523938, 2.2422633999958634, 2.4341851002536714]",3625.5034496998414,None,3625.503347960161,None,s286_03082024,001,2024-03-08_12h28.24.262,test_typingtask_norepeats,2020.2.10,59.976992845859094,
druze,druze,,,,,,,,,0,96,96,96,,,,,,,,,,,,,,,3631.0034964000806,None,"['d', 'r', 'u', 'z', 'e']",1,"[2.4781410000286996, 2.6861315998248756, 2.814096899703145, 3.062086299993098, 3.3101476998999715]",3631.0034964000806,None,3631.0033858598676,None,s286_03082024,001,2024-03-08_12h28.24.262,test_typingtask_norepeats,2020.2.10,59.976992845859094,
edthe,edthe,,,,,,,,,0,97,97,97,,,,,,,,,,,,,,,3636.5035370998085,None,"['e', 'd', 't', 'h', 'e']",1,"[0.8741310997866094, 1.1221786998212337, 1.2181245000101626, 1.4260982000268996, 1.5143066998571157]",3636.5035370998085,None,3636.5034118600656,None,s286_03082024,001,2024-03-08_12h28.24.262,test_typingtask_norepeats,2020.2.10,59.976992845859094,
lucky,lucky,,,,,,,,,0,98,98,98,,,,,,,,,,,,,,,3642.003569900058,None,"['l', 'u', 'c', 'k', 'y']",1,"[1.3980669002048671, 1.6700422000139952, 1.806046100333333, 1.8940370003692806, 2.0780443004332483]",3642.003569900058,None,3642.0034476601054,None,s286_03082024,001,2024-03-08_12h28.24.262,test_typingtask_norepeats,2020.2.10,59.976992845859094,
theme,theme,,,,,,,,,0,99,99,99,,,,,,,,,,,,,,,3647.5035899002105,None,"['t', 'h', 'e', 'm', 'e']",1,"[0.6420348999090493, 0.7379886996932328, 0.9140343000181019, 1.025991799775511, 1.1540728998370469]",3647.5035899002105,None,3647.503482960025,None,s286_03082024,001,2024-03-08_12h28.24.262,test_typingtask_norepeats,2020.2.10,59.976992845859094,
kremp,kremp,,,,,,,,,0,100,100,100,,,,,,,,,,,,,,,3653.0036173001863,None,"['k', 'r', 'e', 'm', 'p']",1,"[0.9340193001553416, 1.1100146998651326, 1.3179251998662949, 1.4300409001298249, 1.7901178998872638]",3653.0036173001863,None,3653.0035209598486,None,s286_03082024,001,2024-03-08_12h28.24.262,test_typingtask_norepeats,2020.2.10,59.976992845859094,
cooed,cooed,,,,,,,,,0,101,101,101,,,,,,,,,,,,,,,3658.503630499821,None,"['c', 'o', 'o', 'e', 'd']",1,"[0.7459593000821769, 0.8419566000811756, 1.0260147000662982, 1.129918200429529, 1.3620751001872122]",3658.503630499821,None,3658.503548560059,None,s286_03082024,001,2024-03-08_12h28.24.262,test_typingtask_norepeats,2020.2.10,59.976992845859094,
think,think,,,,,,,,,0,102,102,102,,,,,,,,,,,,,,,3664.003704399802,None,"['t', 'h', 'i', 'n', 'k']",1,"[0.6938088997267187, 0.8461257996968925, 1.0298569998703897, 1.285903399810195, 1.51785789988935]",3664.003704399802,None,3664.0035903601442,None,s286_03082024,001,2024-03-08_12h28.24.262,test_typingtask_norepeats,2020.2.10,59.976992845859094,
druze,druze,,,,,,,,,0,103,103,103,,,,,,,,,,,,,,,3669.503735099919,None,"['d', 'r', 'u', 'z', 'e']",1,"[0.8899499997496605, 1.1458731000311673, 1.3940070997923613, 1.5778634999878705, 1.83382109971717]",3669.503735099919,None,3669.5036343600136,None,s286_03082024,001,2024-03-08_12h28.24.262,test_typingtask_norepeats,2020.2.10,59.976992845859094,
theme,theme,,,,,,,,,0,104,104,104,,,,,,,,,,,,,,,3675.0037672999315,None,"['t', 'h', 'e', 'm', 'e']",1,"[0.6457719998434186, 0.7817572001367807, 0.9658340001478791, 1.0617737998254597, 1.2379354001022875]",3675.0037672999315,None,3675.0036521599163,None,s286_03082024,001,2024-03-08_12h28.24.262,test_typingtask_norepeats,2020.2.10,59.976992845859094,
zibja,zibja,,,,,,,,,0,105,105,105,,,,,,,,,,,,,,,3680.503800599836,None,"['z', 'i', 'b', 'j', 'a']",1,"[1.4578316998668015, 1.577818099875003, 1.8258762997575104, 2.049766100011766, 2.153793499805033]",3680.503800599836,None,3680.5036935599987,None,s286_03082024,001,2024-03-08_12h28.24.262,test_typingtask_norepeats,2020.2.10,59.976992845859094,
champ,champ,,,,,,,,,0,106,106,106,,,,,,,,,,,,,,,3686.003814099822,None,"['h', 'backspace', 'c', 'h', 'a', 'm', 'p']",0,"[1.0137229999527335, 1.525714899878949, 1.845724799670279, 1.9417117997072637, 2.141700899694115, 2.2137241000309587, 2.413765700068325]",3686.003814099822,None,3686.0037217599806,None,s286_03082024,001,2024-03-08_12h28.24.262,test_typingtask_norepeats,2020.2.10,59.976992845859094,
buddy,buddy,,,,,,,,,0,107,107,107,,,,,,,,,,,,,,,3691.5038608000614,None,"['b', 'u', 'd', 'd', 'y']",1,"[0.7537095001898706, 0.9937092000618577, 1.1058506001718342, 1.28970339987427, 1.3856943999417126]",3691.5038608000614,None,3691.503763560066,None,s286_03082024,001,2024-03-08_12h28.24.262,test_typingtask_norepeats,2020.2.10,59.976992845859094,
think,think,,,,,,,,,0,108,108,108,,,,,,,,,,,,,,,3697.0039019999094,None,"['t', 'h', 'i', 'n', 'k']",1,"[0.6856808001175523, 0.8216415997594595, 1.021627299953252, 1.2856545001268387, 1.6376578998751938]",3697.0039019999094,None,3697.003747059824,None,s286_03082024,001,2024-03-08_12h28.24.262,test_typingtask_norepeats,2020.2.10,59.976992845859094,
heond,heond,,,,,,,,,0,109,109,109,,,,,,,,,,,,,,,3702.503875200171,None,"['h', 'e', 'o', 'n', 'd']",1,"[0.7216794998385012, 0.8896377999335527, 0.9779154998250306, 1.1856672000139952, 1.3056365996599197]",3702.503875200171,None,3702.503842159966,3702.6039396999404,s286_03082024,001,2024-03-08_12h28.24.262,test_typingtask_norepeats,2020.2.10,59.976992845859094,
druze,druze,,,,,,,,,0,110,110,110,,,,,,,,,,,,,,,3708.0039686998352,None,"['d', 'r', 'u', 'z', 'e']",1,"[0.8056226000189781, 1.0295526999980211, 1.157579000107944, 1.4615680002607405, 1.8055680003017187]",3708.0039686998352,None,3708.003814659873,3708.103974199854,s286_03082024,001,2024-03-08_12h28.24.262,test_typingtask_norepeats,2020.2.10,59.976992845859094,
vanru,vanru,,,,,,,,,0,111,111,111,,,,,,,,,,,,,,,3713.5040142000653,None,"['v', 'a', 'n', 'r', 'u']",1,"[0.9136779000982642, 1.081500600092113, 1.2415852001868188, 1.4575358000583947, 1.5695802997797728]",3713.5040142000653,None,3713.5038854599466,3713.604011700023,s286_03082024,001,2024-03-08_12h28.24.262,test_typingtask_norepeats,2020.2.10,59.976992845859094,
belly,belly,,,,,,,,,0,112,112,112,,,,,,,,,,,,,,,3719.004011299927,None,"['b', 'e', 'l', 'l', 'y']",1,"[0.6455329996533692, 0.7895019999705255, 0.9735606997273862, 1.1575073995627463, 1.2534964997321367]",3719.004011299927,None,3719.003928460041,3719.104010900017,s286_03082024,001,2024-03-08_12h28.24.262,test_typingtask_norepeats,2020.2.10,59.976992845859094,
druze,druze,,,,,,,,,0,113,113,113,,,,,,,,,,,,,,,3724.5042118998244,None,"['d', 'r', 'u', 'z', 'e']",1,"[1.505319300107658, 1.705377500038594, 1.8494123998098075, 2.153294200077653, 2.4173908000811934]",3724.5042118998244,None,3724.503977559833,3724.6040364000946,s286_03082024,001,2024-03-08_12h28.24.262,test_typingtask_norepeats,2020.2.10,59.976992845859094,
kremp,kremp,,,,,,,,,0,114,114,114,,,,,,,,,,,,,,,3730.004106000066,None,"['k', 'r', 'e', 'm', 'p']",1,"[0.8614348000846803, 0.9814234003424644, 1.2454556003212929, 1.3494471004232764, 1.6374004003591835]",3730.004106000066,None,3730.003991360171,3730.1041111000814,s286_03082024,001,2024-03-08_12h28.24.262,test_typingtask_norepeats,2020.2.10,59.976992845859094,
therm,therm,,,,,,,,,0,115,115,115,,,,,,,,,,,,,,,3735.504132799804,None,"['t', 'h', 'e', 'r', 'm']",1,"[0.6735282000154257, 0.7776044001802802, 0.9854822000488639, 1.1853848998434842, 1.29751589987427]",3735.504132799804,None,3735.504016260011,None,s286_03082024,001,2024-03-08_12h28.24.262,test_typingtask_norepeats,2020.2.10,59.976992845859094,
vodka,vodka,,,,,,,,,0,116,116,116,,,,,,,,,,,,,,,3741.0041519999504,None,"['v', 'o', 'd', 'k', 'a']",1,"[0.9653717000037432, 1.0693312003277242, 1.229419100098312, 1.4053509002551436, 1.6213627001270652]",3741.0041519999504,None,3741.004057359742,None,s286_03082024,001,2024-03-08_12h28.24.262,test_typingtask_norepeats,2020.2.10,59.976992845859094,
about,about,,,,,,,,,0,117,117,117,,,,,,,,,,,,,,,3746.5042008999735,None,"['a', 'b', 'o', 'u', 't']",1,"[0.9693181999027729, 1.0973447998985648, 1.3693671999499202, 1.6092996997758746, 1.7133701997809112]",3746.5042008999735,None,3746.5040908598808,None,s286_03082024,001,2024-03-08_12h28.24.262,test_typingtask_norepeats,2020.2.10,59.976992845859094,
kremp,kremp,,,,,,,,,0,118,118,118,,,,,,,,,,,,,,,3752.0044404999353,None,"['k', 'r', 'e', 'm', 'p']",1,"[1.0370698003098369, 1.181129700038582, 1.4370267000049353, 1.5650609000585973, 1.837087200023234]",3752.0044404999353,None,3752.0041186598596,None,s286_03082024,001,2024-03-08_12h28.24.262,test_typingtask_norepeats,2020.2.10,59.976992845859094,
cooed,cooed,,,,,,,,,0,119,119,119,,,,,,,,,,,,,,,3757.5043063000776,None,"['c', 'o', 'o', 'e', 'd']",1,"[0.9612039001658559, 1.1452484000474215, 1.2972752000205219, 1.4172033001668751, 1.6651873998343945]",3757.5043063000776,None,3757.5041561600287,None,s286_03082024,001,2024-03-08_12h28.24.262,test_typingtask_norepeats,2020.2.10,59.976992845859094,
