string,corrAns,practice_trials.thisRepN,practice_trials.thisTrialN,practice_trials.thisN,practice_trials.thisIndex,trials_1.thisRepN,trials_1.thisTrialN,trials_1.thisN,trials_1.thisIndex,trials_2.thisRepN,trials_2.thisTrialN,trials_2.thisN,trials_2.thisIndex,trials_3.thisRepN,trials_3.thisTrialN,trials_3.thisN,trials_3.thisIndex,key_resp_0.keys,key_resp_0.corr,key_resp_0.rt,text_1.started,text_1.stopped,key_resp_1.keys,key_resp_1.corr,key_resp_1.rt,key_resp_1.started,key_resp_1.stopped,sound_1A_1.started,sound_1A_1.stopped,break_time.started,break_time.stopped,text_2.started,text_2.stopped,key_resp_2.keys,key_resp_2.corr,key_resp_2.rt,key_resp_2.started,key_resp_2.stopped,sound_1A_2.started,sound_1A_2.stopped,text_3.started,text_3.stopped,key_resp_3.keys,key_resp_3.corr,key_resp_3.rt,key_resp_3.started,key_resp_3.stopped,sound_1A_3.started,sound_1A_3.stopped,participant,session,date,expName,psychopyVersion,frameRate,
fresh,fresh,0,0,0,0,,,,,,,,,,,,,"['f', 'r', 'e', 's', 'h']",1,"[0.7120589170081075, 0.8908175000105985, 0.9630460830085212, 1.0550800420023734, 1.200598000010359]",,,,,,,,,,,,,,,,,,,,,,,,,,,,,,fjdksla,001,2022_Mar_16_1620,test_typingtask_norepeats_20rep,2020.2.10,60.00982661232527,
dream,dream,0,1,1,1,,,,,,,,,,,,,"['f', 'j', 'd', 'k', 'l']",0,"[0.48675587499747053, 0.5227962079952704, 0.5786615410033846, 0.5991605830058688, 0.6427149579976685]",,,,,,,,,,,,,,,,,,,,,,,,,,,,,,fjdksla,001,2022_Mar_16_1620,test_typingtask_norepeats_20rep,2020.2.10,60.00982661232527,
slime,slime,0,2,2,2,,,,,,,,,,,,,"['s', 'l', 'i', 'm', 'e']",1,"[0.6776847500004806, 0.7257771250006044, 0.8617330830020364, 0.9339144580007996, 1.0057678750017658]",,,,,,,,,,,,,,,,,,,,,,,,,,,,,,fjdksla,001,2022_Mar_16_1620,test_typingtask_norepeats_20rep,2020.2.10,60.00982661232527,
cooed,cooed,,,,,0,0,0,0,,,,,,,,,,,,33.84483512499719,None,"['c', 'o', 'o', 'e', 'd']",1,"[0.8137937080027768, 0.9257410830032313, 1.0200669990008464, 1.1113052490109112, 1.2630901660013478]",33.84483512499719,None,33.845149987192414,33.94490274999407,,,,,,,,,,,,,,,,,,,,,fjdksla,001,2022_Mar_16_1620,test_typingtask_norepeats_20rep,2020.2.10,60.00982661232527,
about,about,,,,,0,1,1,1,,,,,,,,,,,,39.3441501250054,None,"['f', 'j', 'd', 'k']",0,"[0.4625133750087116, 0.5225551250041462, 0.554387416006648, 0.5943361250101589]",39.3441501250054,None,39.34591582019202,39.444888540994725,,,,,,,,,,,,,,,,,,,,,fjdksla,001,2022_Mar_16_1620,test_typingtask_norepeats_20rep,2020.2.10,60.00982661232527,
haole,haole,,,,,0,2,2,2,,,,,,,,,,,,44.84467695800413,None,"['h', 'a', 'o', 'l', 'e']",1,"[1.2004095829906873, 1.3126411659904988, 1.3927220000041416, 1.5349602909991518, 1.6522879160038428]",44.84467695800413,None,44.84542552919156,44.94535379100125,,,,,,,,,,,,,,,,,,,,,fjdksla,001,2022_Mar_16_1620,test_typingtask_norepeats_20rep,2020.2.10,60.00982661232527,
zibja,zibja,,,,,0,3,3,3,,,,,,,,,,,,50.36176012500073,None,None,0,,50.36176012500073,None,50.361394904194455,50.46182941600273,,,,,,,,,,,,,,,,,,,,,fjdksla,001,2022_Mar_16_1620,test_typingtask_norepeats_20rep,2020.2.10,60.00982661232527,
theme,theme,,,,,0,4,4,4,,,,,,,,,,,,55.84512962499866,None,None,0,,55.84512962499866,None,55.84569519520009,55.94491416600067,,,,,,,,,,,,,,,,,,,,,fjdksla,001,2022_Mar_16_1620,test_typingtask_norepeats_20rep,2020.2.10,60.00982661232527,
belly,belly,,,,,0,5,5,5,,,,,,,,,,,,61.361307625003974,None,None,0,,61.361307625003974,None,61.36229536220053,61.46177900000475,,,,,,,,,,,,,,,,,,,,,fjdksla,001,2022_Mar_16_1620,test_typingtask_norepeats_20rep,2020.2.10,60.00982661232527,
there,there,,,,,0,6,6,6,,,,,,,,,,,,66.86140312500356,None,None,0,,66.86140312500356,None,66.86230102919653,66.96225187499658,,,,,,,,,,,,,,,,,,,,,fjdksla,001,2022_Mar_16_1620,test_typingtask_norepeats_20rep,2020.2.10,60.00982661232527,
heond,heond,,,,,0,7,7,7,,,,,,,,,,,,72.37834949999524,None,None,0,,72.37834949999524,None,72.37838361219183,72.47858745799749,,,,,,,,,,,,,,,,,,,,,fjdksla,001,2022_Mar_16_1620,test_typingtask_norepeats_20rep,2020.2.10,60.00982661232527,
therm,therm,,,,,0,8,8,8,,,,,,,,,,,,77.86156424999353,None,None,0,,77.86156424999353,None,77.86199365419888,77.96232112500002,,,,,,,,,,,,,,,,,,,,,fjdksla,001,2022_Mar_16_1620,test_typingtask_norepeats_20rep,2020.2.10,60.00982661232527,
cooed,cooed,,,,,0,9,9,9,,,,,,,,,,,,83.3615298329969,None,None,0,,83.3615298329969,None,83.36224615420069,83.46166004099359,,,,,,,,,,,,,,,,,,,,,fjdksla,001,2022_Mar_16_1620,test_typingtask_norepeats_20rep,2020.2.10,60.00982661232527,
there,there,,,,,0,10,10,10,,,,,,,,,,,,88.86149087500235,None,None,0,,88.86149087500235,None,88.86204590420384,88.96188808299485,,,,,,,,,,,,,,,,,,,,,fjdksla,001,2022_Mar_16_1620,test_typingtask_norepeats_20rep,2020.2.10,60.00982661232527,
would,would,,,,,0,11,11,11,,,,,,,,,,,,94.36148041600245,None,None,0,,94.36148041600245,None,94.36237032019271,94.46199416600575,,,,,,,,,,,,,,,,,,,,,fjdksla,001,2022_Mar_16_1620,test_typingtask_norepeats_20rep,2020.2.10,60.00982661232527,
pykka,pykka,,,,,0,12,12,12,,,,,,,,,,,,99.86152754099749,None,None,0,,99.86152754099749,None,99.86174657020165,99.96209408300638,,,,,,,,,,,,,,,,,,,,,fjdksla,001,2022_Mar_16_1620,test_typingtask_norepeats_20rep,2020.2.10,60.00982661232527,
puppy,puppy,,,,,0,13,13,13,,,,,,,,,,,,105.3615324160055,None,None,0,,105.3615324160055,None,105.36199986219144,105.46184841600189,,,,,,,,,,,,,,,,,,,,,fjdksla,001,2022_Mar_16_1620,test_typingtask_norepeats_20rep,2020.2.10,60.00982661232527,
belly,belly,,,,,0,14,14,14,,,,,,,,,,,,110.86137183300161,None,None,0,,110.86137183300161,None,110.86200315419846,110.96201154099253,,,,,,,,,,,,,,,,,,,,,fjdksla,001,2022_Mar_16_1620,test_typingtask_norepeats_20rep,2020.2.10,60.00982661232527,
druze,druze,,,,,0,15,15,15,,,,,,,,,,,,116.36137512499408,None,None,0,,116.36137512499408,None,116.36214786219789,116.46233687500353,,,,,,,,,,,,,,,,,,,,,fjdksla,001,2022_Mar_16_1620,test_typingtask_norepeats_20rep,2020.2.10,60.00982661232527,
puppy,puppy,,,,,0,16,16,16,,,,,,,,,,,,121.86168141600501,None,None,0,,121.86168141600501,None,121.86240502920263,121.96185708300618,,,,,,,,,,,,,,,,,,,,,fjdksla,001,2022_Mar_16_1620,test_typingtask_norepeats_20rep,2020.2.10,60.00982661232527,
lucky,lucky,,,,,0,17,17,17,,,,,,,,,,,,127.36159829099779,None,None,0,,127.36159829099779,None,127.36211407019145,127.46215270800167,,,,,,,,,,,,,,,,,,,,,fjdksla,001,2022_Mar_16_1620,test_typingtask_norepeats_20rep,2020.2.10,60.00982661232527,
champ,champ,,,,,0,18,18,18,,,,,,,,,,,,132.8612350409967,None,None,0,,132.8612350409967,None,132.86236157019886,132.96203054100624,,,,,,,,,,,,,,,,,,,,,fjdksla,001,2022_Mar_16_1620,test_typingtask_norepeats_20rep,2020.2.10,60.00982661232527,
vodka,vodka,,,,,0,19,19,19,,,,,,,,,,,,138.36095987500448,None,None,0,,138.36095987500448,None,138.36181740419562,138.46170716600318,,,,,,,,,,,,,,,,,,,,,fjdksla,001,2022_Mar_16_1620,test_typingtask_norepeats_20rep,2020.2.10,60.00982661232527,
isvar,isvar,,,,,0,20,20,20,,,,,,,,,,,,143.86173333300394,None,None,0,,143.86173333300394,None,143.8621009451934,143.96200379100628,,,,,,,,,,,,,,,,,,,,,fjdksla,001,2022_Mar_16_1620,test_typingtask_norepeats_20rep,2020.2.10,60.00982661232527,
haole,haole,,,,,0,21,21,21,,,,,,,,,,,,149.36162158299703,None,None,0,,149.36162158299703,None,149.3620450702045,149.46192220799276,,,,,,,,,,,,,,,,,,,,,fjdksla,001,2022_Mar_16_1620,test_typingtask_norepeats_20rep,2020.2.10,60.00982661232527,
vodka,vodka,,,,,0,22,22,22,,,,,,,,,,,,154.86218870799348,None,None,0,,154.86218870799348,None,154.8619690701933,154.96177391600213,,,,,,,,,,,,,,,,,,,,,fjdksla,001,2022_Mar_16_1620,test_typingtask_norepeats_20rep,2020.2.10,60.00982661232527,
heond,heond,,,,,0,23,23,23,,,,,,,,,,,,160.36137258299277,None,None,0,,160.36137258299277,None,160.362137654204,160.46223108300183,,,,,,,,,,,,,,,,,,,,,fjdksla,001,2022_Mar_16_1620,test_typingtask_norepeats_20rep,2020.2.10,60.00982661232527,
druze,druze,,,,,0,24,24,24,,,,,,,,,,,,165.86135329099488,None,None,0,,165.86135329099488,None,165.8624465291985,165.9647825830034,,,,,,,,,,,,,,,,,,,,,fjdksla,001,2022_Mar_16_1620,test_typingtask_norepeats_20rep,2020.2.10,60.00982661232527,
cheer,cheer,,,,,0,25,25,25,,,,,,,,,,,,171.36141358299938,None,None,0,,171.36141358299938,None,171.3621467792007,171.46181908299332,,,,,,,,,,,,,,,,,,,,,fjdksla,001,2022_Mar_16_1620,test_typingtask_norepeats_20rep,2020.2.10,60.00982661232527,
faqir,faqir,,,,,0,26,26,26,,,,,,,,,,,,176.86146391599323,None,None,0,,176.86146391599323,None,176.8618251121996,176.96170841599815,,,,,,,,,,,,,,,,,,,,,fjdksla,001,2022_Mar_16_1620,test_typingtask_norepeats_20rep,2020.2.10,60.00982661232527,
heond,heond,,,,,0,27,27,27,,,,,,,,,,,,182.36202158300148,None,None,0,,182.36202158300148,None,182.362358487201,None,,,,,,,,,,,,,,,,,,,,,fjdksla,001,2022_Mar_16_1620,test_typingtask_norepeats_20rep,2020.2.10,60.00982661232527,
think,think,,,,,0,28,28,28,,,,,,,,,,,,187.86159983300604,None,None,0,,187.86159983300604,None,187.8625830292047,187.96211445800145,,,,,,,,,,,,,,,,,,,,,fjdksla,001,2022_Mar_16_1620,test_typingtask_norepeats_20rep,2020.2.10,60.00982661232527,
isvar,isvar,,,,,0,29,29,29,,,,,,,,,,,,193.36136233300203,None,None,0,,193.36136233300203,None,193.36219307019638,193.4616856250068,,,,,,,,,,,,,,,,,,,,,fjdksla,001,2022_Mar_16_1620,test_typingtask_norepeats_20rep,2020.2.10,60.00982661232527,
would,would,,,,,0,30,30,30,,,,,,,,,,,,198.86207654100144,None,None,0,,198.86207654100144,None,198.86204244519905,198.96170712499588,,,,,,,,,,,,,,,,,,,,,fjdksla,001,2022_Mar_16_1620,test_typingtask_norepeats_20rep,2020.2.10,60.00982661232527,
about,about,,,,,0,31,31,31,,,,,,,,,,,,204.36166987499746,None,None,0,,204.36166987499746,None,204.3616970702031,204.4616248329985,,,,,,,,,,,,,,,,,,,,,fjdksla,001,2022_Mar_16_1620,test_typingtask_norepeats_20rep,2020.2.10,60.00982661232527,
haole,haole,,,,,0,32,32,32,,,,,,,,,,,,209.861431790996,None,None,0,,209.861431790996,None,209.8621203201954,209.96191787499993,,,,,,,,,,,,,,,,,,,,,fjdksla,001,2022_Mar_16_1620,test_typingtask_norepeats_20rep,2020.2.10,60.00982661232527,
champ,champ,,,,,0,33,33,33,,,,,,,,,,,,215.3613021659985,None,None,0,,215.3613021659985,None,215.36191173720437,215.46159395799623,,,,,,,,,,,,,,,,,,,,,fjdksla,001,2022_Mar_16_1620,test_typingtask_norepeats_20rep,2020.2.10,60.00982661232527,
lucky,lucky,,,,,0,34,34,34,,,,,,,,,,,,220.86144016600156,None,None,0,,220.86144016600156,None,220.86223982020311,220.9614859160065,,,,,,,,,,,,,,,,,,,,,fjdksla,001,2022_Mar_16_1620,test_typingtask_norepeats_20rep,2020.2.10,60.00982661232527,
about,about,,,,,0,35,35,35,,,,,,,,,,,,226.3623903330008,None,None,0,,226.3623903330008,None,226.36165890419653,226.46168254100485,,,,,,,,,,,,,,,,,,,,,fjdksla,001,2022_Mar_16_1620,test_typingtask_norepeats_20rep,2020.2.10,60.00982661232527,
lucky,lucky,,,,,0,36,36,36,,,,,,,,,,,,231.86156820799806,None,None,0,,231.86156820799806,None,231.86167877920235,231.96195291599724,,,,,,,,,,,,,,,,,,,,,fjdksla,001,2022_Mar_16_1620,test_typingtask_norepeats_20rep,2020.2.10,60.00982661232527,
kremp,kremp,,,,,0,37,37,37,,,,,,,,,,,,237.36108191599487,None,None,0,,237.36108191599487,None,237.36266207020236,237.46238970800187,,,,,,,,,,,,,,,,,,,,,fjdksla,001,2022_Mar_16_1620,test_typingtask_norepeats_20rep,2020.2.10,60.00982661232527,
think,think,,,,,0,38,38,38,,,,,,,,,,,,242.8611789580027,None,None,0,,242.8611789580027,None,242.8621178622023,242.96166025000275,,,,,,,,,,,,,,,,,,,,,fjdksla,001,2022_Mar_16_1620,test_typingtask_norepeats_20rep,2020.2.10,60.00982661232527,
faqir,faqir,,,,,0,39,39,39,,,,,,,,,,,,248.36124570800166,None,None,0,,248.36124570800166,None,248.36202102920362,248.46215599999414,,,,,,,,,,,,,,,,,,,,,fjdksla,001,2022_Mar_16_1620,test_typingtask_norepeats_20rep,2020.2.10,60.00982661232527,
kremp,kremp,,,,,0,40,40,40,,,,,,,,,,,,253.86159533300088,None,None,0,,253.86159533300088,None,253.86223007020163,253.96152954100398,,,,,,,,,,,,,,,,,,,,,fjdksla,001,2022_Mar_16_1620,test_typingtask_norepeats_20rep,2020.2.10,60.00982661232527,
cheer,cheer,,,,,0,41,41,41,,,,,,,,,,,,259.360657540994,None,None,0,,259.360657540994,None,259.3625964451974,259.4624239580007,,,,,,,,,,,,,,,,,,,,,fjdksla,001,2022_Mar_16_1620,test_typingtask_norepeats_20rep,2020.2.10,60.00982661232527,
tithe,tithe,,,,,0,42,42,42,,,,,,,,,,,,264.8612892910023,None,None,0,,264.8612892910023,None,264.8622578621915,264.9618694160017,,,,,,,,,,,,,,,,,,,,,fjdksla,001,2022_Mar_16_1620,test_typingtask_norepeats_20rep,2020.2.10,60.00982661232527,
faqir,faqir,,,,,0,43,43,43,,,,,,,,,,,,270.3615114580025,None,None,0,,270.3615114580025,None,270.36211569520384,270.4619555829995,,,,,,,,,,,,,,,,,,,,,fjdksla,001,2022_Mar_16_1620,test_typingtask_norepeats_20rep,2020.2.10,60.00982661232527,
vodka,vodka,,,,,0,44,44,44,,,,,,,,,,,,275.8615228330018,None,None,0,,275.8615228330018,None,275.86238457019937,275.96160070800397,,,,,,,,,,,,,,,,,,,,,fjdksla,001,2022_Mar_16_1620,test_typingtask_norepeats_20rep,2020.2.10,60.00982661232527,
think,think,,,,,0,45,45,45,,,,,,,,,,,,281.36140287500166,None,None,0,,281.36140287500166,None,281.36186119520136,281.46168054100417,,,,,,,,,,,,,,,,,,,,,fjdksla,001,2022_Mar_16_1620,test_typingtask_norepeats_20rep,2020.2.10,60.00982661232527,
buddy,buddy,,,,,0,46,46,46,,,,,,,,,,,,286.8617107500031,None,None,0,,286.8617107500031,None,286.86183586219414,286.9617827079928,,,,,,,,,,,,,,,,,,,,,fjdksla,001,2022_Mar_16_1620,test_typingtask_norepeats_20rep,2020.2.10,60.00982661232527,
therm,therm,,,,,0,47,47,47,,,,,,,,,,,,292.3626152910001,None,None,0,,292.3626152910001,None,292.3617769041928,292.4619789580029,,,,,,,,,,,,,,,,,,,,,fjdksla,001,2022_Mar_16_1620,test_typingtask_norepeats_20rep,2020.2.10,60.00982661232527,
cooed,cooed,,,,,0,48,48,48,,,,,,,,,,,,297.86213129099633,None,None,0,,297.86213129099633,None,297.86236527920556,297.96113283300656,,,,,,,,,,,,,,,,,,,,,fjdksla,001,2022_Mar_16_1620,test_typingtask_norepeats_20rep,2020.2.10,60.00982661232527,
about,about,,,,,0,49,49,49,,,,,,,,,,,,303.3614006660064,None,None,0,,303.3614006660064,None,303.36186473719573,303.46211487500113,,,,,,,,,,,,,,,,,,,,,fjdksla,001,2022_Mar_16_1620,test_typingtask_norepeats_20rep,2020.2.10,60.00982661232527,
champ,champ,,,,,0,50,50,50,,,,,,,,,,,,308.8613085410034,None,None,0,,308.8613085410034,None,308.8614966952053,308.9618401659973,,,,,,,,,,,,,,,,,,,,,fjdksla,001,2022_Mar_16_1620,test_typingtask_norepeats_20rep,2020.2.10,60.00982661232527,
cheer,cheer,,,,,0,51,51,51,,,,,,,,,,,,314.36141379100445,None,None,0,,314.36141379100445,None,314.36227027919523,314.46178037500067,,,,,,,,,,,,,,,,,,,,,fjdksla,001,2022_Mar_16_1620,test_typingtask_norepeats_20rep,2020.2.10,60.00982661232527,
puppy,puppy,,,,,0,52,52,52,,,,,,,,,,,,319.8616017500026,None,None,0,,319.8616017500026,None,319.8620717372003,319.9617437910056,,,,,,,,,,,,,,,,,,,,,fjdksla,001,2022_Mar_16_1620,test_typingtask_norepeats_20rep,2020.2.10,60.00982661232527,
pykka,pykka,,,,,0,53,53,53,,,,,,,,,,,,325.3618889999925,None,None,0,,325.3618889999925,None,325.3623944041945,None,,,,,,,,,,,,,,,,,,,,,fjdksla,001,2022_Mar_16_1620,test_typingtask_norepeats_20rep,2020.2.10,60.00982661232527,
therm,therm,,,,,0,54,54,54,,,,,,,,,,,,330.8613717910048,None,None,0,,330.8613717910048,None,330.86173623719225,330.96203545799654,,,,,,,,,,,,,,,,,,,,,fjdksla,001,2022_Mar_16_1620,test_typingtask_norepeats_20rep,2020.2.10,60.00982661232527,
faqir,faqir,,,,,0,55,55,55,,,,,,,,,,,,336.3612262499955,None,None,0,,336.3612262499955,None,336.3617197791944,336.4617026250053,,,,,,,,,,,,,,,,,,,,,fjdksla,001,2022_Mar_16_1620,test_typingtask_norepeats_20rep,2020.2.10,60.00982661232527,
belly,belly,,,,,0,56,56,56,,,,,,,,,,,,341.8621490410005,None,None,0,,341.8621490410005,None,341.86222436219833,None,,,,,,,,,,,,,,,,,,,,,fjdksla,001,2022_Mar_16_1620,test_typingtask_norepeats_20rep,2020.2.10,60.00982661232527,
there,there,,,,,0,57,57,57,,,,,,,,,,,,347.3612271250022,None,None,0,,347.3612271250022,None,347.36206494519575,347.4621245830058,,,,,,,,,,,,,,,,,,,,,fjdksla,001,2022_Mar_16_1620,test_typingtask_norepeats_20rep,2020.2.10,60.00982661232527,
isvar,isvar,,,,,0,58,58,58,,,,,,,,,,,,352.8612505409983,None,None,0,,352.8612505409983,None,352.8618937791951,352.9614294159983,,,,,,,,,,,,,,,,,,,,,fjdksla,001,2022_Mar_16_1620,test_typingtask_norepeats_20rep,2020.2.10,60.00982661232527,
druze,druze,,,,,0,59,59,59,,,,,,,,,,,,358.3626164159941,None,None,0,,358.3626164159941,None,358.3623776952052,358.4618207080057,,,,,,,,,,,,,,,,,,,,,fjdksla,001,2022_Mar_16_1620,test_typingtask_norepeats_20rep,2020.2.10,60.00982661232527,
isvar,isvar,,,,,0,60,60,60,,,,,,,,,,,,363.86118812499626,None,None,0,,363.86118812499626,None,363.8618455291915,363.9615316660056,,,,,,,,,,,,,,,,,,,,,fjdksla,001,2022_Mar_16_1620,test_typingtask_norepeats_20rep,2020.2.10,60.00982661232527,
edthe,edthe,,,,,0,61,61,61,,,,,,,,,,,,369.36116012500133,None,None,0,,369.36116012500133,None,369.36167936219573,369.4618561249954,,,,,,,,,,,,,,,,,,,,,fjdksla,001,2022_Mar_16_1620,test_typingtask_norepeats_20rep,2020.2.10,60.00982661232527,
zibja,zibja,,,,,0,62,62,62,,,,,,,,,,,,374.86187712500396,None,None,0,,374.86187712500396,None,374.86202082019446,374.96214166599384,,,,,,,,,,,,,,,,,,,,,fjdksla,001,2022_Mar_16_1620,test_typingtask_norepeats_20rep,2020.2.10,60.00982661232527,
think,think,,,,,0,63,63,63,,,,,,,,,,,,380.36118725000415,None,None,0,,380.36118725000415,None,380.3619761541966,380.46162637500674,,,,,,,,,,,,,,,,,,,,,fjdksla,001,2022_Mar_16_1620,test_typingtask_norepeats_20rep,2020.2.10,60.00982661232527,
kremp,kremp,,,,,0,64,64,64,,,,,,,,,,,,385.8618237079936,None,None,0,,385.8618237079936,None,385.86199277919224,385.961583915996,,,,,,,,,,,,,,,,,,,,,fjdksla,001,2022_Mar_16_1620,test_typingtask_norepeats_20rep,2020.2.10,60.00982661232527,
lucky,lucky,,,,,0,65,65,65,,,,,,,,,,,,391.3617012909963,None,None,0,,391.3617012909963,None,391.3624628201986,391.462196708002,,,,,,,,,,,,,,,,,,,,,fjdksla,001,2022_Mar_16_1620,test_typingtask_norepeats_20rep,2020.2.10,60.00982661232527,
champ,champ,,,,,0,66,66,66,,,,,,,,,,,,396.8612906250055,None,None,0,,396.8612906250055,None,396.8621562792003,396.96165991599264,,,,,,,,,,,,,,,,,,,,,fjdksla,001,2022_Mar_16_1620,test_typingtask_norepeats_20rep,2020.2.10,60.00982661232527,
would,would,,,,,0,67,67,67,,,,,,,,,,,,402.36176854099904,None,None,0,,402.36176854099904,None,402.3615471542042,402.4618495829927,,,,,,,,,,,,,,,,,,,,,fjdksla,001,2022_Mar_16_1620,test_typingtask_norepeats_20rep,2020.2.10,60.00982661232527,
theme,theme,,,,,0,68,68,68,,,,,,,,,,,,407.8614843329997,None,None,0,,407.8614843329997,None,407.86211390419777,407.9621161660034,,,,,,,,,,,,,,,,,,,,,fjdksla,001,2022_Mar_16_1620,test_typingtask_norepeats_20rep,2020.2.10,60.00982661232527,
druze,druze,,,,,0,69,69,69,,,,,,,,,,,,413.3778814999969,None,None,0,,413.3778814999969,None,413.37864123720357,413.47894191599335,,,,,,,,,,,,,,,,,,,,,fjdksla,001,2022_Mar_16_1620,test_typingtask_norepeats_20rep,2020.2.10,60.00982661232527,
pykka,pykka,,,,,0,70,70,70,,,,,,,,,,,,418.8780960830045,None,None,0,,418.8780960830045,None,418.8786864871989,418.97898454099777,,,,,,,,,,,,,,,,,,,,,fjdksla,001,2022_Mar_16_1620,test_typingtask_norepeats_20rep,2020.2.10,60.00982661232527,
haole,haole,,,,,0,71,71,71,,,,,,,,,,,,424.3791269159992,None,None,0,,424.3791269159992,None,424.3784149452011,424.47875070800364,,,,,,,,,,,,,,,,,,,,,fjdksla,001,2022_Mar_16_1620,test_typingtask_norepeats_20rep,2020.2.10,60.00982661232527,
zibja,zibja,,,,,0,72,72,72,,,,,,,,,,,,429.8788252079976,None,None,0,,429.8788252079976,None,429.87892119519967,429.9784230829973,,,,,,,,,,,,,,,,,,,,,fjdksla,001,2022_Mar_16_1620,test_typingtask_norepeats_20rep,2020.2.10,60.00982661232527,
tithe,tithe,,,,,0,73,73,73,,,,,,,,,,,,435.37866987500456,None,None,0,,435.37866987500456,None,435.3784670291978,435.478656124993,,,,,,,,,,,,,,,,,,,,,fjdksla,001,2022_Mar_16_1620,test_typingtask_norepeats_20rep,2020.2.10,60.00982661232527,
theme,theme,,,,,0,74,74,74,,,,,,,,,,,,440.87737695800024,None,None,0,,440.87737695800024,None,440.8789028622021,440.978379416003,,,,,,,,,,,,,,,,,,,,,fjdksla,001,2022_Mar_16_1620,test_typingtask_norepeats_20rep,2020.2.10,60.00982661232527,
zibja,zibja,,,,,0,75,75,75,,,,,,,,,,,,446.3778186660056,None,None,0,,446.3778186660056,None,446.37860844520475,446.47875541599933,,,,,,,,,,,,,,,,,,,,,fjdksla,001,2022_Mar_16_1620,test_typingtask_norepeats_20rep,2020.2.10,60.00982661232527,
edthe,edthe,,,,,0,76,76,76,,,,,,,,,,,,451.87773879099404,None,None,0,,451.87773879099404,None,451.87866407019175,451.9780804159964,,,,,,,,,,,,,,,,,,,,,fjdksla,001,2022_Mar_16_1620,test_typingtask_norepeats_20rep,2020.2.10,60.00982661232527,
champ,champ,,,,,0,77,77,77,,,,,,,,,,,,457.3776360829943,None,None,0,,457.3776360829943,None,457.3783728621973,457.47819366600015,,,,,,,,,,,,,,,,,,,,,fjdksla,001,2022_Mar_16_1620,test_typingtask_norepeats_20rep,2020.2.10,60.00982661232527,
about,about,,,,,0,78,78,78,,,,,,,,,,,,462.87852154100256,None,None,0,,462.87852154100256,None,462.87822694519565,462.97829691600055,,,,,,,,,,,,,,,,,,,,,fjdksla,001,2022_Mar_16_1620,test_typingtask_norepeats_20rep,2020.2.10,60.00982661232527,
buddy,buddy,,,,,0,79,79,79,,,,,,,,,,,,468.37832337500004,None,None,0,,468.37832337500004,None,468.37828544520454,468.47818962500605,,,,,,,,,,,,,,,,,,,,,fjdksla,001,2022_Mar_16_1620,test_typingtask_norepeats_20rep,2020.2.10,60.00982661232527,
therm,therm,,,,,0,80,80,80,,,,,,,,,,,,473.87801633299387,None,None,0,,473.87801633299387,None,473.8786465291967,473.97791791599593,,,,,,,,,,,,,,,,,,,,,fjdksla,001,2022_Mar_16_1620,test_typingtask_norepeats_20rep,2020.2.10,60.00982661232527,
cooed,cooed,,,,,0,81,81,81,,,,,,,,,,,,479.3947151659959,None,None,0,,479.3947151659959,None,479.3950142791917,479.49475191600504,,,,,,,,,,,,,,,,,,,,,fjdksla,001,2022_Mar_16_1620,test_typingtask_norepeats_20rep,2020.2.10,60.00982661232527,
would,would,,,,,0,82,82,82,,,,,,,,,,,,484.8945150829968,None,None,0,,484.8945150829968,None,484.89540957019636,484.9947335409961,,,,,,,,,,,,,,,,,,,,,fjdksla,001,2022_Mar_16_1620,test_typingtask_norepeats_20rep,2020.2.10,60.00982661232527,
tithe,tithe,,,,,0,83,83,83,,,,,,,,,,,,490.39529920800123,None,None,0,,490.39529920800123,None,490.39530177919806,490.4948116250016,,,,,,,,,,,,,,,,,,,,,fjdksla,001,2022_Mar_16_1620,test_typingtask_norepeats_20rep,2020.2.10,60.00982661232527,
kremp,kremp,,,,,0,84,84,84,,,,,,,,,,,,495.8944993329933,None,None,0,,495.8944993329933,None,495.8950796541947,495.99537562500336,,,,,,,,,,,,,,,,,,,,,fjdksla,001,2022_Mar_16_1620,test_typingtask_norepeats_20rep,2020.2.10,60.00982661232527,
edthe,edthe,,,,,0,85,85,85,,,,,,,,,,,,501.39470437499403,None,None,0,,501.39470437499403,None,501.39511794520223,501.49482100000023,,,,,,,,,,,,,,,,,,,,,fjdksla,001,2022_Mar_16_1620,test_typingtask_norepeats_20rep,2020.2.10,60.00982661232527,
tithe,tithe,,,,,0,86,86,86,,,,,,,,,,,,506.9114797079965,None,None,0,,506.9114797079965,None,506.9119915701929,507.01133741599915,,,,,,,,,,,,,,,,,,,,,fjdksla,001,2022_Mar_16_1620,test_typingtask_norepeats_20rep,2020.2.10,60.00982661232527,
lucky,lucky,,,,,0,87,87,87,,,,,,,,,,,,512.3941403329954,None,None,0,,512.3941403329954,None,512.3951302792018,512.4946221660066,,,,,,,,,,,,,,,,,,,,,fjdksla,001,2022_Mar_16_1620,test_typingtask_norepeats_20rep,2020.2.10,60.00982661232527,
zibja,zibja,,,,,0,88,88,88,,,,,,,,,,,,517.894457250004,None,None,0,,517.894457250004,None,517.895020070199,517.9947854159982,,,,,,,,,,,,,,,,,,,,,fjdksla,001,2022_Mar_16_1620,test_typingtask_norepeats_20rep,2020.2.10,60.00982661232527,
theme,theme,,,,,0,89,89,89,,,,,,,,,,,,523.3950054580055,None,None,0,,523.3950054580055,None,523.3950699041932,523.4947310410062,,,,,,,,,,,,,,,,,,,,,fjdksla,001,2022_Mar_16_1620,test_typingtask_norepeats_20rep,2020.2.10,60.00982661232527,
isvar,isvar,,,,,0,90,90,90,,,,,,,,,,,,528.8945059160033,None,None,0,,528.8945059160033,None,528.8947717791932,528.994726207995,,,,,,,,,,,,,,,,,,,,,fjdksla,001,2022_Mar_16_1620,test_typingtask_norepeats_20rep,2020.2.10,60.00982661232527,
haole,haole,,,,,0,91,91,91,,,,,,,,,,,,534.3952103750053,None,None,0,,534.3952103750053,None,534.3955721951977,None,,,,,,,,,,,,,,,,,,,,,fjdksla,001,2022_Mar_16_1620,test_typingtask_norepeats_20rep,2020.2.10,60.00982661232527,
buddy,buddy,,,,,0,92,92,92,,,,,,,,,,,,539.8937215000042,None,None,0,,539.8937215000042,None,539.8954420292037,539.9951320410037,,,,,,,,,,,,,,,,,,,,,fjdksla,001,2022_Mar_16_1620,test_typingtask_norepeats_20rep,2020.2.10,60.00982661232527,
think,think,,,,,0,93,93,93,,,,,,,,,,,,545.4112515000015,None,None,0,,545.4112515000015,None,545.4122040292029,None,,,,,,,,,,,,,,,,,,,,,fjdksla,001,2022_Mar_16_1620,test_typingtask_norepeats_20rep,2020.2.10,60.00982661232527,
edthe,edthe,,,,,0,94,94,94,,,,,,,,,,,,550.9114720409998,None,None,0,,550.9114720409998,None,550.9115782371998,551.0115184159949,,,,,,,,,,,,,,,,,,,,,fjdksla,001,2022_Mar_16_1620,test_typingtask_norepeats_20rep,2020.2.10,60.00982661232527,
vodka,vodka,,,,,0,95,95,95,,,,,,,,,,,,556.4112138750061,None,None,0,,556.4112138750061,None,556.4121185291922,556.5114537500049,,,,,,,,,,,,,,,,,,,,,fjdksla,001,2022_Mar_16_1620,test_typingtask_norepeats_20rep,2020.2.10,60.00982661232527,
buddy,buddy,,,,,0,96,96,96,,,,,,,,,,,,561.9279200000019,None,None,0,,561.9279200000019,None,561.9286826952055,562.0283612500061,,,,,,,,,,,,,,,,,,,,,fjdksla,001,2022_Mar_16_1620,test_typingtask_norepeats_20rep,2020.2.10,60.00982661232527,
puppy,puppy,,,,,0,97,97,97,,,,,,,,,,,,567.4283430829964,None,None,0,,567.4283430829964,None,567.4278821122032,567.5288065829955,,,,,,,,,,,,,,,,,,,,,fjdksla,001,2022_Mar_16_1620,test_typingtask_norepeats_20rep,2020.2.10,60.00982661232527,
therm,therm,,,,,0,98,98,98,,,,,,,,,,,,572.9271084999928,None,None,0,,572.9271084999928,None,572.9287720702021,573.0281960830034,,,,,,,,,,,,,,,,,,,,,fjdksla,001,2022_Mar_16_1620,test_typingtask_norepeats_20rep,2020.2.10,60.00982661232527,
faqir,faqir,,,,,0,99,99,99,,,,,,,,,,,,578.4285859999945,None,None,0,,578.4285859999945,None,578.4280801541943,578.5279385000031,,,,,,,,,,,,,,,,,,,,,fjdksla,001,2022_Mar_16_1620,test_typingtask_norepeats_20rep,2020.2.10,60.00982661232527,
there,there,,,,,0,100,100,100,,,,,,,,,,,,583.9280432499945,None,None,0,,583.9280432499945,None,583.9276640702053,584.0281899160036,,,,,,,,,,,,,,,,,,,,,fjdksla,001,2022_Mar_16_1620,test_typingtask_norepeats_20rep,2020.2.10,60.00982661232527,
tithe,tithe,,,,,0,101,101,101,,,,,,,,,,,,589.427835333001,None,None,0,,589.427835333001,None,589.4279120291947,589.5284101249999,,,,,,,,,,,,,,,,,,,,,fjdksla,001,2022_Mar_16_1620,test_typingtask_norepeats_20rep,2020.2.10,60.00982661232527,
belly,belly,,,,,0,102,102,102,,,,,,,,,,,,594.9280927499931,None,None,0,,594.9280927499931,None,594.9274415291918,595.0293670410028,,,,,,,,,,,,,,,,,,,,,fjdksla,001,2022_Mar_16_1620,test_typingtask_norepeats_20rep,2020.2.10,60.00982661232527,
puppy,puppy,,,,,0,103,103,103,,,,,,,,,,,,600.4285074159998,None,None,0,,600.4285074159998,None,600.4285940291927,600.5283217079996,,,,,,,,,,,,,,,,,,,,,fjdksla,001,2022_Mar_16_1620,test_typingtask_norepeats_20rep,2020.2.10,60.00982661232527,
would,would,,,,,0,104,104,104,,,,,,,,,,,,605.9281711249932,None,None,0,,605.9281711249932,None,605.928352154199,606.0282974580041,,,,,,,,,,,,,,,,,,,,,fjdksla,001,2022_Mar_16_1620,test_typingtask_norepeats_20rep,2020.2.10,60.00982661232527,
edthe,edthe,,,,,0,105,105,105,,,,,,,,,,,,611.4280990830011,None,None,0,,611.4280990830011,None,611.428348987193,611.5282462080067,,,,,,,,,,,,,,,,,,,,,fjdksla,001,2022_Mar_16_1620,test_typingtask_norepeats_20rep,2020.2.10,60.00982661232527,
pykka,pykka,,,,,0,106,106,106,,,,,,,,,,,,616.9279080410051,None,None,0,,616.9279080410051,None,616.928665362201,617.0282307909947,,,,,,,,,,,,,,,,,,,,,fjdksla,001,2022_Mar_16_1620,test_typingtask_norepeats_20rep,2020.2.10,60.00982661232527,
druze,druze,,,,,0,107,107,107,,,,,,,,,,,,622.4284759580041,None,None,0,,622.4284759580041,None,622.4288045702021,622.5287384160038,,,,,,,,,,,,,,,,,,,,,fjdksla,001,2022_Mar_16_1620,test_typingtask_norepeats_20rep,2020.2.10,60.00982661232527,
cheer,cheer,,,,,0,108,108,108,,,,,,,,,,,,627.9277998329926,None,None,0,,627.9277998329926,None,627.9285880292052,628.0284105000028,,,,,,,,,,,,,,,,,,,,,fjdksla,001,2022_Mar_16_1620,test_typingtask_norepeats_20rep,2020.2.10,60.00982661232527,
theme,theme,,,,,0,109,109,109,,,,,,,,,,,,633.4278217499959,None,None,0,,633.4278217499959,None,633.4284405701953,633.527717207995,,,,,,,,,,,,,,,,,,,,,fjdksla,001,2022_Mar_16_1620,test_typingtask_norepeats_20rep,2020.2.10,60.00982661232527,
cheer,cheer,,,,,0,110,110,110,,,,,,,,,,,,638.9283399160049,None,None,0,,638.9283399160049,None,638.9282605701926,639.0279260410025,,,,,,,,,,,,,,,,,,,,,fjdksla,001,2022_Mar_16_1620,test_typingtask_norepeats_20rep,2020.2.10,60.00982661232527,
cooed,cooed,,,,,0,111,111,111,,,,,,,,,,,,644.428351583003,None,None,0,,644.428351583003,None,644.428519529193,644.5289968750003,,,,,,,,,,,,,,,,,,,,,fjdksla,001,2022_Mar_16_1620,test_typingtask_norepeats_20rep,2020.2.10,60.00982661232527,
buddy,buddy,,,,,0,112,112,112,,,,,,,,,,,,649.9277637909981,None,None,0,,649.9277637909981,None,649.9289221121915,650.0281905000011,,,,,,,,,,,,,,,,,,,,,fjdksla,001,2022_Mar_16_1620,test_typingtask_norepeats_20rep,2020.2.10,60.00982661232527,
pykka,pykka,,,,,0,113,113,113,,,,,,,,,,,,655.4442794159986,None,None,0,,655.4442794159986,None,655.4445491542035,655.5447701249941,,,,,,,,,,,,,,,,,,,,,fjdksla,001,2022_Mar_16_1620,test_typingtask_norepeats_20rep,2020.2.10,60.00982661232527,
belly,belly,,,,,0,114,114,114,,,,,,,,,,,,660.9445821660047,None,None,0,,660.9445821660047,None,660.9439144451942,661.0447184999939,,,,,,,,,,,,,,,,,,,,,fjdksla,001,2022_Mar_16_1620,test_typingtask_norepeats_20rep,2020.2.10,60.00982661232527,
vodka,vodka,,,,,0,115,115,115,,,,,,,,,,,,666.4441038329969,None,None,0,,666.4441038329969,None,666.4447323201937,666.5445110409928,,,,,,,,,,,,,,,,,,,,,fjdksla,001,2022_Mar_16_1620,test_typingtask_norepeats_20rep,2020.2.10,60.00982661232527,
there,there,,,,,0,116,116,116,,,,,,,,,,,,671.9444944160059,None,None,0,,671.9444944160059,None,671.9448573201996,672.0446156249964,,,,,,,,,,,,,,,,,,,,,fjdksla,001,2022_Mar_16_1620,test_typingtask_norepeats_20rep,2020.2.10,60.00982661232527,
heond,heond,,,,,0,117,117,117,,,,,,,,,,,,677.4443768329947,None,None,0,,677.4443768329947,None,677.445013612193,677.5447525000054,,,,,,,,,,,,,,,,,,,,,fjdksla,001,2022_Mar_16_1620,test_typingtask_norepeats_20rep,2020.2.10,60.00982661232527,
kremp,kremp,,,,,0,118,118,118,,,,,,,,,,,,682.9444280000025,None,None,0,,682.9444280000025,None,682.943913487198,683.0447894160025,,,,,,,,,,,,,,,,,,,,,fjdksla,001,2022_Mar_16_1620,test_typingtask_norepeats_20rep,2020.2.10,60.00982661232527,
heond,heond,,,,,0,119,119,119,,,,,,,,,,,,688.4444673329999,None,None,0,,688.4444673329999,None,688.4447559871958,688.5446813750023,,,,,,,,,,,,,,,,,,,,,fjdksla,001,2022_Mar_16_1620,test_typingtask_norepeats_20rep,2020.2.10,60.00982661232527,
tithe,tithe,,,,,,,,,0,0,0,0,,,,,,,,,,,,,,,,,693.9447558749962,None,726.6779317500041,None,"['t', 'i', 't', 'h', 'e']",1,"[1.0369880409998586, 1.1517037490120856, 1.2277849160018377, 1.3337857490114402, 1.4186411240079906]",726.6779317500041,None,726.6779239041978,726.7777131659968,,,,,,,,,,fjdksla,001,2022_Mar_16_1620,test_typingtask_norepeats_20rep,2020.2.10,60.00982661232527,
lucky,lucky,,,,,,,,,0,1,1,1,,,,,,,,,,,,,,,,,,,732.1771428329957,None,"['l', 'u', 'c', 'k', 'y']",1,"[0.804650792008033, 0.9958067499974277, 1.089114458009135, 1.204987875011284, 1.360737249997328]",732.1771428329957,None,732.1779389452029,732.277730916001,,,,,,,,,,fjdksla,001,2022_Mar_16_1620,test_typingtask_norepeats_20rep,2020.2.10,60.00982661232527,
haole,haole,,,,,,,,,0,2,2,2,,,,,,,,,,,,,,,,,,,737.6777322080015,None,None,0,,737.6777322080015,None,737.6777915291939,737.7776629159926,,,,,,,,,,fjdksla,001,2022_Mar_16_1620,test_typingtask_norepeats_20rep,2020.2.10,60.00982661232527,
tithe,tithe,,,,,,,,,0,3,3,3,,,,,,,,,,,,,,,,,,,743.1775291660015,None,None,0,,743.1775291660015,None,743.1785437371916,743.2780874159944,,,,,,,,,,fjdksla,001,2022_Mar_16_1620,test_typingtask_norepeats_20rep,2020.2.10,60.00982661232527,
edthe,edthe,,,,,,,,,0,4,4,4,,,,,,,,,,,,,,,,,,,748.6780120829935,None,None,0,,748.6780120829935,None,748.6785176541932,748.778404208002,,,,,,,,,,fjdksla,001,2022_Mar_16_1620,test_typingtask_norepeats_20rep,2020.2.10,60.00982661232527,
isvar,isvar,,,,,,,,,0,5,5,5,,,,,,,,,,,,,,,,,,,754.1765578329941,None,None,0,,754.1765578329941,None,754.1786704451995,754.2780371660047,,,,,,,,,,fjdksla,001,2022_Mar_16_1620,test_typingtask_norepeats_20rep,2020.2.10,60.00982661232527,
cooed,cooed,,,,,,,,,0,6,6,6,,,,,,,,,,,,,,,,,,,759.6775884160015,None,None,0,,759.6775884160015,None,759.6778899872049,759.7786072080053,,,,,,,,,,fjdksla,001,2022_Mar_16_1620,test_typingtask_norepeats_20rep,2020.2.10,60.00982661232527,
cheer,cheer,,,,,,,,,0,7,7,7,,,,,,,,,,,,,,,,,,,765.1782852500037,None,None,0,,765.1782852500037,None,765.178136987194,765.2780426249956,,,,,,,,,,fjdksla,001,2022_Mar_16_1620,test_typingtask_norepeats_20rep,2020.2.10,60.00982661232527,
zibja,zibja,,,,,,,,,0,8,8,8,,,,,,,,,,,,,,,,,,,770.6766116249928,None,None,0,,770.6766116249928,None,770.678262070204,770.7778837910009,,,,,,,,,,fjdksla,001,2022_Mar_16_1620,test_typingtask_norepeats_20rep,2020.2.10,60.00982661232527,
theme,theme,,,,,,,,,0,9,9,9,,,,,,,,,,,,,,,,,,,776.1778205830051,None,None,0,,776.1778205830051,None,776.1782282792017,776.2778680409974,,,,,,,,,,fjdksla,001,2022_Mar_16_1620,test_typingtask_norepeats_20rep,2020.2.10,60.00982661232527,
kremp,kremp,,,,,,,,,0,10,10,10,,,,,,,,,,,,,,,,,,,781.6776800829975,None,None,0,,781.6776800829975,None,781.6788245701944,781.778223500005,,,,,,,,,,fjdksla,001,2022_Mar_16_1620,test_typingtask_norepeats_20rep,2020.2.10,60.00982661232527,
faqir,faqir,,,,,,,,,0,11,11,11,,,,,,,,,,,,,,,,,,,787.1767360410013,None,None,0,,787.1767360410013,None,787.1777515702022,787.2781427080045,,,,,,,,,,fjdksla,001,2022_Mar_16_1620,test_typingtask_norepeats_20rep,2020.2.10,60.00982661232527,
think,think,,,,,,,,,0,12,12,12,,,,,,,,,,,,,,,,,,,792.678330958006,None,"['t', 'h', 'i', 'n', 'k']",1,"[0.5994794579892186, 0.6512708749942249, 0.7233531669917284, 0.8386388329963665, 0.934394166994025]",792.678330958006,None,792.6781532372013,792.7787978749984,,,,,,,,,,fjdksla,001,2022_Mar_16_1620,test_typingtask_norepeats_20rep,2020.2.10,60.00982661232527,
would,would,,,,,,,,,0,13,13,13,,,,,,,,,,,,,,,,,,,798.1778916659969,None,"['f', 'j', 'd', 'k', 'l', 's', 'j', 'f', 'k', 'd']",0,"[0.4360902500047814, 0.48425379100081045, 0.5201124160084873, 0.5443188330100384, 0.6163310410047416, 0.6402437080105301, 0.704215458012186, 0.7280804160109255, 0.8002255410101498, 0.8120933750033146]",798.1778916659969,None,798.1778649451924,798.2779763330036,,,,,,,,,,fjdksla,001,2022_Mar_16_1620,test_typingtask_norepeats_20rep,2020.2.10,60.00982661232527,
vodka,vodka,,,,,,,,,0,14,14,14,,,,,,,,,,,,,,,,,,,803.6777179159981,None,"['v', 'o', 'd', 'k', 'a']",1,"[1.009222791006323, 1.1085058739990927, 1.1990179160056869, 1.2946106660092482, 1.362429583008634]",803.6777179159981,None,803.6780129451988,803.7779004579934,,,,,,,,,,fjdksla,001,2022_Mar_16_1620,test_typingtask_norepeats_20rep,2020.2.10,60.00982661232527,
tithe,tithe,,,,,,,,,0,15,15,15,,,,,,,,,,,,,,,,,,,809.1776286660024,None,"['t', 'i', 't', 'h', 'e']",1,"[0.7847598330117762, 0.8960097080125706, 0.9610086669999873, 1.0448786250053672, 1.1344343750097323]",809.1776286660024,None,809.1782978621966,809.2781130410003,,,,,,,,,,fjdksla,001,2022_Mar_16_1620,test_typingtask_norepeats_20rep,2020.2.10,60.00982661232527,
champ,champ,,,,,,,,,0,16,16,16,,,,,,,,,,,,,,,,,,,814.6769986250001,None,"['c', 'h', 'a', 'm', 'p']",1,"[1.061627082992345, 1.1496470409911126, 1.1983700830023736, 1.2935979989997577, 1.3896576239931164]",814.6769986250001,None,814.6788325701971,814.7784167079953,,,,,,,,,,fjdksla,001,2022_Mar_16_1620,test_typingtask_norepeats_20rep,2020.2.10,60.00982661232527,
therm,therm,,,,,,,,,0,17,17,17,,,,,,,,,,,,,,,,,,,820.1776985409961,None,"['t', 'h', 'e', 'r', 'm']",1,"[0.7474279580055736, 0.7993772080080817, 0.9259385830082465, 0.9939753330108942, 1.078175041009672]",820.1776985409961,None,820.1785123202033,820.2782443750039,,,,,,,,,,fjdksla,001,2022_Mar_16_1620,test_typingtask_norepeats_20rep,2020.2.10,60.00982661232527,
about,about,,,,,,,,,0,18,18,18,,,,,,,,,,,,,,,,,,,825.6776148750068,None,"['a', 'b', 'o', 'u', 't']",1,"[0.6011237490019994, 0.7798332079983084, 0.8396782079944387, 0.9356381240068004, 1.0077384159958456]",825.6776148750068,None,825.6783224451981,825.7781777909986,,,,,,,,,,fjdksla,001,2022_Mar_16_1620,test_typingtask_norepeats_20rep,2020.2.10,60.00982661232527,
belly,belly,,,,,,,,,0,19,19,19,,,,,,,,,,,,,,,,,,,831.1774728330056,None,None,0,,831.1774728330056,None,831.1775559042042,831.278040499994,,,,,,,,,,fjdksla,001,2022_Mar_16_1620,test_typingtask_norepeats_20rep,2020.2.10,60.00982661232527,
cheer,cheer,,,,,,,,,0,20,20,20,,,,,,,,,,,,,,,,,,,836.6781685000024,None,"['c', 'h', 'e', 'e', 'r']",1,"[0.8030669580039103, 0.8953774580004392, 0.9875679579999996, 1.1277542910102056, 1.2197195410117274]",836.6781685000024,None,836.677487820202,836.7779245410056,,,,,,,,,,fjdksla,001,2022_Mar_16_1620,test_typingtask_norepeats_20rep,2020.2.10,60.00982661232527,
kremp,kremp,,,,,,,,,0,21,21,21,,,,,,,,,,,,,,,,,,,842.1775632500066,None,"['k', 'r', 'm', 'e', 'p']",0,"[0.9319561660086038, 1.0555442080076318, 1.1233639999991283, 1.1553206660028081, 1.2674527500057593]",842.1775632500066,None,842.1778336952018,842.2777525410056,,,,,,,,,,fjdksla,001,2022_Mar_16_1620,test_typingtask_norepeats_20rep,2020.2.10,60.00982661232527,
cheer,cheer,,,,,,,,,0,22,22,22,,,,,,,,,,,,,,,,,,,847.6941897499928,None,"['c', 'h', 'e', 'e', 'r']",1,"[0.9271399579884019, 1.0152611660014372, 1.1271367489971453, 1.2653659579955274, 1.3613641239935532]",847.6941897499928,None,847.6937178201958,847.7950284580002,,,,,,,,,,fjdksla,001,2022_Mar_16_1620,test_typingtask_norepeats_20rep,2020.2.10,60.00982661232527,
buddy,buddy,,,,,,,,,0,23,23,23,,,,,,,,,,,,,,,,,,,853.1940119579958,None,None,0,,853.1940119579958,None,853.1950367371944,853.2945286250033,,,,,,,,,,fjdksla,001,2022_Mar_16_1620,test_typingtask_norepeats_20rep,2020.2.10,60.00982661232527,
belly,belly,,,,,,,,,0,24,24,24,,,,,,,,,,,,,,,,,,,858.6943122079974,None,None,0,,858.6943122079974,None,858.6946753201962,858.7944627499965,,,,,,,,,,fjdksla,001,2022_Mar_16_1620,test_typingtask_norepeats_20rep,2020.2.10,60.00982661232527,
about,about,,,,,,,,,0,25,25,25,,,,,,,,,,,,,,,,,,,864.1944288329978,None,None,0,,864.1944288329978,None,864.1949799041947,864.2942590409948,,,,,,,,,,fjdksla,001,2022_Mar_16_1620,test_typingtask_norepeats_20rep,2020.2.10,60.00982661232527,
edthe,edthe,,,,,,,,,0,26,26,26,,,,,,,,,,,,,,,,,,,869.6945865000016,None,None,0,,869.6945865000016,None,869.6950280702047,None,,,,,,,,,,fjdksla,001,2022_Mar_16_1620,test_typingtask_norepeats_20rep,2020.2.10,60.00982661232527,
vodka,vodka,,,,,,,,,0,27,27,27,,,,,,,,,,,,,,,,,,,875.1939768750017,None,None,0,,875.1939768750017,None,875.1939560702056,875.294600291003,,,,,,,,,,fjdksla,001,2022_Mar_16_1620,test_typingtask_norepeats_20rep,2020.2.10,60.00982661232527,
zibja,zibja,,,,,,,,,0,28,28,28,,,,,,,,,,,,,,,,,,,880.6937940000062,None,None,0,,880.6937940000062,None,880.6945380701989,880.794517250004,,,,,,,,,,fjdksla,001,2022_Mar_16_1620,test_typingtask_norepeats_20rep,2020.2.10,60.00982661232527,
pykka,pykka,,,,,,,,,0,29,29,29,,,,,,,,,,,,,,,,,,,886.1942319999944,None,None,0,,886.1942319999944,None,886.1949488201979,886.2950452079967,,,,,,,,,,fjdksla,001,2022_Mar_16_1620,test_typingtask_norepeats_20rep,2020.2.10,60.00982661232527,
cheer,cheer,,,,,,,,,0,30,30,30,,,,,,,,,,,,,,,,,,,891.6947345829976,None,None,0,,891.6947345829976,None,891.6948046951918,891.7945106660045,,,,,,,,,,fjdksla,001,2022_Mar_16_1620,test_typingtask_norepeats_20rep,2020.2.10,60.00982661232527,
heond,heond,,,,,,,,,0,31,31,31,,,,,,,,,,,,,,,,,,,897.1946992500016,None,None,0,,897.1946992500016,None,897.194570320197,897.2946996249957,,,,,,,,,,fjdksla,001,2022_Mar_16_1620,test_typingtask_norepeats_20rep,2020.2.10,60.00982661232527,
puppy,puppy,,,,,,,,,0,32,32,32,,,,,,,,,,,,,,,,,,,902.6940208330052,None,None,0,,902.6940208330052,None,902.694999112199,902.7946015829948,,,,,,,,,,fjdksla,001,2022_Mar_16_1620,test_typingtask_norepeats_20rep,2020.2.10,60.00982661232527,
haole,haole,,,,,,,,,0,33,33,33,,,,,,,,,,,,,,,,,,,908.1942899999995,None,None,0,,908.1942899999995,None,908.1934785701931,908.2948807079956,,,,,,,,,,fjdksla,001,2022_Mar_16_1620,test_typingtask_norepeats_20rep,2020.2.10,60.00982661232527,
druze,druze,,,,,,,,,0,34,34,34,,,,,,,,,,,,,,,,,,,913.6940868329984,None,None,0,,913.6940868329984,None,913.6948251952024,913.7942531659937,,,,,,,,,,fjdksla,001,2022_Mar_16_1620,test_typingtask_norepeats_20rep,2020.2.10,60.00982661232527,
think,think,,,,,,,,,0,35,35,35,,,,,,,,,,,,,,,,,,,919.1945532910031,None,None,0,,919.1945532910031,None,919.1945849872034,919.294811957996,,,,,,,,,,fjdksla,001,2022_Mar_16_1620,test_typingtask_norepeats_20rep,2020.2.10,60.00982661232527,
vodka,vodka,,,,,,,,,0,36,36,36,,,,,,,,,,,,,,,,,,,924.7110941249994,None,None,0,,924.7110941249994,None,924.7116350702024,924.8109562500031,,,,,,,,,,fjdksla,001,2022_Mar_16_1620,test_typingtask_norepeats_20rep,2020.2.10,60.00982661232527,
puppy,puppy,,,,,,,,,0,37,37,37,,,,,,,,,,,,,,,,,,,930.2108448329964,None,None,0,,930.2108448329964,None,930.2104179452042,930.3112191249966,,,,,,,,,,fjdksla,001,2022_Mar_16_1620,test_typingtask_norepeats_20rep,2020.2.10,60.00982661232527,
zibja,zibja,,,,,,,,,0,38,38,38,,,,,,,,,,,,,,,,,,,935.710989625004,None,None,0,,935.710989625004,None,935.7119444871976,935.8114637079998,,,,,,,,,,fjdksla,001,2022_Mar_16_1620,test_typingtask_norepeats_20rep,2020.2.10,60.00982661232527,
buddy,buddy,,,,,,,,,0,39,39,39,,,,,,,,,,,,,,,,,,,941.2104902080027,None,None,0,,941.2104902080027,None,941.2112350292052,941.3110221660027,,,,,,,,,,fjdksla,001,2022_Mar_16_1620,test_typingtask_norepeats_20rep,2020.2.10,60.00982661232527,
think,think,,,,,,,,,0,40,40,40,,,,,,,,,,,,,,,,,,,946.7110234580032,None,None,0,,946.7110234580032,None,946.7112305292001,946.8100292080053,,,,,,,,,,fjdksla,001,2022_Mar_16_1620,test_typingtask_norepeats_20rep,2020.2.10,60.00982661232527,
theme,theme,,,,,,,,,0,41,41,41,,,,,,,,,,,,,,,,,,,952.2112185000005,None,None,0,,952.2112185000005,None,952.211438112198,952.3114159160032,,,,,,,,,,fjdksla,001,2022_Mar_16_1620,test_typingtask_norepeats_20rep,2020.2.10,60.00982661232527,
think,think,,,,,,,,,0,42,42,42,,,,,,,,,,,,,,,,,,,957.7114665830013,None,None,0,,957.7114665830013,None,957.7116388621987,957.8112511249929,,,,,,,,,,fjdksla,001,2022_Mar_16_1620,test_typingtask_norepeats_20rep,2020.2.10,60.00982661232527,
faqir,faqir,,,,,,,,,0,43,43,43,,,,,,,,,,,,,,,,,,,963.2106968750013,None,None,0,,963.2106968750013,None,963.2112872791956,963.3113603749953,,,,,,,,,,fjdksla,001,2022_Mar_16_1620,test_typingtask_norepeats_20rep,2020.2.10,60.00982661232527,
would,would,,,,,,,,,0,44,44,44,,,,,,,,,,,,,,,,,,,968.7115333330003,None,None,0,,968.7115333330003,None,968.7116580291956,968.8116542079952,,,,,,,,,,fjdksla,001,2022_Mar_16_1620,test_typingtask_norepeats_20rep,2020.2.10,60.00982661232527,
pykka,pykka,,,,,,,,,0,45,45,45,,,,,,,,,,,,,,,,,,,974.211166041001,None,None,0,,974.211166041001,None,974.2114421121994,974.3111350410036,,,,,,,,,,fjdksla,001,2022_Mar_16_1620,test_typingtask_norepeats_20rep,2020.2.10,60.00982661232527,
champ,champ,,,,,,,,,0,46,46,46,,,,,,,,,,,,,,,,,,,979.7107374579937,None,None,0,,979.7107374579937,None,979.7110654452015,979.8112074999954,,,,,,,,,,fjdksla,001,2022_Mar_16_1620,test_typingtask_norepeats_20rep,2020.2.10,60.00982661232527,
lucky,lucky,,,,,,,,,0,47,47,47,,,,,,,,,,,,,,,,,,,985.2111927499936,None,None,0,,985.2111927499936,None,985.2110938621961,985.3111368329992,,,,,,,,,,fjdksla,001,2022_Mar_16_1620,test_typingtask_norepeats_20rep,2020.2.10,60.00982661232527,
cooed,cooed,,,,,,,,,0,48,48,48,,,,,,,,,,,,,,,,,,,990.7106815830048,None,None,0,,990.7106815830048,None,990.7109451121985,990.8111607909959,,,,,,,,,,fjdksla,001,2022_Mar_16_1620,test_typingtask_norepeats_20rep,2020.2.10,60.00982661232527,
therm,therm,,,,,,,,,0,49,49,49,,,,,,,,,,,,,,,,,,,996.2110035829974,None,None,0,,996.2110035829974,None,996.2114476541944,996.3114048749994,,,,,,,,,,fjdksla,001,2022_Mar_16_1620,test_typingtask_norepeats_20rep,2020.2.10,60.00982661232527,
heond,heond,,,,,,,,,0,50,50,50,,,,,,,,,,,,,,,,,,,1001.7113827909925,None,None,0,,1001.7113827909925,None,1001.7112773621964,1001.8112190410029,,,,,,,,,,fjdksla,001,2022_Mar_16_1620,test_typingtask_norepeats_20rep,2020.2.10,60.00982661232527,
think,think,,,,,,,,,0,51,51,51,,,,,,,,,,,,,,,,,,,1007.2106464160024,None,None,0,,1007.2106464160024,None,1007.2116452372036,1007.3113207910064,,,,,,,,,,fjdksla,001,2022_Mar_16_1620,test_typingtask_norepeats_20rep,2020.2.10,60.00982661232527,
about,about,,,,,,,,,0,52,52,52,,,,,,,,,,,,,,,,,,,1012.7109758750012,None,None,0,,1012.7109758750012,None,1012.7115264872016,1012.8111883749953,,,,,,,,,,fjdksla,001,2022_Mar_16_1620,test_typingtask_norepeats_20rep,2020.2.10,60.00982661232527,
faqir,faqir,,,,,,,,,0,53,53,53,,,,,,,,,,,,,,,,,,,1018.2109102079994,None,None,0,,1018.2109102079994,None,1018.2111057371992,1018.3110349579947,,,,,,,,,,fjdksla,001,2022_Mar_16_1620,test_typingtask_norepeats_20rep,2020.2.10,60.00982661232527,
tithe,tithe,,,,,,,,,0,54,54,54,,,,,,,,,,,,,,,,,,,1023.7113145829935,None,None,0,,1023.7113145829935,None,1023.7111085701952,1023.8112307499978,,,,,,,,,,fjdksla,001,2022_Mar_16_1620,test_typingtask_norepeats_20rep,2020.2.10,60.00982661232527,
druze,druze,,,,,,,,,0,55,55,55,,,,,,,,,,,,,,,,,,,1029.2106501249946,None,None,0,,1029.2106501249946,None,1029.211445945203,1029.3109891659988,,,,,,,,,,fjdksla,001,2022_Mar_16_1620,test_typingtask_norepeats_20rep,2020.2.10,60.00982661232527,
therm,therm,,,,,,,,,0,56,56,56,,,,,,,,,,,,,,,,,,,1034.7108240410016,None,None,0,,1034.7108240410016,None,1034.711165029196,1034.8115030000044,,,,,,,,,,fjdksla,001,2022_Mar_16_1620,test_typingtask_norepeats_20rep,2020.2.10,60.00982661232527,
heond,heond,,,,,,,,,0,57,57,57,,,,,,,,,,,,,,,,,,,1040.2105834579997,None,None,0,,1040.2105834579997,None,1040.211147362196,1040.3113652080065,,,,,,,,,,fjdksla,001,2022_Mar_16_1620,test_typingtask_norepeats_20rep,2020.2.10,60.00982661232527,
pykka,pykka,,,,,,,,,0,58,58,58,,,,,,,,,,,,,,,,,,,1045.711131582997,None,None,0,,1045.711131582997,None,1045.711509404199,1045.8109062500007,,,,,,,,,,fjdksla,001,2022_Mar_16_1620,test_typingtask_norepeats_20rep,2020.2.10,60.00982661232527,
haole,haole,,,,,,,,,0,59,59,59,,,,,,,,,,,,,,,,,,,1051.210861665997,None,None,0,,1051.210861665997,None,1051.2115674451968,1051.3112860410038,,,,,,,,,,fjdksla,001,2022_Mar_16_1620,test_typingtask_norepeats_20rep,2020.2.10,60.00982661232527,
heond,heond,,,,,,,,,0,60,60,60,,,,,,,,,,,,,,,,,,,1056.710897249999,None,None,0,,1056.710897249999,None,1056.7111535291958,1056.811034415994,,,,,,,,,,fjdksla,001,2022_Mar_16_1620,test_typingtask_norepeats_20rep,2020.2.10,60.00982661232527,
isvar,isvar,,,,,,,,,0,61,61,61,,,,,,,,,,,,,,,,,,,1062.2112937079946,None,None,0,,1062.2112937079946,None,1062.2115573201925,1062.311565540993,,,,,,,,,,fjdksla,001,2022_Mar_16_1620,test_typingtask_norepeats_20rep,2020.2.10,60.00982661232527,
heond,heond,,,,,,,,,0,62,62,62,,,,,,,,,,,,,,,,,,,1067.7107512079965,None,None,0,,1067.7107512079965,None,1067.7113505702043,1067.8112732080044,,,,,,,,,,fjdksla,001,2022_Mar_16_1620,test_typingtask_norepeats_20rep,2020.2.10,60.00982661232527,
edthe,edthe,,,,,,,,,0,63,63,63,,,,,,,,,,,,,,,,,,,1073.2109722909954,None,None,0,,1073.2109722909954,None,1073.2108099451914,1073.3111249159992,,,,,,,,,,fjdksla,001,2022_Mar_16_1620,test_typingtask_norepeats_20rep,2020.2.10,60.00982661232527,
lucky,lucky,,,,,,,,,0,64,64,64,,,,,,,,,,,,,,,,,,,1078.7271559579967,None,None,0,,1078.7271559579967,None,1078.7279591541926,1078.8274580830039,,,,,,,,,,fjdksla,001,2022_Mar_16_1620,test_typingtask_norepeats_20rep,2020.2.10,60.00982661232527,
there,there,,,,,,,,,0,65,65,65,,,,,,,,,,,,,,,,,,,1084.2272287499945,None,None,0,,1084.2272287499945,None,1084.228205279204,1084.3276850410039,,,,,,,,,,fjdksla,001,2022_Mar_16_1620,test_typingtask_norepeats_20rep,2020.2.10,60.00982661232527,
would,would,,,,,,,,,0,66,66,66,,,,,,,,,,,,,,,,,,,1089.7275423329993,None,None,0,,1089.7275423329993,None,1089.7284456951936,1089.8279123749962,,,,,,,,,,fjdksla,001,2022_Mar_16_1620,test_typingtask_norepeats_20rep,2020.2.10,60.00982661232527,
belly,belly,,,,,,,,,0,67,67,67,,,,,,,,,,,,,,,,,,,1095.227517457999,None,None,0,,1095.227517457999,None,1095.227911487197,1095.327644416,,,,,,,,,,fjdksla,001,2022_Mar_16_1620,test_typingtask_norepeats_20rep,2020.2.10,60.00982661232527,
tithe,tithe,,,,,,,,,0,68,68,68,,,,,,,,,,,,,,,,,,,1100.727247582996,None,None,0,,1100.727247582996,None,1100.7278038201955,1100.8276512909943,,,,,,,,,,fjdksla,001,2022_Mar_16_1620,test_typingtask_norepeats_20rep,2020.2.10,60.00982661232527,
pykka,pykka,,,,,,,,,0,69,69,69,,,,,,,,,,,,,,,,,,,1106.2274092080042,None,None,0,,1106.2274092080042,None,1106.2275834041982,1106.3279656249942,,,,,,,,,,fjdksla,001,2022_Mar_16_1620,test_typingtask_norepeats_20rep,2020.2.10,60.00982661232527,
lucky,lucky,,,,,,,,,0,70,70,70,,,,,,,,,,,,,,,,,,,1111.7276399160037,None,None,0,,1111.7276399160037,None,1111.7276711952043,1111.8277741659986,,,,,,,,,,fjdksla,001,2022_Mar_16_1620,test_typingtask_norepeats_20rep,2020.2.10,60.00982661232527,
there,there,,,,,,,,,0,71,71,71,,,,,,,,,,,,,,,,,,,1117.228240041004,None,None,0,,1117.228240041004,None,1117.2282947372048,1117.3277654580015,,,,,,,,,,fjdksla,001,2022_Mar_16_1620,test_typingtask_norepeats_20rep,2020.2.10,60.00982661232527,
therm,therm,,,,,,,,,0,72,72,72,,,,,,,,,,,,,,,,,,,1122.7274632500048,None,None,0,,1122.7274632500048,None,1122.727839945194,1122.8278460830043,,,,,,,,,,fjdksla,001,2022_Mar_16_1620,test_typingtask_norepeats_20rep,2020.2.10,60.00982661232527,
would,would,,,,,,,,,0,73,73,73,,,,,,,,,,,,,,,,,,,1128.227934541006,None,None,0,,1128.227934541006,None,1128.2278948622013,1128.3279367499927,,,,,,,,,,fjdksla,001,2022_Mar_16_1620,test_typingtask_norepeats_20rep,2020.2.10,60.00982661232527,
puppy,puppy,,,,,,,,,0,74,74,74,,,,,,,,,,,,,,,,,,,1133.7271981660015,None,None,0,,1133.7271981660015,None,1133.7277995701922,1133.8276588330045,,,,,,,,,,fjdksla,001,2022_Mar_16_1620,test_typingtask_norepeats_20rep,2020.2.10,60.00982661232527,
pykka,pykka,,,,,,,,,0,75,75,75,,,,,,,,,,,,,,,,,,,1139.2276206249953,None,None,0,,1139.2276206249953,None,1139.227956029198,1139.3278780830005,,,,,,,,,,fjdksla,001,2022_Mar_16_1620,test_typingtask_norepeats_20rep,2020.2.10,60.00982661232527,
belly,belly,,,,,,,,,0,76,76,76,,,,,,,,,,,,,,,,,,,1144.727471916005,None,None,0,,1144.727471916005,None,1144.7274824872045,1144.827846625005,,,,,,,,,,fjdksla,001,2022_Mar_16_1620,test_typingtask_norepeats_20rep,2020.2.10,60.00982661232527,
buddy,buddy,,,,,,,,,0,77,77,77,,,,,,,,,,,,,,,,,,,1150.2277259999973,None,None,0,,1150.2277259999973,None,1150.2280876121993,1150.3281305830023,,,,,,,,,,fjdksla,001,2022_Mar_16_1620,test_typingtask_norepeats_20rep,2020.2.10,60.00982661232527,
isvar,isvar,,,,,,,,,0,78,78,78,,,,,,,,,,,,,,,,,,,1155.7271033750003,None,"['i', 's', 'v', 'a', 'r']",1,"[0.589397249990725, 0.6371479160006857, 0.8700609160005115, 0.9843811249884311, 1.1282913749892032]",1155.7271033750003,None,1155.7280683621982,1155.8278022080049,,,,,,,,,,fjdksla,001,2022_Mar_16_1620,test_typingtask_norepeats_20rep,2020.2.10,60.00982661232527,
there,there,,,,,,,,,0,79,79,79,,,,,,,,,,,,,,,,,,,1161.2271614159981,None,"['t', 'h', 'e', 'r', 'e']",1,"[0.6487255000101868, 0.7351235410023946, 0.8147127910051495, 0.88665620800748, 1.0068290830095066]",1161.2271614159981,None,1161.2279669041934,1161.3277631249948,,,,,,,,,,fjdksla,001,2022_Mar_16_1620,test_typingtask_norepeats_20rep,2020.2.10,60.00982661232527,
druze,druze,,,,,,,,,0,80,80,80,,,,,,,,,,,,,,,,,,,1166.7276089160005,None,"['j', 'k', 'l', 'j', 'k', 'l']",0,"[0.2929838749987539, 0.36476929098716937, 0.40881724999053404, 0.4742997079883935, 0.5622917909931857, 0.5663486659905175]",1166.7276089160005,None,1166.727860945194,1166.8277092500066,,,,,,,,,,fjdksla,001,2022_Mar_16_1620,test_typingtask_norepeats_20rep,2020.2.10,60.00982661232527,
faqir,faqir,,,,,,,,,0,81,81,81,,,,,,,,,,,,,,,,,,,1172.2277392910037,None,None,0,,1172.2277392910037,None,1172.2276536121979,1172.3280143330048,,,,,,,,,,fjdksla,001,2022_Mar_16_1620,test_typingtask_norepeats_20rep,2020.2.10,60.00982661232527,
theme,theme,,,,,,,,,0,82,82,82,,,,,,,,,,,,,,,,,,,1177.7312013329938,None,None,0,,1177.7312013329938,None,1177.728201112205,1177.8279260830022,,,,,,,,,,fjdksla,001,2022_Mar_16_1620,test_typingtask_norepeats_20rep,2020.2.10,60.00982661232527,
buddy,buddy,,,,,,,,,0,83,83,83,,,,,,,,,,,,,,,,,,,1183.2442971249984,None,None,0,,1183.2442971249984,None,1183.2448584451965,1183.3447770409985,,,,,,,,,,fjdksla,001,2022_Mar_16_1620,test_typingtask_norepeats_20rep,2020.2.10,60.00982661232527,
vodka,vodka,,,,,,,,,0,84,84,84,,,,,,,,,,,,,,,,,,,1188.7437960410025,None,None,0,,1188.7437960410025,None,1188.7444184872045,1188.8432410410023,,,,,,,,,,fjdksla,001,2022_Mar_16_1620,test_typingtask_norepeats_20rep,2020.2.10,60.00982661232527,
kremp,kremp,,,,,,,,,0,85,85,85,,,,,,,,,,,,,,,,,,,1194.2443502499955,None,None,0,,1194.2443502499955,None,1194.244537320196,1194.344097416004,,,,,,,,,,fjdksla,001,2022_Mar_16_1620,test_typingtask_norepeats_20rep,2020.2.10,60.00982661232527,
cooed,cooed,,,,,,,,,0,86,86,86,,,,,,,,,,,,,,,,,,,1199.7442963749927,None,None,0,,1199.7442963749927,None,1199.744441154199,1199.843994958006,,,,,,,,,,fjdksla,001,2022_Mar_16_1620,test_typingtask_norepeats_20rep,2020.2.10,60.00982661232527,
zibja,zibja,,,,,,,,,0,87,87,87,,,,,,,,,,,,,,,,,,,1205.2444282499928,None,None,0,,1205.2444282499928,None,1205.2446025701981,1205.3447240410023,,,,,,,,,,fjdksla,001,2022_Mar_16_1620,test_typingtask_norepeats_20rep,2020.2.10,60.00982661232527,
isvar,isvar,,,,,,,,,0,88,88,88,,,,,,,,,,,,,,,,,,,1210.7437254160031,None,None,0,,1210.7437254160031,None,1210.7445059872014,1210.8444907079975,,,,,,,,,,fjdksla,001,2022_Mar_16_1620,test_typingtask_norepeats_20rep,2020.2.10,60.00982661232527,
puppy,puppy,,,,,,,,,0,89,89,89,,,,,,,,,,,,,,,,,,,1216.2437145830045,None,None,0,,1216.2437145830045,None,1216.2445974452028,1216.3446438329993,,,,,,,,,,fjdksla,001,2022_Mar_16_1620,test_typingtask_norepeats_20rep,2020.2.10,60.00982661232527,
therm,therm,,,,,,,,,0,90,90,90,,,,,,,,,,,,,,,,,,,1221.7437039159995,None,None,0,,1221.7437039159995,None,1221.744356945205,1221.8441447079967,,,,,,,,,,fjdksla,001,2022_Mar_16_1620,test_typingtask_norepeats_20rep,2020.2.10,60.00982661232527,
kremp,kremp,,,,,,,,,0,91,91,91,,,,,,,,,,,,,,,,,,,1227.2441852079937,None,None,0,,1227.2441852079937,None,1227.2441931542023,1227.3442222909944,,,,,,,,,,fjdksla,001,2022_Mar_16_1620,test_typingtask_norepeats_20rep,2020.2.10,60.00982661232527,
theme,theme,,,,,,,,,0,92,92,92,,,,,,,,,,,,,,,,,,,1232.7440530000022,None,None,0,,1232.7440530000022,None,1232.744155279205,1232.844203916,,,,,,,,,,fjdksla,001,2022_Mar_16_1620,test_typingtask_norepeats_20rep,2020.2.10,60.00982661232527,
champ,champ,,,,,,,,,0,93,93,93,,,,,,,,,,,,,,,,,,,1238.2443594999932,None,None,0,,1238.2443594999932,None,1238.2447657372002,1238.3448767079972,,,,,,,,,,fjdksla,001,2022_Mar_16_1620,test_typingtask_norepeats_20rep,2020.2.10,60.00982661232527,
there,there,,,,,,,,,0,94,94,94,,,,,,,,,,,,,,,,,,,1243.7441494999948,None,None,0,,1243.7441494999948,None,1243.7450566542,1243.8449720000062,,,,,,,,,,fjdksla,001,2022_Mar_16_1620,test_typingtask_norepeats_20rep,2020.2.10,60.00982661232527,
belly,belly,,,,,,,,,0,95,95,95,,,,,,,,,,,,,,,,,,,1249.2438434159994,None,None,0,,1249.2438434159994,None,1249.2444331952036,1249.3441820830049,,,,,,,,,,fjdksla,001,2022_Mar_16_1620,test_typingtask_norepeats_20rep,2020.2.10,60.00982661232527,
lucky,lucky,,,,,,,,,0,96,96,96,,,,,,,,,,,,,,,,,,,1254.7441241250053,None,None,0,,1254.7441241250053,None,1254.744395487204,1254.8442830410058,,,,,,,,,,fjdksla,001,2022_Mar_16_1620,test_typingtask_norepeats_20rep,2020.2.10,60.00982661232527,
zibja,zibja,,,,,,,,,0,97,97,97,,,,,,,,,,,,,,,,,,,1260.2439160409995,None,None,0,,1260.2439160409995,None,1260.244661987196,1260.3443412909983,,,,,,,,,,fjdksla,001,2022_Mar_16_1620,test_typingtask_norepeats_20rep,2020.2.10,60.00982661232527,
isvar,isvar,,,,,,,,,0,98,98,98,,,,,,,,,,,,,,,,,,,1265.743926665993,None,None,0,,1265.743926665993,None,1265.744390487195,1265.8446574160043,,,,,,,,,,fjdksla,001,2022_Mar_16_1620,test_typingtask_norepeats_20rep,2020.2.10,60.00982661232527,
cooed,cooed,,,,,,,,,0,99,99,99,,,,,,,,,,,,,,,,,,,1271.2439774999948,None,None,0,,1271.2439774999948,None,1271.2445330292,1271.3443084159953,,,,,,,,,,fjdksla,001,2022_Mar_16_1620,test_typingtask_norepeats_20rep,2020.2.10,60.00982661232527,
theme,theme,,,,,,,,,0,100,100,100,,,,,,,,,,,,,,,,,,,1276.744134958004,None,None,0,,1276.744134958004,None,1276.744341779199,1276.8445967909938,,,,,,,,,,fjdksla,001,2022_Mar_16_1620,test_typingtask_norepeats_20rep,2020.2.10,60.00982661232527,
faqir,faqir,,,,,,,,,0,101,101,101,,,,,,,,,,,,,,,,,,,1282.2439924579958,None,None,0,,1282.2439924579958,None,1282.2449716952003,1282.3444522909995,,,,,,,,,,fjdksla,001,2022_Mar_16_1620,test_typingtask_norepeats_20rep,2020.2.10,60.00982661232527,
druze,druze,,,,,,,,,0,102,102,102,,,,,,,,,,,,,,,,,,,1287.743717958001,None,None,0,,1287.743717958001,None,1287.7442859871996,1287.8441688330058,,,,,,,,,,fjdksla,001,2022_Mar_16_1620,test_typingtask_norepeats_20rep,2020.2.10,60.00982661232527,
about,about,,,,,,,,,0,103,103,103,,,,,,,,,,,,,,,,,,,1293.2438992079988,None,None,0,,1293.2438992079988,None,1293.244369862198,1293.3448555829964,,,,,,,,,,fjdksla,001,2022_Mar_16_1620,test_typingtask_norepeats_20rep,2020.2.10,60.00982661232527,
cheer,cheer,,,,,,,,,0,104,104,104,,,,,,,,,,,,,,,,,,,1298.744391750006,None,None,0,,1298.744391750006,None,1298.7447046541972,1298.8439867080015,,,,,,,,,,fjdksla,001,2022_Mar_16_1620,test_typingtask_norepeats_20rep,2020.2.10,60.00982661232527,
about,about,,,,,,,,,0,105,105,105,,,,,,,,,,,,,,,,,,,1304.2444415000064,None,None,0,,1304.2444415000064,None,1304.2442466542022,1304.3446145000053,,,,,,,,,,fjdksla,001,2022_Mar_16_1620,test_typingtask_norepeats_20rep,2020.2.10,60.00982661232527,
vodka,vodka,,,,,,,,,0,106,106,106,,,,,,,,,,,,,,,,,,,1309.7439399580035,None,None,0,,1309.7439399580035,None,1309.7447740292016,1309.8440609160025,,,,,,,,,,fjdksla,001,2022_Mar_16_1620,test_typingtask_norepeats_20rep,2020.2.10,60.00982661232527,
druze,druze,,,,,,,,,0,107,107,107,,,,,,,,,,,,,,,,,,,1315.2439525829977,None,None,0,,1315.2439525829977,None,1315.2442682791923,1315.3450693329942,,,,,,,,,,fjdksla,001,2022_Mar_16_1620,test_typingtask_norepeats_20rep,2020.2.10,60.00982661232527,
champ,champ,,,,,,,,,0,108,108,108,,,,,,,,,,,,,,,,,,,1320.7437933750043,None,None,0,,1320.7437933750043,None,1320.744733362201,1320.8446361249953,,,,,,,,,,fjdksla,001,2022_Mar_16_1620,test_typingtask_norepeats_20rep,2020.2.10,60.00982661232527,
cooed,cooed,,,,,,,,,0,109,109,109,,,,,,,,,,,,,,,,,,,1326.2436886659998,None,None,0,,1326.2436886659998,None,1326.2442023201918,1326.3441373329988,,,,,,,,,,fjdksla,001,2022_Mar_16_1620,test_typingtask_norepeats_20rep,2020.2.10,60.00982661232527,
there,there,,,,,,,,,0,110,110,110,,,,,,,,,,,,,,,,,,,1331.743642625006,None,None,0,,1331.743642625006,None,1331.7446414452031,1331.8442890409933,,,,,,,,,,fjdksla,001,2022_Mar_16_1620,test_typingtask_norepeats_20rep,2020.2.10,60.00982661232527,
edthe,edthe,,,,,,,,,0,111,111,111,,,,,,,,,,,,,,,,,,,1337.244127583006,None,None,0,,1337.244127583006,None,1337.2445339451995,1337.3447162499942,,,,,,,,,,fjdksla,001,2022_Mar_16_1620,test_typingtask_norepeats_20rep,2020.2.10,60.00982661232527,
would,would,,,,,,,,,0,112,112,112,,,,,,,,,,,,,,,,,,,1342.7436813749955,None,None,0,,1342.7436813749955,None,1342.7443496951935,1342.8444847909996,,,,,,,,,,fjdksla,001,2022_Mar_16_1620,test_typingtask_norepeats_20rep,2020.2.10,60.00982661232527,
haole,haole,,,,,,,,,0,113,113,113,,,,,,,,,,,,,,,,,,,1348.2444823749975,None,None,0,,1348.2444823749975,None,1348.2441611951988,1348.3442487080029,,,,,,,,,,fjdksla,001,2022_Mar_16_1620,test_typingtask_norepeats_20rep,2020.2.10,60.00982661232527,
puppy,puppy,,,,,,,,,0,114,114,114,,,,,,,,,,,,,,,,,,,1353.7439055830037,None,None,0,,1353.7439055830037,None,1353.7442028201956,1353.844355207999,,,,,,,,,,fjdksla,001,2022_Mar_16_1620,test_typingtask_norepeats_20rep,2020.2.10,60.00982661232527,
kremp,kremp,,,,,,,,,0,115,115,115,,,,,,,,,,,,,,,,,,,1359.244036958,None,None,0,,1359.244036958,None,1359.2443837372018,1359.344423165996,,,,,,,,,,fjdksla,001,2022_Mar_16_1620,test_typingtask_norepeats_20rep,2020.2.10,60.00982661232527,
edthe,edthe,,,,,,,,,0,116,116,116,,,,,,,,,,,,,,,,,,,1364.7438112910022,None,None,0,,1364.7438112910022,None,1364.7443716121968,1364.844337290997,,,,,,,,,,fjdksla,001,2022_Mar_16_1620,test_typingtask_norepeats_20rep,2020.2.10,60.00982661232527,
champ,champ,,,,,,,,,0,117,117,117,,,,,,,,,,,,,,,,,,,1370.2438555830013,None,None,0,,1370.2438555830013,None,1370.2444049451922,1370.3439973750064,,,,,,,,,,fjdksla,001,2022_Mar_16_1620,test_typingtask_norepeats_20rep,2020.2.10,60.00982661232527,
buddy,buddy,,,,,,,,,0,118,118,118,,,,,,,,,,,,,,,,,,,1375.7609227499925,None,None,0,,1375.7609227499925,None,1375.7607948621924,1375.8607644580043,,,,,,,,,,fjdksla,001,2022_Mar_16_1620,test_typingtask_norepeats_20rep,2020.2.10,60.00982661232527,
haole,haole,,,,,,,,,0,119,119,119,,,,,,,,,,,,,,,,,,,1381.2602426249941,None,None,0,,1381.2602426249941,None,1381.2610814451953,1381.360991249996,,,,,,,,,,fjdksla,001,2022_Mar_16_1620,test_typingtask_norepeats_20rep,2020.2.10,60.00982661232527,
cooed,cooed,,,,,,,,,,,,,0,0,0,95,,,,,,,,,,,,,1386.761314125004,None,,,,,,,,,,1395.5278355409973,None,"['c', 'o', 'o', 'e', 'd']",1,"[0.7102827499911655, 0.8659745829936583, 0.9732554999936838, 1.0651091249892488, 1.2295764579903334]",1395.5278355409973,None,,,fjdksla,001,2022_Mar_16_1620,test_typingtask_norepeats_20rep,2020.2.10,60.00982661232527,
cooed,cooed,,,,,,,,,,,,,0,0,0,95,,,,,,,,,,,,,,,,,,,,,,,,,,,,,,,1395.5289884451965,None,fjdksla,001,2022_Mar_16_1620,test_typingtask_norepeats_20rep,2020.2.10,60.00982661232527,
cooed,cooed,,,,,,,,,,,,,0,1,1,111,,,,,,,,,,,,,,,,,,,,,,,,1401.0279947910021,None,"['f', 'j', 'k', 'd', 'l', 's', 'j', 'f', 'k', 'd']",0,"[2.314265458000591, 2.346410583006218, 2.406420708008227, 2.406420708008227, 2.4744041660014773, 2.4901794160105055, 2.546401499013882, 2.558226999011822, 2.61422683300043, 2.6262234990135767]",1401.0279947910021,None,,,fjdksla,001,2022_Mar_16_1620,test_typingtask_norepeats_20rep,2020.2.10,60.00982661232527,
cooed,cooed,,,,,,,,,,,,,0,1,1,111,,,,,,,,,,,,,,,,,,,,,,,,,,,,,,,1401.0279534041954,1401.127695999996,fjdksla,001,2022_Mar_16_1620,test_typingtask_norepeats_20rep,2020.2.10,60.00982661232527,
zibja,zibja,,,,,,,,,,,,,0,2,2,1,,,,,,,,,,,,,,,,,,,,,,,,1406.5271945410059,None,"['z', 'i', 'b', 'j', 'a']",1,"[0.9210797499981709, 1.0413822920090752, 1.1736118330009049, 1.382250082999235, 1.4772085419972427]",1406.5271945410059,None,,,fjdksla,001,2022_Mar_16_1620,test_typingtask_norepeats_20rep,2020.2.10,60.00982661232527,
zibja,zibja,,,,,,,,,,,,,0,2,2,1,,,,,,,,,,,,,,,,,,,,,,,,,,,,,,,1406.5278521121988,1406.627340291001,fjdksla,001,2022_Mar_16_1620,test_typingtask_norepeats_20rep,2020.2.10,60.00982661232527,
faqir,faqir,,,,,,,,,,,,,0,3,3,37,,,,,,,,,,,,,,,,,,,,,,,,1412.0272091249935,None,"['f', 'q', 'i', 'r']",0,"[0.7086182920029387, 1.3511164170049597, 1.66681895799411, 1.8813650420052]",1412.0272091249935,None,,,fjdksla,001,2022_Mar_16_1620,test_typingtask_norepeats_20rep,2020.2.10,60.00982661232527,
faqir,faqir,,,,,,,,,,,,,0,3,3,37,,,,,,,,,,,,,,,,,,,,,,,,,,,,,,,1412.0277339041975,1412.1275279999973,fjdksla,001,2022_Mar_16_1620,test_typingtask_norepeats_20rep,2020.2.10,60.00982661232527,
tithe,tithe,,,,,,,,,,,,,0,4,4,101,,,,,,,,,,,,,,,,,,,,,,,,1417.5268785410008,None,"['t', 'i', 't', 'h', 'e']",1,"[0.6570326239889255, 0.8649265830026707, 0.9751709159900201, 1.074424498990993, 1.1424828739982331]",1417.5268785410008,None,,,fjdksla,001,2022_Mar_16_1620,test_typingtask_norepeats_20rep,2020.2.10,60.00982661232527,
tithe,tithe,,,,,,,,,,,,,0,4,4,101,,,,,,,,,,,,,,,,,,,,,,,,,,,,,,,1417.527878487196,1417.6271221250063,fjdksla,001,2022_Mar_16_1620,test_typingtask_norepeats_20rep,2020.2.10,60.00982661232527,
zibja,zibja,,,,,,,,,,,,,0,5,5,64,,,,,,,,,,,,,,,,,,,,,,,,1423.0270417080028,None,None,0,,1423.0270417080028,None,,,fjdksla,001,2022_Mar_16_1620,test_typingtask_norepeats_20rep,2020.2.10,60.00982661232527,
zibja,zibja,,,,,,,,,,,,,0,5,5,64,,,,,,,,,,,,,,,,,,,,,,,,,,,,,,,1423.0281745701984,1423.1276857079938,fjdksla,001,2022_Mar_16_1620,test_typingtask_norepeats_20rep,2020.2.10,60.00982661232527,
belly,belly,,,,,,,,,,,,,0,6,6,61,,,,,,,,,,,,,,,,,,,,,,,,1428.5269642500061,None,"['f', 'j', 'd', 'k', 'l', 's', 'a']",0,"[0.5506373739917763, 0.558555207986501, 0.6225247079855762, 0.6348067079961766, 0.6986979159992188, 0.7348924989928491, 0.7664570829947479]",1428.5269642500061,None,,,fjdksla,001,2022_Mar_16_1620,test_typingtask_norepeats_20rep,2020.2.10,60.00982661232527,
belly,belly,,,,,,,,,,,,,0,6,6,61,,,,,,,,,,,,,,,,,,,,,,,,,,,,,,,1428.5279315292034,1428.6275605830015,fjdksla,001,2022_Mar_16_1620,test_typingtask_norepeats_20rep,2020.2.10,60.00982661232527,
pykka,pykka,,,,,,,,,,,,,0,7,7,2,,,,,,,,,,,,,,,,,,,,,,,,1434.027173124996,None,"['p', 'y', 'k', 'k', 'a']",1,"[0.6627167499973439, 0.896373958006734, 1.152473791007651, 1.2497727500012843, 1.3324480410083197]",1434.027173124996,None,,,fjdksla,001,2022_Mar_16_1620,test_typingtask_norepeats_20rep,2020.2.10,60.00982661232527,
pykka,pykka,,,,,,,,,,,,,0,7,7,2,,,,,,,,,,,,,,,,,,,,,,,,,,,,,,,1434.0274994451945,1434.1280230830016,fjdksla,001,2022_Mar_16_1620,test_typingtask_norepeats_20rep,2020.2.10,60.00982661232527,
vodka,vodka,,,,,,,,,,,,,0,8,8,109,,,,,,,,,,,,,,,,,,,,,,,,1439.5271038329956,None,"['f', 'j', 'k', 'd', 'l', 's', 'a']",0,"[0.5086849579965929, 0.5167197080008918, 0.5967009160085581, 0.6008646240079543, 0.6567853330052458, 0.6726822909986367, 0.6966335830074968]",1439.5271038329956,None,,,fjdksla,001,2022_Mar_16_1620,test_typingtask_norepeats_20rep,2020.2.10,60.00982661232527,
vodka,vodka,,,,,,,,,,,,,0,8,8,109,,,,,,,,,,,,,,,,,,,,,,,,,,,,,,,1439.5279570702012,1439.627531582999,fjdksla,001,2022_Mar_16_1620,test_typingtask_norepeats_20rep,2020.2.10,60.00982661232527,
would,would,,,,,,,,,,,,,0,9,9,81,,,,,,,,,,,,,,,,,,,,,,,,1445.0279996250028,None,None,0,,1445.0279996250028,None,,,fjdksla,001,2022_Mar_16_1620,test_typingtask_norepeats_20rep,2020.2.10,60.00982661232527,
would,would,,,,,,,,,,,,,0,9,9,81,,,,,,,,,,,,,,,,,,,,,,,,,,,,,,,1445.0272584872043,1445.1281376249972,fjdksla,001,2022_Mar_16_1620,test_typingtask_norepeats_20rep,2020.2.10,60.00982661232527,
there,there,,,,,,,,,,,,,0,10,10,38,,,,,,,,,,,,,,,,,,,,,,,,1450.5270687909942,None,None,0,,1450.5270687909942,None,,,fjdksla,001,2022_Mar_16_1620,test_typingtask_norepeats_20rep,2020.2.10,60.00982661232527,
there,there,,,,,,,,,,,,,0,10,10,38,,,,,,,,,,,,,,,,,,,,,,,,,,,,,,,1450.5277437792,1450.627854249993,fjdksla,001,2022_Mar_16_1620,test_typingtask_norepeats_20rep,2020.2.10,60.00982661232527,
theme,theme,,,,,,,,,,,,,0,11,11,93,,,,,,,,,,,,,,,,,,,,,,,,1456.0269221250055,None,None,0,,1456.0269221250055,None,,,fjdksla,001,2022_Mar_16_1620,test_typingtask_norepeats_20rep,2020.2.10,60.00982661232527,
theme,theme,,,,,,,,,,,,,0,11,11,93,,,,,,,,,,,,,,,,,,,,,,,,,,,,,,,1456.0280258202008,1456.1273311660043,fjdksla,001,2022_Mar_16_1620,test_typingtask_norepeats_20rep,2020.2.10,60.00982661232527,
champ,champ,,,,,,,,,,,,,0,12,12,112,,,,,,,,,,,,,,,,,,,,,,,,1461.526923832993,None,None,0,,1461.526923832993,None,,,fjdksla,001,2022_Mar_16_1620,test_typingtask_norepeats_20rep,2020.2.10,60.00982661232527,
champ,champ,,,,,,,,,,,,,0,12,12,112,,,,,,,,,,,,,,,,,,,,,,,,,,,,,,,1461.5276676542023,1461.627537332999,fjdksla,001,2022_Mar_16_1620,test_typingtask_norepeats_20rep,2020.2.10,60.00982661232527,
cooed,cooed,,,,,,,,,,,,,0,13,13,117,,,,,,,,,,,,,,,,,,,,,,,,1467.0268049580045,None,None,0,,1467.0268049580045,None,,,fjdksla,001,2022_Mar_16_1620,test_typingtask_norepeats_20rep,2020.2.10,60.00982661232527,
cooed,cooed,,,,,,,,,,,,,0,13,13,117,,,,,,,,,,,,,,,,,,,,,,,,,,,,,,,1467.0276046121915,1467.1275036659936,fjdksla,001,2022_Mar_16_1620,test_typingtask_norepeats_20rep,2020.2.10,60.00982661232527,
puppy,puppy,,,,,,,,,,,,,0,14,14,97,,,,,,,,,,,,,,,,,,,,,,,,1472.5272567079955,None,None,0,,1472.5272567079955,None,,,fjdksla,001,2022_Mar_16_1620,test_typingtask_norepeats_20rep,2020.2.10,60.00982661232527,
puppy,puppy,,,,,,,,,,,,,0,14,14,97,,,,,,,,,,,,,,,,,,,,,,,,,,,,,,,1472.5291148621952,None,fjdksla,001,2022_Mar_16_1620,test_typingtask_norepeats_20rep,2020.2.10,60.00982661232527,
theme,theme,,,,,,,,,,,,,0,15,15,91,,,,,,,,,,,,,,,,,,,,,,,,1478.027217499999,None,None,0,,1478.027217499999,None,,,fjdksla,001,2022_Mar_16_1620,test_typingtask_norepeats_20rep,2020.2.10,60.00982661232527,
theme,theme,,,,,,,,,,,,,0,15,15,91,,,,,,,,,,,,,,,,,,,,,,,,,,,,,,,1478.0279643201982,1478.127880208005,fjdksla,001,2022_Mar_16_1620,test_typingtask_norepeats_20rep,2020.2.10,60.00982661232527,
lucky,lucky,,,,,,,,,,,,,0,16,16,62,,,,,,,,,,,,,,,,,,,,,,,,1483.5270554580056,None,None,0,,1483.5270554580056,None,,,fjdksla,001,2022_Mar_16_1620,test_typingtask_norepeats_20rep,2020.2.10,60.00982661232527,
lucky,lucky,,,,,,,,,,,,,0,16,16,62,,,,,,,,,,,,,,,,,,,,,,,,,,,,,,,1483.5278728202,1483.6263818750012,fjdksla,001,2022_Mar_16_1620,test_typingtask_norepeats_20rep,2020.2.10,60.00982661232527,
haole,haole,,,,,,,,,,,,,0,17,17,74,,,,,,,,,,,,,,,,,,,,,,,,1489.0271309999953,None,None,0,,1489.0271309999953,None,,,fjdksla,001,2022_Mar_16_1620,test_typingtask_norepeats_20rep,2020.2.10,60.00982661232527,
haole,haole,,,,,,,,,,,,,0,17,17,74,,,,,,,,,,,,,,,,,,,,,,,,,,,,,,,1489.0272017371942,1489.1270692079997,fjdksla,001,2022_Mar_16_1620,test_typingtask_norepeats_20rep,2020.2.10,60.00982661232527,
druze,druze,,,,,,,,,,,,,0,18,18,118,,,,,,,,,,,,,,,,,,,,,,,,1494.526742999995,None,None,0,,1494.526742999995,None,,,fjdksla,001,2022_Mar_16_1620,test_typingtask_norepeats_20rep,2020.2.10,60.00982661232527,
druze,druze,,,,,,,,,,,,,0,18,18,118,,,,,,,,,,,,,,,,,,,,,,,,,,,,,,,1494.5276279042052,1494.6277368330047,fjdksla,001,2022_Mar_16_1620,test_typingtask_norepeats_20rep,2020.2.10,60.00982661232527,
isvar,isvar,,,,,,,,,,,,,0,19,19,103,,,,,,,,,,,,,,,,,,,,,,,,1500.0268749160023,None,None,0,,1500.0268749160023,None,,,fjdksla,001,2022_Mar_16_1620,test_typingtask_norepeats_20rep,2020.2.10,60.00982661232527,
isvar,isvar,,,,,,,,,,,,,0,19,19,103,,,,,,,,,,,,,,,,,,,,,,,,,,,,,,,1500.027427487196,1500.127141082994,fjdksla,001,2022_Mar_16_1620,test_typingtask_norepeats_20rep,2020.2.10,60.00982661232527,
lucky,lucky,,,,,,,,,,,,,0,20,20,69,,,,,,,,,,,,,,,,,,,,,,,,1505.5275050409982,None,None,0,,1505.5275050409982,None,,,fjdksla,001,2022_Mar_16_1620,test_typingtask_norepeats_20rep,2020.2.10,60.00982661232527,
lucky,lucky,,,,,,,,,,,,,0,20,20,69,,,,,,,,,,,,,,,,,,,,,,,,,,,,,,,1505.5276979041998,1505.6280959160067,fjdksla,001,2022_Mar_16_1620,test_typingtask_norepeats_20rep,2020.2.10,60.00982661232527,
cheer,cheer,,,,,,,,,,,,,0,21,21,57,,,,,,,,,,,,,,,,,,,,,,,,1511.0271665829932,None,None,0,,1511.0271665829932,None,,,fjdksla,001,2022_Mar_16_1620,test_typingtask_norepeats_20rep,2020.2.10,60.00982661232527,
cheer,cheer,,,,,,,,,,,,,0,21,21,57,,,,,,,,,,,,,,,,,,,,,,,,,,,,,,,1511.0274305292012,1511.1274185410002,fjdksla,001,2022_Mar_16_1620,test_typingtask_norepeats_20rep,2020.2.10,60.00982661232527,
buddy,buddy,,,,,,,,,,,,,0,22,22,68,,,,,,,,,,,,,,,,,,,,,,,,1516.5274884579994,None,None,0,,1516.5274884579994,None,,,fjdksla,001,2022_Mar_16_1620,test_typingtask_norepeats_20rep,2020.2.10,60.00982661232527,
buddy,buddy,,,,,,,,,,,,,0,22,22,68,,,,,,,,,,,,,,,,,,,,,,,,,,,,,,,1516.5277033622012,1516.627365708002,fjdksla,001,2022_Mar_16_1620,test_typingtask_norepeats_20rep,2020.2.10,60.00982661232527,
druze,druze,,,,,,,,,,,,,0,23,23,102,,,,,,,,,,,,,,,,,,,,,,,,1522.0276562910003,None,None,0,,1522.0276562910003,None,,,fjdksla,001,2022_Mar_16_1620,test_typingtask_norepeats_20rep,2020.2.10,60.00982661232527,
druze,druze,,,,,,,,,,,,,0,23,23,102,,,,,,,,,,,,,,,,,,,,,,,,,,,,,,,1522.0273832371938,1522.1271852500067,fjdksla,001,2022_Mar_16_1620,test_typingtask_norepeats_20rep,2020.2.10,60.00982661232527,
would,would,,,,,,,,,,,,,0,24,24,32,,,,,,,,,,,,,,,,,,,,,,,,1527.527484791004,None,None,0,,1527.527484791004,None,,,fjdksla,001,2022_Mar_16_1620,test_typingtask_norepeats_20rep,2020.2.10,60.00982661232527,
would,would,,,,,,,,,,,,,0,24,24,32,,,,,,,,,,,,,,,,,,,,,,,,,,,,,,,1527.5278011542002,1527.6280558750004,fjdksla,001,2022_Mar_16_1620,test_typingtask_norepeats_20rep,2020.2.10,60.00982661232527,
there,there,,,,,,,,,,,,,0,25,25,26,,,,,,,,,,,,,,,,,,,,,,,,1533.0268049580045,None,None,0,,1533.0268049580045,None,,,fjdksla,001,2022_Mar_16_1620,test_typingtask_norepeats_20rep,2020.2.10,60.00982661232527,
there,there,,,,,,,,,,,,,0,25,25,26,,,,,,,,,,,,,,,,,,,,,,,,,,,,,,,1533.027730362203,1533.1273972500057,fjdksla,001,2022_Mar_16_1620,test_typingtask_norepeats_20rep,2020.2.10,60.00982661232527,
theme,theme,,,,,,,,,,,,,0,26,26,14,,,,,,,,,,,,,,,,,,,,,,,,1538.5268786660017,None,None,0,,1538.5268786660017,None,,,fjdksla,001,2022_Mar_16_1620,test_typingtask_norepeats_20rep,2020.2.10,60.00982661232527,
theme,theme,,,,,,,,,,,,,0,26,26,14,,,,,,,,,,,,,,,,,,,,,,,,,,,,,,,1538.5274084452,1538.6270037499926,fjdksla,001,2022_Mar_16_1620,test_typingtask_norepeats_20rep,2020.2.10,60.00982661232527,
tithe,tithe,,,,,,,,,,,,,0,27,27,76,,,,,,,,,,,,,,,,,,,,,,,,1544.0273837080022,None,None,0,,1544.0273837080022,None,,,fjdksla,001,2022_Mar_16_1620,test_typingtask_norepeats_20rep,2020.2.10,60.00982661232527,
tithe,tithe,,,,,,,,,,,,,0,27,27,76,,,,,,,,,,,,,,,,,,,,,,,,,,,,,,,1544.0272994871964,1544.1275766250037,fjdksla,001,2022_Mar_16_1620,test_typingtask_norepeats_20rep,2020.2.10,60.00982661232527,
cheer,cheer,,,,,,,,,,,,,0,28,28,48,,,,,,,,,,,,,,,,,,,,,,,,1549.5275722499937,None,None,0,,1549.5275722499937,None,,,fjdksla,001,2022_Mar_16_1620,test_typingtask_norepeats_20rep,2020.2.10,60.00982661232527,
cheer,cheer,,,,,,,,,,,,,0,28,28,48,,,,,,,,,,,,,,,,,,,,,,,,,,,,,,,1549.5278561952043,1549.6274485829927,fjdksla,001,2022_Mar_16_1620,test_typingtask_norepeats_20rep,2020.2.10,60.00982661232527,
lucky,lucky,,,,,,,,,,,,,0,29,29,90,,,,,,,,,,,,,,,,,,,,,,,,1555.0275311250007,None,None,0,,1555.0275311250007,None,,,fjdksla,001,2022_Mar_16_1620,test_typingtask_norepeats_20rep,2020.2.10,60.00982661232527,
lucky,lucky,,,,,,,,,,,,,0,29,29,90,,,,,,,,,,,,,,,,,,,,,,,,,,,,,,,1555.027294029195,1555.1273146250023,fjdksla,001,2022_Mar_16_1620,test_typingtask_norepeats_20rep,2020.2.10,60.00982661232527,
belly,belly,,,,,,,,,,,,,0,30,30,108,,,,,,,,,,,,,,,,,,,,,,,,1560.5270195829944,None,None,0,,1560.5270195829944,None,,,fjdksla,001,2022_Mar_16_1620,test_typingtask_norepeats_20rep,2020.2.10,60.00982661232527,
belly,belly,,,,,,,,,,,,,0,30,30,108,,,,,,,,,,,,,,,,,,,,,,,,,,,,,,,1560.5274146541967,1560.627682249993,fjdksla,001,2022_Mar_16_1620,test_typingtask_norepeats_20rep,2020.2.10,60.00982661232527,
puppy,puppy,,,,,,,,,,,,,0,31,31,89,,,,,,,,,,,,,,,,,,,,,,,,1566.0283303750039,None,None,0,,1566.0283303750039,None,,,fjdksla,001,2022_Mar_16_1620,test_typingtask_norepeats_20rep,2020.2.10,60.00982661232527,
puppy,puppy,,,,,,,,,,,,,0,31,31,89,,,,,,,,,,,,,,,,,,,,,,,,,,,,,,,1566.0273875702012,1566.1275386659981,fjdksla,001,2022_Mar_16_1620,test_typingtask_norepeats_20rep,2020.2.10,60.00982661232527,
there,there,,,,,,,,,,,,,0,32,32,5,,,,,,,,,,,,,,,,,,,,,,,,1571.5275434159994,None,None,0,,1571.5275434159994,None,,,fjdksla,001,2022_Mar_16_1620,test_typingtask_norepeats_20rep,2020.2.10,60.00982661232527,
there,there,,,,,,,,,,,,,0,32,32,5,,,,,,,,,,,,,,,,,,,,,,,,,,,,,,,1571.5270127791925,1571.6273599999986,fjdksla,001,2022_Mar_16_1620,test_typingtask_norepeats_20rep,2020.2.10,60.00982661232527,
heond,heond,,,,,,,,,,,,,0,33,33,47,,,,,,,,,,,,,,,,,,,,,,,,1577.0271671660012,None,None,0,,1577.0271671660012,None,,,fjdksla,001,2022_Mar_16_1620,test_typingtask_norepeats_20rep,2020.2.10,60.00982661232527,
heond,heond,,,,,,,,,,,,,0,33,33,47,,,,,,,,,,,,,,,,,,,,,,,,,,,,,,,1577.0278286121945,1577.1272223749984,fjdksla,001,2022_Mar_16_1620,test_typingtask_norepeats_20rep,2020.2.10,60.00982661232527,
isvar,isvar,,,,,,,,,,,,,0,34,34,17,,,,,,,,,,,,,,,,,,,,,,,,1582.527565915996,None,None,0,,1582.527565915996,None,,,fjdksla,001,2022_Mar_16_1620,test_typingtask_norepeats_20rep,2020.2.10,60.00982661232527,
isvar,isvar,,,,,,,,,,,,,0,34,34,17,,,,,,,,,,,,,,,,,,,,,,,,,,,,,,,1582.5274449452015,1582.6267309999967,fjdksla,001,2022_Mar_16_1620,test_typingtask_norepeats_20rep,2020.2.10,60.00982661232527,
lucky,lucky,,,,,,,,,,,,,0,35,35,7,,,,,,,,,,,,,,,,,,,,,,,,1588.0270893749985,None,None,0,,1588.0270893749985,None,,,fjdksla,001,2022_Mar_16_1620,test_typingtask_norepeats_20rep,2020.2.10,60.00982661232527,
lucky,lucky,,,,,,,,,,,,,0,35,35,7,,,,,,,,,,,,,,,,,,,,,,,,,,,,,,,1588.0275618622006,1588.1270859999931,fjdksla,001,2022_Mar_16_1620,test_typingtask_norepeats_20rep,2020.2.10,60.00982661232527,
champ,champ,,,,,,,,,,,,,0,36,36,54,,,,,,,,,,,,,,,,,,,,,,,,1593.527140708,None,None,0,,1593.527140708,None,,,fjdksla,001,2022_Mar_16_1620,test_typingtask_norepeats_20rep,2020.2.10,60.00982661232527,
champ,champ,,,,,,,,,,,,,0,36,36,54,,,,,,,,,,,,,,,,,,,,,,,,,,,,,,,1593.5277191542016,1593.6271735409973,fjdksla,001,2022_Mar_16_1620,test_typingtask_norepeats_20rep,2020.2.10,60.00982661232527,
belly,belly,,,,,,,,,,,,,0,37,37,31,,,,,,,,,,,,,,,,,,,,,,,,1599.0271460829972,None,None,0,,1599.0271460829972,None,,,fjdksla,001,2022_Mar_16_1620,test_typingtask_norepeats_20rep,2020.2.10,60.00982661232527,
belly,belly,,,,,,,,,,,,,0,37,37,31,,,,,,,,,,,,,,,,,,,,,,,,,,,,,,,1599.0277666541995,1599.127534500003,fjdksla,001,2022_Mar_16_1620,test_typingtask_norepeats_20rep,2020.2.10,60.00982661232527,
faqir,faqir,,,,,,,,,,,,,0,38,38,21,,,,,,,,,,,,,,,,,,,,,,,,1604.5271758750023,None,None,0,,1604.5271758750023,None,,,fjdksla,001,2022_Mar_16_1620,test_typingtask_norepeats_20rep,2020.2.10,60.00982661232527,
faqir,faqir,,,,,,,,,,,,,0,38,38,21,,,,,,,,,,,,,,,,,,,,,,,,,,,,,,,1604.527641195197,1604.6275051249977,fjdksla,001,2022_Mar_16_1620,test_typingtask_norepeats_20rep,2020.2.10,60.00982661232527,
haole,haole,,,,,,,,,,,,,0,39,39,0,,,,,,,,,,,,,,,,,,,,,,,,1610.026972000007,None,None,0,,1610.026972000007,None,,,fjdksla,001,2022_Mar_16_1620,test_typingtask_norepeats_20rep,2020.2.10,60.00982661232527,
haole,haole,,,,,,,,,,,,,0,39,39,0,,,,,,,,,,,,,,,,,,,,,,,,,,,,,,,1610.0273571952027,1610.1268692080048,fjdksla,001,2022_Mar_16_1620,test_typingtask_norepeats_20rep,2020.2.10,60.00982661232527,
there,there,,,,,,,,,,,,,0,40,40,53,,,,,,,,,,,,,,,,,,,,,,,,1615.526907958003,None,None,0,,1615.526907958003,None,,,fjdksla,001,2022_Mar_16_1620,test_typingtask_norepeats_20rep,2020.2.10,60.00982661232527,
there,there,,,,,,,,,,,,,0,40,40,53,,,,,,,,,,,,,,,,,,,,,,,,,,,,,,,1615.5273658201957,1615.6271637080063,fjdksla,001,2022_Mar_16_1620,test_typingtask_norepeats_20rep,2020.2.10,60.00982661232527,
vodka,vodka,,,,,,,,,,,,,0,41,41,77,,,,,,,,,,,,,,,,,,,,,,,,1621.027721749997,None,None,0,,1621.027721749997,None,,,fjdksla,001,2022_Mar_16_1620,test_typingtask_norepeats_20rep,2020.2.10,60.00982661232527,
vodka,vodka,,,,,,,,,,,,,0,41,41,77,,,,,,,,,,,,,,,,,,,,,,,,,,,,,,,1621.0273252792,1621.1274041249999,fjdksla,001,2022_Mar_16_1620,test_typingtask_norepeats_20rep,2020.2.10,60.00982661232527,
faqir,faqir,,,,,,,,,,,,,0,42,42,86,,,,,,,,,,,,,,,,,,,,,,,,1626.5262087500014,None,None,0,,1626.5262087500014,None,,,fjdksla,001,2022_Mar_16_1620,test_typingtask_norepeats_20rep,2020.2.10,60.00982661232527,
faqir,faqir,,,,,,,,,,,,,0,42,42,86,,,,,,,,,,,,,,,,,,,,,,,,,,,,,,,1626.5279649041956,1626.627643083004,fjdksla,001,2022_Mar_16_1620,test_typingtask_norepeats_20rep,2020.2.10,60.00982661232527,
kremp,kremp,,,,,,,,,,,,,0,43,43,19,,,,,,,,,,,,,,,,,,,,,,,,1632.0274304159975,None,None,0,,1632.0274304159975,None,,,fjdksla,001,2022_Mar_16_1620,test_typingtask_norepeats_20rep,2020.2.10,60.00982661232527,
kremp,kremp,,,,,,,,,,,,,0,43,43,19,,,,,,,,,,,,,,,,,,,,,,,,,,,,,,,1632.0270012791923,1632.127596249993,fjdksla,001,2022_Mar_16_1620,test_typingtask_norepeats_20rep,2020.2.10,60.00982661232527,
think,think,,,,,,,,,,,,,0,44,44,82,,,,,,,,,,,,,,,,,,,,,,,,1637.5266574580019,None,None,0,,1637.5266574580019,None,,,fjdksla,001,2022_Mar_16_1620,test_typingtask_norepeats_20rep,2020.2.10,60.00982661232527,
think,think,,,,,,,,,,,,,0,44,44,82,,,,,,,,,,,,,,,,,,,,,,,,,,,,,,,1637.5274738622,1637.627023166002,fjdksla,001,2022_Mar_16_1620,test_typingtask_norepeats_20rep,2020.2.10,60.00982661232527,
cheer,cheer,,,,,,,,,,,,,0,45,45,52,,,,,,,,,,,,,,,,,,,,,,,,1643.0272593749978,None,None,0,,1643.0272593749978,None,,,fjdksla,001,2022_Mar_16_1620,test_typingtask_norepeats_20rep,2020.2.10,60.00982661232527,
cheer,cheer,,,,,,,,,,,,,0,45,45,52,,,,,,,,,,,,,,,,,,,,,,,,,,,,,,,1643.0272712371996,1643.1275771660003,fjdksla,001,2022_Mar_16_1620,test_typingtask_norepeats_20rep,2020.2.10,60.00982661232527,
about,about,,,,,,,,,,,,,0,46,46,42,,,,,,,,,,,,,,,,,,,,,,,,1648.5436302080052,None,None,0,,1648.5436302080052,None,,,fjdksla,001,2022_Mar_16_1620,test_typingtask_norepeats_20rep,2020.2.10,60.00982661232527,
about,about,,,,,,,,,,,,,0,46,46,42,,,,,,,,,,,,,,,,,,,,,,,,,,,,,,,1648.5447859871972,1648.6441689159983,fjdksla,001,2022_Mar_16_1620,test_typingtask_norepeats_20rep,2020.2.10,60.00982661232527,
kremp,kremp,,,,,,,,,,,,,0,47,47,25,,,,,,,,,,,,,,,,,,,,,,,,1654.0437630410015,None,None,0,,1654.0437630410015,None,,,fjdksla,001,2022_Mar_16_1620,test_typingtask_norepeats_20rep,2020.2.10,60.00982661232527,
kremp,kremp,,,,,,,,,,,,,0,47,47,25,,,,,,,,,,,,,,,,,,,,,,,,,,,,,,,1654.0445867371934,1654.1441164999997,fjdksla,001,2022_Mar_16_1620,test_typingtask_norepeats_20rep,2020.2.10,60.00982661232527,
faqir,faqir,,,,,,,,,,,,,0,48,48,15,,,,,,,,,,,,,,,,,,,,,,,,1659.5436248750048,None,None,0,,1659.5436248750048,None,,,fjdksla,001,2022_Mar_16_1620,test_typingtask_norepeats_20rep,2020.2.10,60.00982661232527,
faqir,faqir,,,,,,,,,,,,,0,48,48,15,,,,,,,,,,,,,,,,,,,,,,,,,,,,,,,1659.5437675702021,1659.644092165996,fjdksla,001,2022_Mar_16_1620,test_typingtask_norepeats_20rep,2020.2.10,60.00982661232527,
druze,druze,,,,,,,,,,,,,0,49,49,55,,,,,,,,,,,,,,,,,,,,,,,,1665.0435735000065,None,None,0,,1665.0435735000065,None,,,fjdksla,001,2022_Mar_16_1620,test_typingtask_norepeats_20rep,2020.2.10,60.00982661232527,
druze,druze,,,,,,,,,,,,,0,49,49,55,,,,,,,,,,,,,,,,,,,,,,,,,,,,,,,1665.0441566951965,1665.1440677500068,fjdksla,001,2022_Mar_16_1620,test_typingtask_norepeats_20rep,2020.2.10,60.00982661232527,
cooed,cooed,,,,,,,,,,,,,0,50,50,63,,,,,,,,,,,,,,,,,,,,,,,,1670.5434842079994,None,None,0,,1670.5434842079994,None,,,fjdksla,001,2022_Mar_16_1620,test_typingtask_norepeats_20rep,2020.2.10,60.00982661232527,
cooed,cooed,,,,,,,,,,,,,0,50,50,63,,,,,,,,,,,,,,,,,,,,,,,,,,,,,,,1670.544065279192,1670.644068374997,fjdksla,001,2022_Mar_16_1620,test_typingtask_norepeats_20rep,2020.2.10,60.00982661232527,
zibja,zibja,,,,,,,,,,,,,0,51,51,12,,,,,,,,,,,,,,,,,,,,,,,,1676.043210541,None,None,0,,1676.043210541,None,,,fjdksla,001,2022_Mar_16_1620,test_typingtask_norepeats_20rep,2020.2.10,60.00982661232527,
zibja,zibja,,,,,,,,,,,,,0,51,51,12,,,,,,,,,,,,,,,,,,,,,,,,,,,,,,,1676.044205570205,1676.143563000005,fjdksla,001,2022_Mar_16_1620,test_typingtask_norepeats_20rep,2020.2.10,60.00982661232527,
theme,theme,,,,,,,,,,,,,0,52,52,45,,,,,,,,,,,,,,,,,,,,,,,,1681.543531250005,None,None,0,,1681.543531250005,None,,,fjdksla,001,2022_Mar_16_1620,test_typingtask_norepeats_20rep,2020.2.10,60.00982661232527,
theme,theme,,,,,,,,,,,,,0,52,52,45,,,,,,,,,,,,,,,,,,,,,,,,,,,,,,,1681.5442872791944,1681.6440242499957,fjdksla,001,2022_Mar_16_1620,test_typingtask_norepeats_20rep,2020.2.10,60.00982661232527,
druze,druze,,,,,,,,,,,,,0,53,53,115,,,,,,,,,,,,,,,,,,,,,,,,1687.0435069160012,None,None,0,,1687.0435069160012,None,,,fjdksla,001,2022_Mar_16_1620,test_typingtask_norepeats_20rep,2020.2.10,60.00982661232527,
druze,druze,,,,,,,,,,,,,0,53,53,115,,,,,,,,,,,,,,,,,,,,,,,,,,,,,,,1687.0443166951925,1687.144147458006,fjdksla,001,2022_Mar_16_1620,test_typingtask_norepeats_20rep,2020.2.10,60.00982661232527,
kremp,kremp,,,,,,,,,,,,,0,54,54,87,,,,,,,,,,,,,,,,,,,,,,,,1692.544191915993,None,None,0,,1692.544191915993,None,,,fjdksla,001,2022_Mar_16_1620,test_typingtask_norepeats_20rep,2020.2.10,60.00982661232527,
kremp,kremp,,,,,,,,,,,,,0,54,54,87,,,,,,,,,,,,,,,,,,,,,,,,,,,,,,,1692.5443845291927,1692.6443495830026,fjdksla,001,2022_Mar_16_1620,test_typingtask_norepeats_20rep,2020.2.10,60.00982661232527,
isvar,isvar,,,,,,,,,,,,,0,55,55,27,,,,,,,,,,,,,,,,,,,,,,,,1698.043609500004,None,None,0,,1698.043609500004,None,,,fjdksla,001,2022_Mar_16_1620,test_typingtask_norepeats_20rep,2020.2.10,60.00982661232527,
isvar,isvar,,,,,,,,,,,,,0,55,55,27,,,,,,,,,,,,,,,,,,,,,,,,,,,,,,,1698.0443545702044,1698.1440261660027,fjdksla,001,2022_Mar_16_1620,test_typingtask_norepeats_20rep,2020.2.10,60.00982661232527,
kremp,kremp,,,,,,,,,,,,,0,56,56,83,,,,,,,,,,,,,,,,,,,,,,,,1703.5440875000058,None,None,0,,1703.5440875000058,None,,,fjdksla,001,2022_Mar_16_1620,test_typingtask_norepeats_20rep,2020.2.10,60.00982661232527,
kremp,kremp,,,,,,,,,,,,,0,56,56,83,,,,,,,,,,,,,,,,,,,,,,,,,,,,,,,1703.5439001542006,1703.6440731659968,fjdksla,001,2022_Mar_16_1620,test_typingtask_norepeats_20rep,2020.2.10,60.00982661232527,
druze,druze,,,,,,,,,,,,,0,57,57,16,,,,,,,,,,,,,,,,,,,,,,,,1709.0437011250033,None,None,0,,1709.0437011250033,None,,,fjdksla,001,2022_Mar_16_1620,test_typingtask_norepeats_20rep,2020.2.10,60.00982661232527,
druze,druze,,,,,,,,,,,,,0,57,57,16,,,,,,,,,,,,,,,,,,,,,,,,,,,,,,,1709.0438833621927,1709.1439930000051,fjdksla,001,2022_Mar_16_1620,test_typingtask_norepeats_20rep,2020.2.10,60.00982661232527,
about,about,,,,,,,,,,,,,0,58,58,58,,,,,,,,,,,,,,,,,,,,,,,,1714.5433703750023,None,None,0,,1714.5433703750023,None,,,fjdksla,001,2022_Mar_16_1620,test_typingtask_norepeats_20rep,2020.2.10,60.00982661232527,
about,about,,,,,,,,,,,,,0,58,58,58,,,,,,,,,,,,,,,,,,,,,,,,,,,,,,,1714.544556112193,1714.6441296249977,fjdksla,001,2022_Mar_16_1620,test_typingtask_norepeats_20rep,2020.2.10,60.00982661232527,
cheer,cheer,,,,,,,,,,,,,0,59,59,3,,,,,,,,,,,,,,,,,,,,,,,,1720.0440716659941,None,None,0,,1720.0440716659941,None,,,fjdksla,001,2022_Mar_16_1620,test_typingtask_norepeats_20rep,2020.2.10,60.00982661232527,
cheer,cheer,,,,,,,,,,,,,0,59,59,3,,,,,,,,,,,,,,,,,,,,,,,,,,,,,,,1720.0442768621913,1720.1443499580055,fjdksla,001,2022_Mar_16_1620,test_typingtask_norepeats_20rep,2020.2.10,60.00982661232527,
pykka,pykka,,,,,,,,,,,,,0,60,60,116,,,,,,,,,,,,,,,,,,,,,,,,1725.5435332909983,None,None,0,,1725.5435332909983,None,,,fjdksla,001,2022_Mar_16_1620,test_typingtask_norepeats_20rep,2020.2.10,60.00982661232527,
pykka,pykka,,,,,,,,,,,,,0,60,60,116,,,,,,,,,,,,,,,,,,,,,,,,,,,,,,,1725.5442093622012,1725.644015333004,fjdksla,001,2022_Mar_16_1620,test_typingtask_norepeats_20rep,2020.2.10,60.00982661232527,
would,would,,,,,,,,,,,,,0,61,61,34,,,,,,,,,,,,,,,,,,,,,,,,1731.044328457996,None,None,0,,1731.044328457996,None,,,fjdksla,001,2022_Mar_16_1620,test_typingtask_norepeats_20rep,2020.2.10,60.00982661232527,
would,would,,,,,,,,,,,,,0,61,61,34,,,,,,,,,,,,,,,,,,,,,,,,,,,,,,,1731.0441124042015,1731.1437033330003,fjdksla,001,2022_Mar_16_1620,test_typingtask_norepeats_20rep,2020.2.10,60.00982661232527,
theme,theme,,,,,,,,,,,,,0,62,62,79,,,,,,,,,,,,,,,,,,,,,,,,1736.5438817910035,None,None,0,,1736.5438817910035,None,,,fjdksla,001,2022_Mar_16_1620,test_typingtask_norepeats_20rep,2020.2.10,60.00982661232527,
theme,theme,,,,,,,,,,,,,0,62,62,79,,,,,,,,,,,,,,,,,,,,,,,,,,,,,,,1736.5440965702044,1736.6438812080014,fjdksla,001,2022_Mar_16_1620,test_typingtask_norepeats_20rep,2020.2.10,60.00982661232527,
therm,therm,,,,,,,,,,,,,0,63,63,18,,,,,,,,,,,,,,,,,,,,,,,,1742.044259000002,None,None,0,,1742.044259000002,None,,,fjdksla,001,2022_Mar_16_1620,test_typingtask_norepeats_20rep,2020.2.10,60.00982661232527,
therm,therm,,,,,,,,,,,,,0,63,63,18,,,,,,,,,,,,,,,,,,,,,,,,,,,,,,,1742.0441918621989,1742.1445563750021,fjdksla,001,2022_Mar_16_1620,test_typingtask_norepeats_20rep,2020.2.10,60.00982661232527,
belly,belly,,,,,,,,,,,,,0,64,64,99,,,,,,,,,,,,,,,,,,,,,,,,1747.5431160000007,None,None,0,,1747.5431160000007,None,,,fjdksla,001,2022_Mar_16_1620,test_typingtask_norepeats_20rep,2020.2.10,60.00982661232527,
belly,belly,,,,,,,,,,,,,0,64,64,99,,,,,,,,,,,,,,,,,,,,,,,,,,,,,,,1747.5441410292012,1747.6439569579961,fjdksla,001,2022_Mar_16_1620,test_typingtask_norepeats_20rep,2020.2.10,60.00982661232527,
haole,haole,,,,,,,,,,,,,0,65,65,80,,,,,,,,,,,,,,,,,,,,,,,,1753.043950457999,None,None,0,,1753.043950457999,None,,,fjdksla,001,2022_Mar_16_1620,test_typingtask_norepeats_20rep,2020.2.10,60.00982661232527,
haole,haole,,,,,,,,,,,,,0,65,65,80,,,,,,,,,,,,,,,,,,,,,,,,,,,,,,,1753.0441249452022,1753.1445617080026,fjdksla,001,2022_Mar_16_1620,test_typingtask_norepeats_20rep,2020.2.10,60.00982661232527,
therm,therm,,,,,,,,,,,,,0,66,66,4,,,,,,,,,,,,,,,,,,,,,,,,1758.5435835410026,None,None,0,,1758.5435835410026,None,,,fjdksla,001,2022_Mar_16_1620,test_typingtask_norepeats_20rep,2020.2.10,60.00982661232527,
therm,therm,,,,,,,,,,,,,0,66,66,4,,,,,,,,,,,,,,,,,,,,,,,,,,,,,,,1758.5439781952052,1758.644236207998,fjdksla,001,2022_Mar_16_1620,test_typingtask_norepeats_20rep,2020.2.10,60.00982661232527,
think,think,,,,,,,,,,,,,0,67,67,72,,,,,,,,,,,,,,,,,,,,,,,,1764.0435233330063,None,None,0,,1764.0435233330063,None,,,fjdksla,001,2022_Mar_16_1620,test_typingtask_norepeats_20rep,2020.2.10,60.00982661232527,
think,think,,,,,,,,,,,,,0,67,67,72,,,,,,,,,,,,,,,,,,,,,,,,,,,,,,,1764.0442282371994,1764.1439028750028,fjdksla,001,2022_Mar_16_1620,test_typingtask_norepeats_20rep,2020.2.10,60.00982661232527,
vodka,vodka,,,,,,,,,,,,,0,68,68,107,,,,,,,,,,,,,,,,,,,,,,,,1769.5441690830048,None,None,0,,1769.5441690830048,None,,,fjdksla,001,2022_Mar_16_1620,test_typingtask_norepeats_20rep,2020.2.10,60.00982661232527,
vodka,vodka,,,,,,,,,,,,,0,68,68,107,,,,,,,,,,,,,,,,,,,,,,,,,,,,,,,1769.5442202371967,1769.644147375002,fjdksla,001,2022_Mar_16_1620,test_typingtask_norepeats_20rep,2020.2.10,60.00982661232527,
cheer,cheer,,,,,,,,,,,,,0,69,69,36,,,,,,,,,,,,,,,,,,,,,,,,1775.0446750830015,None,None,0,,1775.0446750830015,None,,,fjdksla,001,2022_Mar_16_1620,test_typingtask_norepeats_20rep,2020.2.10,60.00982661232527,
cheer,cheer,,,,,,,,,,,,,0,69,69,36,,,,,,,,,,,,,,,,,,,,,,,,,,,,,,,1775.0439433202016,1775.1438498329953,fjdksla,001,2022_Mar_16_1620,test_typingtask_norepeats_20rep,2020.2.10,60.00982661232527,
about,about,,,,,,,,,,,,,0,70,70,40,,,,,,,,,,,,,,,,,,,,,,,,1780.5433132079925,None,None,0,,1780.5433132079925,None,,,fjdksla,001,2022_Mar_16_1620,test_typingtask_norepeats_20rep,2020.2.10,60.00982661232527,
about,about,,,,,,,,,,,,,0,70,70,40,,,,,,,,,,,,,,,,,,,,,,,,,,,,,,,1780.5438897371976,1780.644221458002,fjdksla,001,2022_Mar_16_1620,test_typingtask_norepeats_20rep,2020.2.10,60.00982661232527,
buddy,buddy,,,,,,,,,,,,,0,71,71,65,,,,,,,,,,,,,,,,,,,,,,,,1786.0442245830054,None,None,0,,1786.0442245830054,None,,,fjdksla,001,2022_Mar_16_1620,test_typingtask_norepeats_20rep,2020.2.10,60.00982661232527,
buddy,buddy,,,,,,,,,,,,,0,71,71,65,,,,,,,,,,,,,,,,,,,,,,,,,,,,,,,1786.0443906541957,1786.144217915993,fjdksla,001,2022_Mar_16_1620,test_typingtask_norepeats_20rep,2020.2.10,60.00982661232527,
champ,champ,,,,,,,,,,,,,0,72,72,56,,,,,,,,,,,,,,,,,,,,,,,,1791.5434313330043,None,None,0,,1791.5434313330043,None,,,fjdksla,001,2022_Mar_16_1620,test_typingtask_norepeats_20rep,2020.2.10,60.00982661232527,
champ,champ,,,,,,,,,,,,,0,72,72,56,,,,,,,,,,,,,,,,,,,,,,,,,,,,,,,1791.5438209041938,1791.643987500007,fjdksla,001,2022_Mar_16_1620,test_typingtask_norepeats_20rep,2020.2.10,60.00982661232527,
would,would,,,,,,,,,,,,,0,73,73,6,,,,,,,,,,,,,,,,,,,,,,,,1797.043468541,None,None,0,,1797.043468541,None,,,fjdksla,001,2022_Mar_16_1620,test_typingtask_norepeats_20rep,2020.2.10,60.00982661232527,
would,would,,,,,,,,,,,,,0,73,73,6,,,,,,,,,,,,,,,,,,,,,,,,,,,,,,,1797.0441844041968,1797.143502291001,fjdksla,001,2022_Mar_16_1620,test_typingtask_norepeats_20rep,2020.2.10,60.00982661232527,
faqir,faqir,,,,,,,,,,,,,0,74,74,39,,,,,,,,,,,,,,,,,,,,,,,,1802.5439577910001,None,None,0,,1802.5439577910001,None,,,fjdksla,001,2022_Mar_16_1620,test_typingtask_norepeats_20rep,2020.2.10,60.00982661232527,
faqir,faqir,,,,,,,,,,,,,0,74,74,39,,,,,,,,,,,,,,,,,,,,,,,,,,,,,,,1802.5434572792044,1802.6438406249945,fjdksla,001,2022_Mar_16_1620,test_typingtask_norepeats_20rep,2020.2.10,60.00982661232527,
puppy,puppy,,,,,,,,,,,,,0,75,75,104,,,,,,,,,,,,,,,,,,,,,,,,1808.044008583005,None,None,0,,1808.044008583005,None,,,fjdksla,001,2022_Mar_16_1620,test_typingtask_norepeats_20rep,2020.2.10,60.00982661232527,
puppy,puppy,,,,,,,,,,,,,0,75,75,104,,,,,,,,,,,,,,,,,,,,,,,,,,,,,,,1808.0439479451932,1808.1438142499974,fjdksla,001,2022_Mar_16_1620,test_typingtask_norepeats_20rep,2020.2.10,60.00982661232527,
about,about,,,,,,,,,,,,,0,76,76,33,,,,,,,,,,,,,,,,,,,,,,,,1813.5436136659991,None,None,0,,1813.5436136659991,None,,,fjdksla,001,2022_Mar_16_1620,test_typingtask_norepeats_20rep,2020.2.10,60.00982661232527,
about,about,,,,,,,,,,,,,0,76,76,33,,,,,,,,,,,,,,,,,,,,,,,,,,,,,,,1813.5441481952046,1813.6442706249945,fjdksla,001,2022_Mar_16_1620,test_typingtask_norepeats_20rep,2020.2.10,60.00982661232527,
would,would,,,,,,,,,,,,,0,77,77,50,,,,,,,,,,,,,,,,,,,,,,,,1819.0433442079957,None,None,0,,1819.0433442079957,None,,,fjdksla,001,2022_Mar_16_1620,test_typingtask_norepeats_20rep,2020.2.10,60.00982661232527,
would,would,,,,,,,,,,,,,0,77,77,50,,,,,,,,,,,,,,,,,,,,,,,,,,,,,,,1819.0443620702033,1819.1440528329986,fjdksla,001,2022_Mar_16_1620,test_typingtask_norepeats_20rep,2020.2.10,60.00982661232527,
buddy,buddy,,,,,,,,,,,,,0,78,78,22,,,,,,,,,,,,,,,,,,,,,,,,1824.5434905830043,None,None,0,,1824.5434905830043,None,,,fjdksla,001,2022_Mar_16_1620,test_typingtask_norepeats_20rep,2020.2.10,60.00982661232527,
buddy,buddy,,,,,,,,,,,,,0,78,78,22,,,,,,,,,,,,,,,,,,,,,,,,,,,,,,,1824.544323362196,1824.6447822079936,fjdksla,001,2022_Mar_16_1620,test_typingtask_norepeats_20rep,2020.2.10,60.00982661232527,
pykka,pykka,,,,,,,,,,,,,0,79,79,70,,,,,,,,,,,,,,,,,,,,,,,,1830.044386833004,None,None,0,,1830.044386833004,None,,,fjdksla,001,2022_Mar_16_1620,test_typingtask_norepeats_20rep,2020.2.10,60.00982661232527,
pykka,pykka,,,,,,,,,,,,,0,79,79,70,,,,,,,,,,,,,,,,,,,,,,,,,,,,,,,1830.0439150291975,1830.1437198750064,fjdksla,001,2022_Mar_16_1620,test_typingtask_norepeats_20rep,2020.2.10,60.00982661232527,
vodka,vodka,,,,,,,,,,,,,0,80,80,73,,,,,,,,,,,,,,,,,,,,,,,,1835.543664458004,None,None,0,,1835.543664458004,None,,,fjdksla,001,2022_Mar_16_1620,test_typingtask_norepeats_20rep,2020.2.10,60.00982661232527,
vodka,vodka,,,,,,,,,,,,,0,80,80,73,,,,,,,,,,,,,,,,,,,,,,,,,,,,,,,1835.5442706541987,1835.643997332998,fjdksla,001,2022_Mar_16_1620,test_typingtask_norepeats_20rep,2020.2.10,60.00982661232527,
pykka,pykka,,,,,,,,,,,,,0,81,81,94,,,,,,,,,,,,,,,,,,,,,,,,1841.0439603749983,None,None,0,,1841.0439603749983,None,,,fjdksla,001,2022_Mar_16_1620,test_typingtask_norepeats_20rep,2020.2.10,60.00982661232527,
pykka,pykka,,,,,,,,,,,,,0,81,81,94,,,,,,,,,,,,,,,,,,,,,,,,,,,,,,,1841.0446973621918,1841.1440562079952,fjdksla,001,2022_Mar_16_1620,test_typingtask_norepeats_20rep,2020.2.10,60.00982661232527,
think,think,,,,,,,,,,,,,0,82,82,11,,,,,,,,,,,,,,,,,,,,,,,,1846.543579624995,None,None,0,,1846.543579624995,None,,,fjdksla,001,2022_Mar_16_1620,test_typingtask_norepeats_20rep,2020.2.10,60.00982661232527,
think,think,,,,,,,,,,,,,0,82,82,11,,,,,,,,,,,,,,,,,,,,,,,,,,,,,,,1846.5443236541948,1846.6437209160067,fjdksla,001,2022_Mar_16_1620,test_typingtask_norepeats_20rep,2020.2.10,60.00982661232527,
heond,heond,,,,,,,,,,,,,0,83,83,98,,,,,,,,,,,,,,,,,,,,,,,,1852.0433681249997,None,None,0,,1852.0433681249997,None,,,fjdksla,001,2022_Mar_16_1620,test_typingtask_norepeats_20rep,2020.2.10,60.00982661232527,
heond,heond,,,,,,,,,,,,,0,83,83,98,,,,,,,,,,,,,,,,,,,,,,,,,,,,,,,1852.0442034452033,1852.1439480830013,fjdksla,001,2022_Mar_16_1620,test_typingtask_norepeats_20rep,2020.2.10,60.00982661232527,
heond,heond,,,,,,,,,,,,,0,84,84,23,,,,,,,,,,,,,,,,,,,,,,,,1857.543723875002,None,None,0,,1857.543723875002,None,,,fjdksla,001,2022_Mar_16_1620,test_typingtask_norepeats_20rep,2020.2.10,60.00982661232527,
heond,heond,,,,,,,,,,,,,0,84,84,23,,,,,,,,,,,,,,,,,,,,,,,,,,,,,,,1857.5443493201935,1857.6443056660064,fjdksla,001,2022_Mar_16_1620,test_typingtask_norepeats_20rep,2020.2.10,60.00982661232527,
buddy,buddy,,,,,,,,,,,,,0,85,85,30,,,,,,,,,,,,,,,,,,,,,,,,1863.043492833007,None,None,0,,1863.043492833007,None,,,fjdksla,001,2022_Mar_16_1620,test_typingtask_norepeats_20rep,2020.2.10,60.00982661232527,
buddy,buddy,,,,,,,,,,,,,0,85,85,30,,,,,,,,,,,,,,,,,,,,,,,,,,,,,,,1863.0439529452021,1863.1433235000004,fjdksla,001,2022_Mar_16_1620,test_typingtask_norepeats_20rep,2020.2.10,60.00982661232527,
cooed,cooed,,,,,,,,,,,,,0,86,86,10,,,,,,,,,,,,,,,,,,,,,,,,1868.5436059579952,None,None,0,,1868.5436059579952,None,,,fjdksla,001,2022_Mar_16_1620,test_typingtask_norepeats_20rep,2020.2.10,60.00982661232527,
cooed,cooed,,,,,,,,,,,,,0,86,86,10,,,,,,,,,,,,,,,,,,,,,,,,,,,,,,,1868.5439537372047,1868.6439044580038,fjdksla,001,2022_Mar_16_1620,test_typingtask_norepeats_20rep,2020.2.10,60.00982661232527,
think,think,,,,,,,,,,,,,0,87,87,84,,,,,,,,,,,,,,,,,,,,,,,,1874.043711374994,None,None,0,,1874.043711374994,None,,,fjdksla,001,2022_Mar_16_1620,test_typingtask_norepeats_20rep,2020.2.10,60.00982661232527,
think,think,,,,,,,,,,,,,0,87,87,84,,,,,,,,,,,,,,,,,,,,,,,,,,,,,,,1874.0442845701953,1874.143512458002,fjdksla,001,2022_Mar_16_1620,test_typingtask_norepeats_20rep,2020.2.10,60.00982661232527,
isvar,isvar,,,,,,,,,,,,,0,88,88,49,,,,,,,,,,,,,,,,,,,,,,,,1879.5435635829926,None,None,0,,1879.5435635829926,None,,,fjdksla,001,2022_Mar_16_1620,test_typingtask_norepeats_20rep,2020.2.10,60.00982661232527,
isvar,isvar,,,,,,,,,,,,,0,88,88,49,,,,,,,,,,,,,,,,,,,,,,,,,,,,,,,1879.5431891122032,1879.644172500004,fjdksla,001,2022_Mar_16_1620,test_typingtask_norepeats_20rep,2020.2.10,60.00982661232527,
champ,champ,,,,,,,,,,,,,0,89,89,66,,,,,,,,,,,,,,,,,,,,,,,,1885.0438602499926,None,None,0,,1885.0438602499926,None,,,fjdksla,001,2022_Mar_16_1620,test_typingtask_norepeats_20rep,2020.2.10,60.00982661232527,
champ,champ,,,,,,,,,,,,,0,89,89,66,,,,,,,,,,,,,,,,,,,,,,,,,,,,,,,1885.044427279198,1885.1441548750008,fjdksla,001,2022_Mar_16_1620,test_typingtask_norepeats_20rep,2020.2.10,60.00982661232527,
about,about,,,,,,,,,,,,,0,90,90,44,,,,,,,,,,,,,,,,,,,,,,,,1890.543222666005,None,None,0,,1890.543222666005,None,,,fjdksla,001,2022_Mar_16_1620,test_typingtask_norepeats_20rep,2020.2.10,60.00982661232527,
about,about,,,,,,,,,,,,,0,90,90,44,,,,,,,,,,,,,,,,,,,,,,,,,,,,,,,1890.5440783201964,1890.6435294160037,fjdksla,001,2022_Mar_16_1620,test_typingtask_norepeats_20rep,2020.2.10,60.00982661232527,
edthe,edthe,,,,,,,,,,,,,0,91,91,119,,,,,,,,,,,,,,,,,,,,,,,,1896.0436033330043,None,None,0,,1896.0436033330043,None,,,fjdksla,001,2022_Mar_16_1620,test_typingtask_norepeats_20rep,2020.2.10,60.00982661232527,
edthe,edthe,,,,,,,,,,,,,0,91,91,119,,,,,,,,,,,,,,,,,,,,,,,,,,,,,,,1896.0443118621959,1896.1438037079934,fjdksla,001,2022_Mar_16_1620,test_typingtask_norepeats_20rep,2020.2.10,60.00982661232527,
tithe,tithe,,,,,,,,,,,,,0,92,92,9,,,,,,,,,,,,,,,,,,,,,,,,1901.543322166006,None,None,0,,1901.543322166006,None,,,fjdksla,001,2022_Mar_16_1620,test_typingtask_norepeats_20rep,2020.2.10,60.00982661232527,
tithe,tithe,,,,,,,,,,,,,0,92,92,9,,,,,,,,,,,,,,,,,,,,,,,,,,,,,,,1901.5435111121958,1901.643909874998,fjdksla,001,2022_Mar_16_1620,test_typingtask_norepeats_20rep,2020.2.10,60.00982661232527,
champ,champ,,,,,,,,,,,,,0,93,93,51,,,,,,,,,,,,,,,,,,,,,,,,1907.0439578749938,None,None,0,,1907.0439578749938,None,,,fjdksla,001,2022_Mar_16_1620,test_typingtask_norepeats_20rep,2020.2.10,60.00982661232527,
