string,corrAns,practice_trials.thisRepN,practice_trials.thisTrialN,practice_trials.thisN,practice_trials.thisIndex,trials_1.thisRepN,trials_1.thisTrialN,trials_1.thisN,trials_1.thisIndex,trials_2.thisRepN,trials_2.thisTrialN,trials_2.thisN,trials_2.thisIndex,trials_3.thisRepN,trials_3.thisTrialN,trials_3.thisN,trials_3.thisIndex,key_resp_0.keys,key_resp_0.corr,key_resp_0.rt,text_1.started,text_1.stopped,key_resp_1.keys,key_resp_1.corr,key_resp_1.rt,key_resp_1.started,key_resp_1.stopped,sound_1A_1.started,sound_1A_1.stopped,break_time.started,break_time.stopped,text_2.started,text_2.stopped,key_resp_2.keys,key_resp_2.corr,key_resp_2.started,key_resp_2.stopped,sound_1A_2.started,sound_1A_2.stopped,text_3.started,text_3.stopped,key_resp_3.keys,key_resp_3.corr,key_resp_3.started,key_resp_3.stopped,sound_1A_3.started,sound_1A_3.stopped,participant,session,date,expName,psychopyVersion,frameRate,
fresh,fresh,0,0,0,0,,,,,,,,,,,,,"['r', 'f', 'r', 'e', 's', 'h']",0,"[0.586269291001372, 1.1036134160094662, 1.2632227080030134, 1.339101165998727, 1.4110930000024382, 1.5110768330050632]",,,,,,,,,,,,,,,,,,,,,,,,,,,,jklfdjsa,001,2022_Mar_16_1451,test_typingtask_norepeats_20rep,2020.2.10,59.69212283283608,
dream,dream,0,1,1,1,,,,,,,,,,,,,"['d', 'r', 'e', 'a', 'm']",1,"[1.0803275000071153, 1.582206999999471, 1.6460780409979634, 1.7701142080040881, 1.905084458005149]",,,,,,,,,,,,,,,,,,,,,,,,,,,,jklfdjsa,001,2022_Mar_16_1451,test_typingtask_norepeats_20rep,2020.2.10,59.69212283283608,
slime,slime,0,2,2,2,,,,,,,,,,,,,"['s', 'l', 'i', 'm', 'e']",1,"[0.28629695800191257, 0.3455208740051603, 0.46098591601185035, 0.536956748997909, 0.6089196240063757]",,,,,,,,,,,,,,,,,,,,,,,,,,,,jklfdjsa,001,2022_Mar_16_1451,test_typingtask_norepeats_20rep,2020.2.10,59.69212283283608,
kremp,kremp,,,,,0,0,0,0,,,,,,,,,,,,34.79792495799484,None,"['k', 'r', 'e', 'm', 'p']",1,"[0.569138999999268, 0.7349092079966795, 0.8148655830009375, 0.8507993329985766, 0.982898040994769]",34.79792495799484,None,34.798141945195674,34.898335915990174,,,,,,,,,,,,,,,,,,,jklfdjsa,001,2022_Mar_16_1451,test_typingtask_norepeats_20rep,2020.2.10,59.69212283283608,
belly,belly,,,,,0,1,1,1,,,,,,,,,,,,40.2982573749905,None,"['b', 'e', 'l', 'l', 'y']",1,"[0.6615596670017112, 0.7491925000067567, 0.8551549999974668, 0.9580483750032727, 1.0785767500055954]",40.2982573749905,None,40.29879211219522,40.3987081660016,,,,,,,,,,,,,,,,,,,jklfdjsa,001,2022_Mar_16_1451,test_typingtask_norepeats_20rep,2020.2.10,59.69212283283608,
about,about,,,,,0,2,2,2,,,,,,,,,,,,45.8151593329967,None,"['a', 'b', 'o', 'u', 't']",1,"[0.5819947489944752, 0.7522498329926748, 0.8404955829901155, 0.9282265829970129, 1.0043264989944873]",45.8151593329967,None,45.8154621541893,45.9158159159997,,,,,,,,,,,,,,,,,,,jklfdjsa,001,2022_Mar_16_1451,test_typingtask_norepeats_20rep,2020.2.10,59.69212283283608,
vodka,vodka,,,,,0,3,3,3,,,,,,,,,,,,51.314930749998894,None,"['v', 'o', 'd', 'k', 'a']",1,"[0.7774242919986136, 0.9155901669873856, 0.9956297919998178, 1.1263650829932885, 1.2337988749932265]",51.314930749998894,None,51.31526998719928,51.415246624994325,,,,,,,,,,,,,,,,,,,jklfdjsa,001,2022_Mar_16_1451,test_typingtask_norepeats_20rep,2020.2.10,59.69212283283608,
isvar,isvar,,,,,0,4,4,4,,,,,,,,,,,,56.814977165995515,None,None,0,,56.814977165995515,None,56.81552140418935,56.91495374999067,,,,,,,,,,,,,,,,,,,jklfdjsa,001,2022_Mar_16_1451,test_typingtask_norepeats_20rep,2020.2.10,59.69212283283608,
belly,belly,,,,,0,5,5,5,,,,,,,,,,,,62.31490070799191,None,None,0,,62.31490070799191,None,62.31525240419287,62.41520333298831,,,,,,,,,,,,,,,,,,,jklfdjsa,001,2022_Mar_16_1451,test_typingtask_norepeats_20rep,2020.2.10,59.69212283283608,
heond,heond,,,,,0,6,6,6,,,,,,,,,,,,67.8151015409967,None,None,0,,67.8151015409967,None,67.81517723719153,67.91521329099487,,,,,,,,,,,,,,,,,,,jklfdjsa,001,2022_Mar_16_1451,test_typingtask_norepeats_20rep,2020.2.10,59.69212283283608,
pykka,pykka,,,,,0,7,7,7,,,,,,,,,,,,73.31390795799962,None,None,0,,73.31390795799962,None,73.31537090419297,73.41520595799375,,,,,,,,,,,,,,,,,,,jklfdjsa,001,2022_Mar_16_1451,test_typingtask_norepeats_20rep,2020.2.10,59.69212283283608,
tithe,tithe,,,,,0,8,8,8,,,,,,,,,,,,78.81463999999687,None,None,0,,78.81463999999687,None,78.81495061219758,78.91500287500094,,,,,,,,,,,,,,,,,,,jklfdjsa,001,2022_Mar_16_1451,test_typingtask_norepeats_20rep,2020.2.10,59.69212283283608,
cheer,cheer,,,,,0,9,9,9,,,,,,,,,,,,84.31439579099242,None,None,0,,84.31439579099242,None,84.31524090419262,84.41486974999134,,,,,,,,,,,,,,,,,,,jklfdjsa,001,2022_Mar_16_1451,test_typingtask_norepeats_20rep,2020.2.10,59.69212283283608,
kremp,kremp,,,,,0,10,10,10,,,,,,,,,,,,89.81457741599297,None,None,0,,89.81457741599297,None,89.81495302919794,89.91519779099326,,,,,,,,,,,,,,,,,,,jklfdjsa,001,2022_Mar_16_1451,test_typingtask_norepeats_20rep,2020.2.10,59.69212283283608,
cheer,cheer,,,,,0,11,11,11,,,,,,,,,,,,95.31424412499473,None,None,0,,95.31424412499473,None,95.31510015419772,95.41504333299235,,,,,,,,,,,,,,,,,,,jklfdjsa,001,2022_Mar_16_1451,test_typingtask_norepeats_20rep,2020.2.10,59.69212283283608,
pykka,pykka,,,,,0,12,12,12,,,,,,,,,,,,100.81471008299559,None,None,0,,100.81471008299559,None,100.81439148718928,100.91491054098879,,,,,,,,,,,,,,,,,,,jklfdjsa,001,2022_Mar_16_1451,test_typingtask_norepeats_20rep,2020.2.10,59.69212283283608,
zibja,zibja,,,,,0,13,13,13,,,,,,,,,,,,106.31522083299933,None,None,0,,106.31522083299933,None,106.31503173718957,106.41510962499888,,,,,,,,,,,,,,,,,,,jklfdjsa,001,2022_Mar_16_1451,test_typingtask_norepeats_20rep,2020.2.10,59.69212283283608,
vodka,vodka,,,,,0,14,14,14,,,,,,,,,,,,111.81486729098833,None,None,0,,111.81486729098833,None,111.81482744519454,111.91464058299607,,,,,,,,,,,,,,,,,,,jklfdjsa,001,2022_Mar_16_1451,test_typingtask_norepeats_20rep,2020.2.10,59.69212283283608,
tithe,tithe,,,,,0,15,15,15,,,,,,,,,,,,117.31446254099137,None,None,0,,117.31446254099137,None,117.31467598718737,117.41444133299228,,,,,,,,,,,,,,,,,,,jklfdjsa,001,2022_Mar_16_1451,test_typingtask_norepeats_20rep,2020.2.10,59.69212283283608,
there,there,,,,,0,16,16,16,,,,,,,,,,,,122.81481099998928,None,None,0,,122.81481099998928,None,122.81513657019096,122.91438070799632,,,,,,,,,,,,,,,,,,,jklfdjsa,001,2022_Mar_16_1451,test_typingtask_norepeats_20rep,2020.2.10,59.69212283283608,
druze,druze,,,,,0,17,17,17,,,,,,,,,,,,128.31472537499212,None,None,0,,128.31472537499212,None,128.31443973719288,128.41476537499693,,,,,,,,,,,,,,,,,,,jklfdjsa,001,2022_Mar_16_1451,test_typingtask_norepeats_20rep,2020.2.10,59.69212283283608,
isvar,isvar,,,,,0,18,18,18,,,,,,,,,,,,133.81446699998924,None,None,0,,133.81446699998924,None,133.8146351541931,133.91504666599212,,,,,,,,,,,,,,,,,,,jklfdjsa,001,2022_Mar_16_1451,test_typingtask_norepeats_20rep,2020.2.10,59.69212283283608,
faqir,faqir,,,,,0,19,19,19,,,,,,,,,,,,139.31438916600018,None,None,0,,139.31438916600018,None,139.3151244452005,139.41472699999576,,,,,,,,,,,,,,,,,,,jklfdjsa,001,2022_Mar_16_1451,test_typingtask_norepeats_20rep,2020.2.10,59.69212283283608,
lucky,lucky,,,,,0,20,20,20,,,,,,,,,,,,144.81542795799032,None,None,0,,144.81542795799032,None,144.8141404871989,144.91523824998876,,,,,,,,,,,,,,,,,,,jklfdjsa,001,2022_Mar_16_1451,test_typingtask_norepeats_20rep,2020.2.10,59.69212283283608,
theme,theme,,,,,0,21,21,21,,,,,,,,,,,,150.31467149998934,None,None,0,,150.31467149998934,None,150.31528536219994,150.41463895799825,,,,,,,,,,,,,,,,,,,jklfdjsa,001,2022_Mar_16_1451,test_typingtask_norepeats_20rep,2020.2.10,59.69212283283608,
would,would,,,,,0,22,22,22,,,,,,,,,,,,155.81463691599492,None,None,0,,155.81463691599492,None,155.81508890419937,155.91494679098832,,,,,,,,,,,,,,,,,,,jklfdjsa,001,2022_Mar_16_1451,test_typingtask_norepeats_20rep,2020.2.10,59.69212283283608,
about,about,,,,,0,23,23,23,,,,,,,,,,,,161.31440616599866,None,None,0,,161.31440616599866,None,161.3149292371949,161.41513337499055,,,,,,,,,,,,,,,,,,,jklfdjsa,001,2022_Mar_16_1451,test_typingtask_norepeats_20rep,2020.2.10,59.69212283283608,
theme,theme,,,,,0,24,24,24,,,,,,,,,,,,166.83085545799986,None,None,0,,166.83085545799986,None,166.83184440419282,166.9316894999938,,,,,,,,,,,,,,,,,,,jklfdjsa,001,2022_Mar_16_1451,test_typingtask_norepeats_20rep,2020.2.10,59.69212283283608,
faqir,faqir,,,,,0,25,25,25,,,,,,,,,,,,172.33145570800116,None,None,0,,172.33145570800116,None,172.33155244518858,172.43172420799965,,,,,,,,,,,,,,,,,,,jklfdjsa,001,2022_Mar_16_1451,test_typingtask_norepeats_20rep,2020.2.10,59.69212283283608,
haole,haole,,,,,0,26,26,26,,,,,,,,,,,,177.83123254099337,None,None,0,,177.83123254099337,None,177.83133494519134,177.9314326659951,,,,,,,,,,,,,,,,,,,jklfdjsa,001,2022_Mar_16_1451,test_typingtask_norepeats_20rep,2020.2.10,59.69212283283608,
druze,druze,,,,,0,27,27,27,,,,,,,,,,,,183.33122270798776,None,None,0,,183.33122270798776,None,183.33140523719922,183.43104766598844,,,,,,,,,,,,,,,,,,,jklfdjsa,001,2022_Mar_16_1451,test_typingtask_norepeats_20rep,2020.2.10,59.69212283283608,
buddy,buddy,,,,,0,28,28,28,,,,,,,,,,,,188.83165195799666,None,None,0,,188.83165195799666,None,188.83210077919503,188.93174045799242,,,,,,,,,,,,,,,,,,,jklfdjsa,001,2022_Mar_16_1451,test_typingtask_norepeats_20rep,2020.2.10,59.69212283283608,
there,there,,,,,0,29,29,29,,,,,,,,,,,,194.33160533299088,None,None,0,,194.33160533299088,None,194.33148377919716,194.43146474999958,,,,,,,,,,,,,,,,,,,jklfdjsa,001,2022_Mar_16_1451,test_typingtask_norepeats_20rep,2020.2.10,59.69212283283608,
lucky,lucky,,,,,0,30,30,30,,,,,,,,,,,,199.83108995799557,None,None,0,,199.83108995799557,None,199.83042836219684,199.9315559999959,,,,,,,,,,,,,,,,,,,jklfdjsa,001,2022_Mar_16_1451,test_typingtask_norepeats_20rep,2020.2.10,59.69212283283608,
faqir,faqir,,,,,0,31,31,31,,,,,,,,,,,,205.34778595798707,None,None,0,,205.34778595798707,None,205.34803511219653,205.44811954098986,,,,,,,,,,,,,,,,,,,jklfdjsa,001,2022_Mar_16_1451,test_typingtask_norepeats_20rep,2020.2.10,59.69212283283608,
champ,champ,,,,,0,32,32,32,,,,,,,,,,,,210.8476480829995,None,None,0,,210.8476480829995,None,210.84774811219395,210.94821783299267,,,,,,,,,,,,,,,,,,,jklfdjsa,001,2022_Mar_16_1451,test_typingtask_norepeats_20rep,2020.2.10,59.69212283283608,
puppy,puppy,,,,,0,33,33,33,,,,,,,,,,,,216.34813058299187,None,None,0,,216.34813058299187,None,216.3481731121996,216.4480216660013,,,,,,,,,,,,,,,,,,,jklfdjsa,001,2022_Mar_16_1451,test_typingtask_norepeats_20rep,2020.2.10,59.69212283283608,
theme,theme,,,,,0,34,34,34,,,,,,,,,,,,221.84713245798775,None,None,0,,221.84713245798775,None,221.84851336220018,221.94820358300058,,,,,,,,,,,,,,,,,,,jklfdjsa,001,2022_Mar_16_1451,test_typingtask_norepeats_20rep,2020.2.10,59.69212283283608,
heond,heond,,,,,0,35,35,35,,,,,,,,,,,,227.34753187499882,None,None,0,,227.34753187499882,None,227.34749107019016,227.44816687499406,,,,,,,,,,,,,,,,,,,jklfdjsa,001,2022_Mar_16_1451,test_typingtask_norepeats_20rep,2020.2.10,59.69212283283608,
cooed,cooed,,,,,0,36,36,36,,,,,,,,,,,,232.84780899999896,None,None,0,,232.84780899999896,None,232.84759282019368,232.94755937499576,,,,,,,,,,,,,,,,,,,jklfdjsa,001,2022_Mar_16_1451,test_typingtask_norepeats_20rep,2020.2.10,59.69212283283608,
isvar,isvar,,,,,0,37,37,37,,,,,,,,,,,,238.34739745799743,None,None,0,,238.34739745799743,None,238.3477375291972,238.44795808299386,,,,,,,,,,,,,,,,,,,jklfdjsa,001,2022_Mar_16_1451,test_typingtask_norepeats_20rep,2020.2.10,59.69212283283608,
pykka,pykka,,,,,0,38,38,38,,,,,,,,,,,,243.8472968749993,None,None,0,,243.8472968749993,None,243.8479019451901,243.9477850409894,,,,,,,,,,,,,,,,,,,jklfdjsa,001,2022_Mar_16_1451,test_typingtask_norepeats_20rep,2020.2.10,59.69212283283608,
cooed,cooed,,,,,0,39,39,39,,,,,,,,,,,,249.36392291598895,None,None,0,,249.36392291598895,None,249.36470277920162,249.4646619999985,,,,,,,,,,,,,,,,,,,jklfdjsa,001,2022_Mar_16_1451,test_typingtask_norepeats_20rep,2020.2.10,59.69212283283608,
belly,belly,,,,,0,40,40,40,,,,,,,,,,,,254.86392770799284,None,None,0,,254.86392770799284,None,254.86444098719076,254.96443270798773,,,,,,,,,,,,,,,,,,,jklfdjsa,001,2022_Mar_16_1451,test_typingtask_norepeats_20rep,2020.2.10,59.69212283283608,
there,there,,,,,0,41,41,41,,,,,,,,,,,,260.36427116599225,None,None,0,,260.36427116599225,None,260.3640786541931,260.46442758299236,,,,,,,,,,,,,,,,,,,jklfdjsa,001,2022_Mar_16_1451,test_typingtask_norepeats_20rep,2020.2.10,59.69212283283608,
therm,therm,,,,,0,42,42,42,,,,,,,,,,,,265.8638003329979,None,None,0,,265.8638003329979,None,265.86453544520043,265.96444258299016,,,,,,,,,,,,,,,,,,,jklfdjsa,001,2022_Mar_16_1451,test_typingtask_norepeats_20rep,2020.2.10,59.69212283283608,
would,would,,,,,0,43,43,43,,,,,,,,,,,,271.3642413329944,None,None,0,,271.3642413329944,None,271.3644012791905,271.4637276249996,,,,,,,,,,,,,,,,,,,jklfdjsa,001,2022_Mar_16_1451,test_typingtask_norepeats_20rep,2020.2.10,59.69212283283608,
belly,belly,,,,,0,44,44,44,,,,,,,,,,,,276.8642249580007,None,None,0,,276.8642249580007,None,276.86436369518776,276.96459129099094,,,,,,,,,,,,,,,,,,,jklfdjsa,001,2022_Mar_16_1451,test_typingtask_norepeats_20rep,2020.2.10,59.69212283283608,
kremp,kremp,,,,,0,45,45,45,,,,,,,,,,,,282.36388229099975,None,None,0,,282.36388229099975,None,282.3645211951938,282.4644085829932,,,,,,,,,,,,,,,,,,,jklfdjsa,001,2022_Mar_16_1451,test_typingtask_norepeats_20rep,2020.2.10,59.69212283283608,
faqir,faqir,,,,,0,46,46,46,,,,,,,,,,,,287.86404891598795,None,None,0,,287.86404891598795,None,287.86472832019933,287.96451449999586,,,,,,,,,,,,,,,,,,,jklfdjsa,001,2022_Mar_16_1451,test_typingtask_norepeats_20rep,2020.2.10,59.69212283283608,
kremp,kremp,,,,,0,47,47,47,,,,,,,,,,,,293.3637985409878,None,None,0,,293.3637985409878,None,293.36416173718897,293.4642552909936,,,,,,,,,,,,,,,,,,,jklfdjsa,001,2022_Mar_16_1451,test_typingtask_norepeats_20rep,2020.2.10,59.69212283283608,
belly,belly,,,,,0,48,48,48,,,,,,,,,,,,298.86548937499174,None,None,0,,298.86548937499174,None,298.8643906951896,298.9643633749947,,,,,,,,,,,,,,,,,,,jklfdjsa,001,2022_Mar_16_1451,test_typingtask_norepeats_20rep,2020.2.10,59.69212283283608,
pykka,pykka,,,,,0,49,49,49,,,,,,,,,,,,304.38135741600126,None,None,0,,304.38135741600126,None,304.3815806121987,None,,,,,,,,,,,,,,,,,,,jklfdjsa,001,2022_Mar_16_1451,test_typingtask_norepeats_20rep,2020.2.10,59.69212283283608,
lucky,lucky,,,,,0,50,50,50,,,,,,,,,,,,309.881078624996,None,None,0,,309.881078624996,None,309.8811622371999,309.98116529099934,,,,,,,,,,,,,,,,,,,jklfdjsa,001,2022_Mar_16_1451,test_typingtask_norepeats_20rep,2020.2.10,59.69212283283608,
druze,druze,,,,,0,51,51,51,,,,,,,,,,,,315.3972801659984,None,None,0,,315.3972801659984,None,315.3975981542011,315.4975244160014,,,,,,,,,,,,,,,,,,,jklfdjsa,001,2022_Mar_16_1451,test_typingtask_norepeats_20rep,2020.2.10,59.69212283283608,
edthe,edthe,,,,,0,52,52,52,,,,,,,,,,,,320.89820399999735,None,None,0,,320.89820399999735,None,320.8974432371891,320.99780312499206,,,,,,,,,,,,,,,,,,,jklfdjsa,001,2022_Mar_16_1451,test_typingtask_norepeats_20rep,2020.2.10,59.69212283283608,
puppy,puppy,,,,,0,53,53,53,,,,,,,,,,,,326.4129906249873,None,None,0,,326.4129906249873,None,326.4159461951916,None,,,,,,,,,,,,,,,,,,,jklfdjsa,001,2022_Mar_16_1451,test_typingtask_norepeats_20rep,2020.2.10,59.69212283283608,
theme,theme,,,,,0,54,54,54,,,,,,,,,,,,331.9137832080014,None,None,0,,331.9137832080014,None,331.9137726952016,332.01408999999694,,,,,,,,,,,,,,,,,,,jklfdjsa,001,2022_Mar_16_1451,test_typingtask_norepeats_20rep,2020.2.10,59.69212283283608,
haole,haole,,,,,0,55,55,55,,,,,,,,,,,,337.4137987909926,None,None,0,,337.4137987909926,None,337.41435686219336,337.5138425829937,,,,,,,,,,,,,,,,,,,jklfdjsa,001,2022_Mar_16_1451,test_typingtask_norepeats_20rep,2020.2.10,59.69212283283608,
zibja,zibja,,,,,0,56,56,56,,,,,,,,,,,,342.9136498750013,None,None,0,,342.9136498750013,None,342.9142201121998,343.014093040998,,,,,,,,,,,,,,,,,,,jklfdjsa,001,2022_Mar_16_1451,test_typingtask_norepeats_20rep,2020.2.10,59.69212283283608,
cooed,cooed,,,,,0,57,57,57,,,,,,,,,,,,348.4138401659875,None,None,0,,348.4138401659875,None,348.4141921542017,348.5142444999947,,,,,,,,,,,,,,,,,,,jklfdjsa,001,2022_Mar_16_1451,test_typingtask_norepeats_20rep,2020.2.10,59.69212283283608,
champ,champ,,,,,0,58,58,58,,,,,,,,,,,,353.9133973749995,None,None,0,,353.9133973749995,None,353.91419082019854,354.01334991600015,,,,,,,,,,,,,,,,,,,jklfdjsa,001,2022_Mar_16_1451,test_typingtask_norepeats_20rep,2020.2.10,59.69212283283608,
zibja,zibja,,,,,0,59,59,59,,,,,,,,,,,,359.43082891599624,None,None,0,,359.43082891599624,None,359.43050698719014,359.53085183299845,,,,,,,,,,,,,,,,,,,jklfdjsa,001,2022_Mar_16_1451,test_typingtask_norepeats_20rep,2020.2.10,59.69212283283608,
haole,haole,,,,,0,60,60,60,,,,,,,,,,,,364.93021637499623,None,None,0,,364.93021637499623,None,364.9307630701936,365.0307904999936,,,,,,,,,,,,,,,,,,,jklfdjsa,001,2022_Mar_16_1451,test_typingtask_norepeats_20rep,2020.2.10,59.69212283283608,
would,would,,,,,0,61,61,61,,,,,,,,,,,,370.4301712499873,None,None,0,,370.4301712499873,None,370.4302127791874,370.53049516599276,,,,,,,,,,,,,,,,,,,jklfdjsa,001,2022_Mar_16_1451,test_typingtask_norepeats_20rep,2020.2.10,59.69212283283608,
there,there,,,,,0,62,62,62,,,,,,,,,,,,375.9304858329997,None,None,0,,375.9304858329997,None,375.9309974451884,376.03062345799117,,,,,,,,,,,,,,,,,,,jklfdjsa,001,2022_Mar_16_1451,test_typingtask_norepeats_20rep,2020.2.10,59.69212283283608,
heond,heond,,,,,0,63,63,63,,,,,,,,,,,,381.43039879099524,None,None,0,,381.43039879099524,None,381.43001957019294,381.5306342499971,,,,,,,,,,,,,,,,,,,jklfdjsa,001,2022_Mar_16_1451,test_typingtask_norepeats_20rep,2020.2.10,59.69212283283608,
kremp,kremp,,,,,0,64,64,64,,,,,,,,,,,,386.9470940409956,None,None,0,,386.9470940409956,None,386.94768186219005,387.04694308299804,,,,,,,,,,,,,,,,,,,jklfdjsa,001,2022_Mar_16_1451,test_typingtask_norepeats_20rep,2020.2.10,59.69212283283608,
heond,heond,,,,,0,65,65,65,,,,,,,,,,,,392.4471967499994,None,None,0,,392.4471967499994,None,392.4471959451897,392.54755237499194,,,,,,,,,,,,,,,,,,,jklfdjsa,001,2022_Mar_16_1451,test_typingtask_norepeats_20rep,2020.2.10,59.69212283283608,
pykka,pykka,,,,,0,66,66,66,,,,,,,,,,,,397.9468074999895,None,None,0,,397.9468074999895,None,397.94733611219124,398.047035999989,,,,,,,,,,,,,,,,,,,jklfdjsa,001,2022_Mar_16_1451,test_typingtask_norepeats_20rep,2020.2.10,59.69212283283608,
think,think,,,,,0,67,67,67,,,,,,,,,,,,403.4468003749935,None,None,0,,403.4468003749935,None,403.44744123719136,403.547672916,,,,,,,,,,,,,,,,,,,jklfdjsa,001,2022_Mar_16_1451,test_typingtask_norepeats_20rep,2020.2.10,59.69212283283608,
puppy,puppy,,,,,0,68,68,68,,,,,,,,,,,,408.9474479999917,None,None,0,,408.9474479999917,None,408.94723336219465,409.047252999997,,,,,,,,,,,,,,,,,,,jklfdjsa,001,2022_Mar_16_1451,test_typingtask_norepeats_20rep,2020.2.10,59.69212283283608,
edthe,edthe,,,,,0,69,69,69,,,,,,,,,,,,414.44680758299364,None,None,0,,414.44680758299364,None,414.44676340419244,414.5469569579873,,,,,,,,,,,,,,,,,,,jklfdjsa,001,2022_Mar_16_1451,test_typingtask_norepeats_20rep,2020.2.10,59.69212283283608,
buddy,buddy,,,,,0,70,70,70,,,,,,,,,,,,419.9466785830009,None,None,0,,419.9466785830009,None,419.94713057020124,420.0467204579909,,,,,,,,,,,,,,,,,,,jklfdjsa,001,2022_Mar_16_1451,test_typingtask_norepeats_20rep,2020.2.10,59.69212283283608,
zibja,zibja,,,,,0,71,71,71,,,,,,,,,,,,425.44660695799394,None,None,0,,425.44660695799394,None,425.4469814871976,425.5470657499973,,,,,,,,,,,,,,,,,,,jklfdjsa,001,2022_Mar_16_1451,test_typingtask_norepeats_20rep,2020.2.10,59.69212283283608,
about,about,,,,,0,72,72,72,,,,,,,,,,,,430.94655874998716,None,None,0,,430.94655874998716,None,430.94673223719144,431.0471697499888,,,,,,,,,,,,,,,,,,,jklfdjsa,001,2022_Mar_16_1451,test_typingtask_norepeats_20rep,2020.2.10,59.69212283283608,
edthe,edthe,,,,,0,73,73,73,,,,,,,,,,,,436.4467497500009,None,None,0,,436.4467497500009,None,436.4466631951931,436.54720604099566,,,,,,,,,,,,,,,,,,,jklfdjsa,001,2022_Mar_16_1451,test_typingtask_norepeats_20rep,2020.2.10,59.69212283283608,
champ,champ,,,,,0,74,74,74,,,,,,,,,,,,441.9465439159976,None,None,0,,441.9465439159976,None,441.9468926951944,442.04600029099674,,,,,,,,,,,,,,,,,,,jklfdjsa,001,2022_Mar_16_1451,test_typingtask_norepeats_20rep,2020.2.10,59.69212283283608,
tithe,tithe,,,,,0,75,75,75,,,,,,,,,,,,447.4468954579934,None,None,0,,447.4468954579934,None,447.4466885701971,447.5473607079912,,,,,,,,,,,,,,,,,,,jklfdjsa,001,2022_Mar_16_1451,test_typingtask_norepeats_20rep,2020.2.10,59.69212283283608,
theme,theme,,,,,0,76,76,76,,,,,,,,,,,,452.9633417909936,None,None,0,,452.9633417909936,None,452.96327819519354,453.0634512909892,,,,,,,,,,,,,,,,,,,jklfdjsa,001,2022_Mar_16_1451,test_typingtask_norepeats_20rep,2020.2.10,59.69212283283608,
would,would,,,,,0,77,77,77,,,,,,,,,,,,458.4627073749871,None,None,0,,458.4627073749871,None,458.4638372371977,458.5632364159974,,,,,,,,,,,,,,,,,,,jklfdjsa,001,2022_Mar_16_1451,test_typingtask_norepeats_20rep,2020.2.10,59.69212283283608,
zibja,zibja,,,,,0,78,78,78,,,,,,,,,,,,463.9624131249875,None,None,0,,463.9624131249875,None,463.9639830291984,464.06363104099,,,,,,,,,,,,,,,,,,,jklfdjsa,001,2022_Mar_16_1451,test_typingtask_norepeats_20rep,2020.2.10,59.69212283283608,
edthe,edthe,,,,,0,79,79,79,,,,,,,,,,,,469.46303779099253,None,None,0,,469.46303779099253,None,469.4634595701922,469.56374258299184,,,,,,,,,,,,,,,,,,,jklfdjsa,001,2022_Mar_16_1451,test_typingtask_norepeats_20rep,2020.2.10,59.69212283283608,
cooed,cooed,,,,,0,80,80,80,,,,,,,,,,,,474.97984241599625,None,None,0,,474.97984241599625,None,474.98004257019636,475.0798270410014,,,,,,,,,,,,,,,,,,,jklfdjsa,001,2022_Mar_16_1451,test_typingtask_norepeats_20rep,2020.2.10,59.69212283283608,
buddy,buddy,,,,,0,81,81,81,,,,,,,,,,,,480.4629961659957,None,None,0,,480.4629961659957,None,480.4634397791946,480.5641050829872,,,,,,,,,,,,,,,,,,,jklfdjsa,001,2022_Mar_16_1451,test_typingtask_norepeats_20rep,2020.2.10,59.69212283283608,
champ,champ,,,,,0,82,82,82,,,,,,,,,,,,485.9634359999909,None,None,0,,485.9634359999909,None,485.9636431951934,486.06347441599064,,,,,,,,,,,,,,,,,,,jklfdjsa,001,2022_Mar_16_1451,test_typingtask_norepeats_20rep,2020.2.10,59.69212283283608,
cheer,cheer,,,,,0,83,83,83,,,,,,,,,,,,491.46312716598914,None,None,0,,491.46312716598914,None,491.46360036219846,491.56372987499344,,,,,,,,,,,,,,,,,,,jklfdjsa,001,2022_Mar_16_1451,test_typingtask_norepeats_20rep,2020.2.10,59.69212283283608,
haole,haole,,,,,0,84,84,84,,,,,,,,,,,,496.96278783299203,None,None,0,,496.96278783299203,None,496.9633164871906,497.06335474998923,,,,,,,,,,,,,,,,,,,jklfdjsa,001,2022_Mar_16_1451,test_typingtask_norepeats_20rep,2020.2.10,59.69212283283608,
vodka,vodka,,,,,0,85,85,85,,,,,,,,,,,,502.4627698749973,None,None,0,,502.4627698749973,None,502.4630724871953,502.5634468329954,,,,,,,,,,,,,,,,,,,jklfdjsa,001,2022_Mar_16_1451,test_typingtask_norepeats_20rep,2020.2.10,59.69212283283608,
think,think,,,,,0,86,86,86,,,,,,,,,,,,507.9635346659925,None,None,0,,507.9635346659925,None,507.9629567372016,508.06319108299795,,,,,,,,,,,,,,,,,,,jklfdjsa,001,2022_Mar_16_1451,test_typingtask_norepeats_20rep,2020.2.10,59.69212283283608,
vodka,vodka,,,,,0,87,87,87,,,,,,,,,,,,513.4625329580012,None,None,0,,513.4625329580012,None,513.4633435701966,513.5632627079904,,,,,,,,,,,,,,,,,,,jklfdjsa,001,2022_Mar_16_1451,test_typingtask_norepeats_20rep,2020.2.10,59.69212283283608,
therm,therm,,,,,0,88,88,88,,,,,,,,,,,,518.9629146249936,None,None,0,,518.9629146249936,None,518.96333507019,519.0630983329902,,,,,,,,,,,,,,,,,,,jklfdjsa,001,2022_Mar_16_1451,test_typingtask_norepeats_20rep,2020.2.10,59.69212283283608,
haole,haole,,,,,0,89,89,89,,,,,,,,,,,,524.4629912909877,None,None,0,,524.4629912909877,None,524.4631840291971,524.5638391659886,,,,,,,,,,,,,,,,,,,jklfdjsa,001,2022_Mar_16_1451,test_typingtask_norepeats_20rep,2020.2.10,59.69212283283608,
think,think,,,,,0,90,90,90,,,,,,,,,,,,529.979913749994,None,None,0,,529.979913749994,None,529.979936612201,530.0798045409902,,,,,,,,,,,,,,,,,,,jklfdjsa,001,2022_Mar_16_1451,test_typingtask_norepeats_20rep,2020.2.10,59.69212283283608,
champ,champ,,,,,0,91,91,91,,,,,,,,,,,,535.4801139999909,None,None,0,,535.4801139999909,None,535.4798877791894,535.5792049579904,,,,,,,,,,,,,,,,,,,jklfdjsa,001,2022_Mar_16_1451,test_typingtask_norepeats_20rep,2020.2.10,59.69212283283608,
cooed,cooed,,,,,0,92,92,92,,,,,,,,,,,,540.9794775829941,None,None,0,,540.9794775829941,None,540.9801515701969,541.0797419579903,,,,,,,,,,,,,,,,,,,jklfdjsa,001,2022_Mar_16_1451,test_typingtask_norepeats_20rep,2020.2.10,59.69212283283608,
lucky,lucky,,,,,0,93,93,93,,,,,,,,,,,,546.4790764999925,None,None,0,,546.4790764999925,None,546.4799563621913,546.5794813329994,,,,,,,,,,,,,,,,,,,jklfdjsa,001,2022_Mar_16_1451,test_typingtask_norepeats_20rep,2020.2.10,59.69212283283608,
there,there,,,,,0,94,94,94,,,,,,,,,,,,551.9957097909937,None,None,0,,551.9957097909937,None,551.9961653201884,552.0968484579935,,,,,,,,,,,,,,,,,,,jklfdjsa,001,2022_Mar_16_1451,test_typingtask_norepeats_20rep,2020.2.10,59.69212283283608,
faqir,faqir,,,,,0,95,95,95,,,,,,,,,,,,557.4959892909974,None,None,0,,557.4959892909974,None,557.4966011122,557.5963648749894,,,,,,,,,,,,,,,,,,,jklfdjsa,001,2022_Mar_16_1451,test_typingtask_norepeats_20rep,2020.2.10,59.69212283283608,
would,would,,,,,0,96,96,96,,,,,,,,,,,,562.9960140409967,None,None,0,,562.9960140409967,None,562.9969400701942,None,,,,,,,,,,,,,,,,,,,jklfdjsa,001,2022_Mar_16_1451,test_typingtask_norepeats_20rep,2020.2.10,59.69212283283608,
therm,therm,,,,,0,97,97,97,,,,,,,,,,,,568.4962329580012,None,None,0,,568.4962329580012,None,568.4958784871982,568.5962543329952,,,,,,,,,,,,,,,,,,,jklfdjsa,001,2022_Mar_16_1451,test_typingtask_norepeats_20rep,2020.2.10,59.69212283283608,
edthe,edthe,,,,,0,98,98,98,,,,,,,,,,,,573.9958296659897,None,None,0,,573.9958296659897,None,573.996626279199,574.0964200829912,,,,,,,,,,,,,,,,,,,jklfdjsa,001,2022_Mar_16_1451,test_typingtask_norepeats_20rep,2020.2.10,59.69212283283608,
buddy,buddy,,,,,0,99,99,99,,,,,,,,,,,,579.495877082998,None,None,0,,579.495877082998,None,579.4963370291938,579.5963906249963,,,,,,,,,,,,,,,,,,,jklfdjsa,001,2022_Mar_16_1451,test_typingtask_norepeats_20rep,2020.2.10,59.69212283283608,
think,think,,,,,0,100,100,100,,,,,,,,,,,,584.9961446249945,None,None,0,,584.9961446249945,None,584.9960271541917,585.0961886659934,,,,,,,,,,,,,,,,,,,jklfdjsa,001,2022_Mar_16_1451,test_typingtask_norepeats_20rep,2020.2.10,59.69212283283608,
buddy,buddy,,,,,0,101,101,101,,,,,,,,,,,,590.4968169579952,None,None,0,,590.4968169579952,None,590.4967352791995,590.5959840409923,,,,,,,,,,,,,,,,,,,jklfdjsa,001,2022_Mar_16_1451,test_typingtask_norepeats_20rep,2020.2.10,59.69212283283608,
therm,therm,,,,,0,102,102,102,,,,,,,,,,,,595.9957586249948,None,None,0,,595.9957586249948,None,595.9962673201939,596.096174499995,,,,,,,,,,,,,,,,,,,jklfdjsa,001,2022_Mar_16_1451,test_typingtask_norepeats_20rep,2020.2.10,59.69212283283608,
about,about,,,,,0,103,103,103,,,,,,,,,,,,601.4947277079918,None,None,0,,601.4947277079918,None,601.4995804041959,None,,,,,,,,,,,,,,,,,,,jklfdjsa,001,2022_Mar_16_1451,test_typingtask_norepeats_20rep,2020.2.10,59.69212283283608,
cheer,cheer,,,,,0,104,104,104,,,,,,,,,,,,606.9948280829994,None,None,0,,606.9948280829994,None,606.9964457791924,607.096316915995,,,,,,,,,,,,,,,,,,,jklfdjsa,001,2022_Mar_16_1451,test_typingtask_norepeats_20rep,2020.2.10,59.69212283283608,
druze,druze,,,,,0,105,105,105,,,,,,,,,,,,612.4957327500015,None,None,0,,612.4957327500015,None,612.4962603621956,612.594864624989,,,,,,,,,,,,,,,,,,,jklfdjsa,001,2022_Mar_16_1451,test_typingtask_norepeats_20rep,2020.2.10,59.69212283283608,
about,about,,,,,0,106,106,106,,,,,,,,,,,,617.9956461659895,None,None,0,,617.9956461659895,None,617.9954074041874,618.0961691659904,,,,,,,,,,,,,,,,,,,jklfdjsa,001,2022_Mar_16_1451,test_typingtask_norepeats_20rep,2020.2.10,59.69212283283608,
therm,therm,,,,,0,107,107,107,,,,,,,,,,,,623.4956836249912,None,None,0,,623.4956836249912,None,623.4962453621978,623.5959554159926,,,,,,,,,,,,,,,,,,,jklfdjsa,001,2022_Mar_16_1451,test_typingtask_norepeats_20rep,2020.2.10,59.69212283283608,
druze,druze,,,,,0,108,108,108,,,,,,,,,,,,628.9958178749948,None,None,0,,628.9958178749948,None,628.996158737193,629.0960378749878,,,,,,,,,,,,,,,,,,,jklfdjsa,001,2022_Mar_16_1451,test_typingtask_norepeats_20rep,2020.2.10,59.69212283283608,
lucky,lucky,,,,,0,109,109,109,,,,,,,,,,,,634.4956912909984,None,None,0,,634.4956912909984,None,634.4961506121894,634.5959239160002,,,,,,,,,,,,,,,,,,,jklfdjsa,001,2022_Mar_16_1451,test_typingtask_norepeats_20rep,2020.2.10,59.69212283283608,
puppy,puppy,,,,,0,110,110,110,,,,,,,,,,,,639.9956982909935,None,None,0,,639.9956982909935,None,639.9955913201978,640.0960374159913,,,,,,,,,,,,,,,,,,,jklfdjsa,001,2022_Mar_16_1451,test_typingtask_norepeats_20rep,2020.2.10,59.69212283283608,
tithe,tithe,,,,,0,111,111,111,,,,,,,,,,,,645.4961650409969,None,None,0,,645.4961650409969,None,645.495764654201,645.5962657499913,,,,,,,,,,,,,,,,,,,jklfdjsa,001,2022_Mar_16_1451,test_typingtask_norepeats_20rep,2020.2.10,59.69212283283608,
think,think,,,,,0,112,112,112,,,,,,,,,,,,650.9958304159954,None,None,0,,650.9958304159954,None,650.9960658201875,651.0961279159965,,,,,,,,,,,,,,,,,,,jklfdjsa,001,2022_Mar_16_1451,test_typingtask_norepeats_20rep,2020.2.10,59.69212283283608,
isvar,isvar,,,,,0,113,113,113,,,,,,,,,,,,656.4953861659887,None,None,0,,656.4953861659887,None,656.4956998621914,656.5959607499972,,,,,,,,,,,,,,,,,,,jklfdjsa,001,2022_Mar_16_1451,test_typingtask_norepeats_20rep,2020.2.10,59.69212283283608,
cheer,cheer,,,,,0,114,114,114,,,,,,,,,,,,661.9954596249881,None,None,0,,661.9954596249881,None,661.9953536951929,662.0957392499986,,,,,,,,,,,,,,,,,,,jklfdjsa,001,2022_Mar_16_1451,test_typingtask_norepeats_20rep,2020.2.10,59.69212283283608,
heond,heond,,,,,0,115,115,115,,,,,,,,,,,,667.4955391249969,None,None,0,,667.4955391249969,None,667.4954436951942,667.5959057909931,,,,,,,,,,,,,,,,,,,jklfdjsa,001,2022_Mar_16_1451,test_typingtask_norepeats_20rep,2020.2.10,59.69212283283608,
vodka,vodka,,,,,0,116,116,116,,,,,,,,,,,,672.9961354580009,None,None,0,,672.9961354580009,None,672.9961034871943,673.0961307499965,,,,,,,,,,,,,,,,,,,jklfdjsa,001,2022_Mar_16_1451,test_typingtask_norepeats_20rep,2020.2.10,59.69212283283608,
tithe,tithe,,,,,0,117,117,117,,,,,,,,,,,,678.4953639999876,None,None,0,,678.4953639999876,None,678.4961640292007,678.5960223750008,,,,,,,,,,,,,,,,,,,jklfdjsa,001,2022_Mar_16_1451,test_typingtask_norepeats_20rep,2020.2.10,59.69212283283608,
puppy,puppy,,,,,0,118,118,118,,,,,,,,,,,,683.9952338750008,None,None,0,,683.9952338750008,None,683.9958763621966,684.0957411249983,,,,,,,,,,,,,,,,,,,jklfdjsa,001,2022_Mar_16_1451,test_typingtask_norepeats_20rep,2020.2.10,59.69212283283608,
isvar,isvar,,,,,0,119,119,119,,,,,,,,,,,,689.4956004999985,None,None,0,,689.4956004999985,None,689.496075445188,689.5959404579917,,,,,,,,,,,,,,,,,,,jklfdjsa,001,2022_Mar_16_1451,test_typingtask_norepeats_20rep,2020.2.10,59.69212283283608,
druze,druze,,,,,,,,,0,0,0,0,,,,,,,,,,,,,,,,,694.9959876659996,None,995.0096916249895,None,None,0,995.0096916249895,None,995.0111781951986,995.1106679160002,,,,,,,,,jklfdjsa,001,2022_Mar_16_1451,test_typingtask_norepeats_20rep,2020.2.10,59.69212283283608,
buddy,buddy,,,,,,,,,0,1,1,1,,,,,,,,,,,,,,,,,,,1000.526652207991,None,None,0,1000.526652207991,None,1000.5274846121887,1000.6275675409997,,,,,,,,,jklfdjsa,001,2022_Mar_16_1451,test_typingtask_norepeats_20rep,2020.2.10,59.69212283283608,
think,think,,,,,,,,,0,2,2,2,,,,,,,,,,,,,,,,,,,1006.0104629159905,None,None,0,1006.0104629159905,None,1006.0107158621962,1006.1095125829888,,,,,,,,,jklfdjsa,001,2022_Mar_16_1451,test_typingtask_norepeats_20rep,2020.2.10,59.69212283283608,
theme,theme,,,,,,,,,0,3,3,3,,,,,,,,,,,,,,,,,,,1011.5105256659881,None,None,0,1011.5105256659881,None,1011.5110026121969,1011.6110433329886,,,,,,,,,jklfdjsa,001,2022_Mar_16_1451,test_typingtask_norepeats_20rep,2020.2.10,59.69212283283608,
about,about,,,,,,,,,0,4,4,4,,,,,,,,,,,,,,,,,,,1017.0103106659953,None,None,0,1017.0103106659953,None,1017.0108684451974,1017.110488499995,,,,,,,,,jklfdjsa,001,2022_Mar_16_1451,test_typingtask_norepeats_20rep,2020.2.10,59.69212283283608,
theme,theme,,,,,,,,,0,5,5,5,,,,,,,,,,,,,,,,,,,1022.5270788749913,None,None,0,1022.5270788749913,None,1022.5275931122,1022.6275547080004,,,,,,,,,jklfdjsa,001,2022_Mar_16_1451,test_typingtask_norepeats_20rep,2020.2.10,59.69212283283608,
about,about,,,,,,,,,0,6,6,6,,,,,,,,,,,,,,,,,,,1028.0276669999876,None,None,0,1028.0276669999876,None,1028.0260814041962,1028.1271503749886,,,,,,,,,jklfdjsa,001,2022_Mar_16_1451,test_typingtask_norepeats_20rep,2020.2.10,59.69212283283608,
zibja,zibja,,,,,,,,,0,7,7,7,,,,,,,,,,,,,,,,,,,1033.5268105409923,None,None,0,1033.5268105409923,None,1033.5270542372004,1033.627347791,,,,,,,,,jklfdjsa,001,2022_Mar_16_1451,test_typingtask_norepeats_20rep,2020.2.10,59.69212283283608,
vodka,vodka,,,,,,,,,0,8,8,8,,,,,,,,,,,,,,,,,,,1039.0266529159999,None,None,0,1039.0266529159999,None,1039.027355862198,1039.126998290987,,,,,,,,,jklfdjsa,001,2022_Mar_16_1451,test_typingtask_norepeats_20rep,2020.2.10,59.69212283283608,
there,there,,,,,,,,,0,9,9,9,,,,,,,,,,,,,,,,,,,1044.527066374998,None,None,0,1044.527066374998,None,1044.5276945291976,1044.627409749999,,,,,,,,,jklfdjsa,001,2022_Mar_16_1451,test_typingtask_norepeats_20rep,2020.2.10,59.69212283283608,
buddy,buddy,,,,,,,,,0,10,10,10,,,,,,,,,,,,,,,,,,,1050.0267576659971,None,None,0,1050.0267576659971,None,1050.027377695193,1050.1265683329984,,,,,,,,,jklfdjsa,001,2022_Mar_16_1451,test_typingtask_norepeats_20rep,2020.2.10,59.69212283283608,
therm,therm,,,,,,,,,0,11,11,11,,,,,,,,,,,,,,,,,,,1055.5439999160008,None,None,0,1055.5439999160008,None,1055.5438362791888,1055.6443227909913,,,,,,,,,jklfdjsa,001,2022_Mar_16_1451,test_typingtask_norepeats_20rep,2020.2.10,59.69212283283608,
pykka,pykka,,,,,,,,,0,12,12,12,,,,,,,,,,,,,,,,,,,1061.043788540992,None,None,0,1061.043788540992,None,1061.0437072371992,None,,,,,,,,,jklfdjsa,001,2022_Mar_16_1451,test_typingtask_norepeats_20rep,2020.2.10,59.69212283283608,
would,would,,,,,,,,,0,13,13,13,,,,,,,,,,,,,,,,,,,1066.543394249995,None,None,0,1066.543394249995,None,1066.543975945197,1066.643310332991,,,,,,,,,jklfdjsa,001,2022_Mar_16_1451,test_typingtask_norepeats_20rep,2020.2.10,59.69212283283608,
pykka,pykka,,,,,,,,,0,14,14,14,,,,,,,,,,,,,,,,,,,1072.043259040991,None,None,0,1072.043259040991,None,1072.0441501121954,1072.1436509579944,,,,,,,,,jklfdjsa,001,2022_Mar_16_1451,test_typingtask_norepeats_20rep,2020.2.10,59.69212283283608,
think,think,,,,,,,,,0,15,15,15,,,,,,,,,,,,,,,,,,,1077.5605317079899,None,None,0,1077.5605317079899,None,1077.560518737197,1077.660005999991,,,,,,,,,jklfdjsa,001,2022_Mar_16_1451,test_typingtask_norepeats_20rep,2020.2.10,59.69212283283608,
therm,therm,,,,,,,,,0,16,16,16,,,,,,,,,,,,,,,,,,,1083.0600383329875,None,None,0,1083.0600383329875,None,1083.0601190291914,1083.1602646249958,,,,,,,,,jklfdjsa,001,2022_Mar_16_1451,test_typingtask_norepeats_20rep,2020.2.10,59.69212283283608,
cooed,cooed,,,,,,,,,0,17,17,17,,,,,,,,,,,,,,,,,,,1088.5603865829908,None,None,0,1088.5603865829908,None,1088.5603160291926,1088.6604103329882,,,,,,,,,jklfdjsa,001,2022_Mar_16_1451,test_typingtask_norepeats_20rep,2020.2.10,59.69212283283608,
druze,druze,,,,,,,,,0,18,18,18,,,,,,,,,,,,,,,,,,,1094.059400290993,None,None,0,1094.059400290993,None,1094.0604488621889,1094.1605811659974,,,,,,,,,jklfdjsa,001,2022_Mar_16_1451,test_typingtask_norepeats_20rep,2020.2.10,59.69212283283608,
belly,belly,,,,,,,,,0,19,19,19,,,,,,,,,,,,,,,,,,,1099.5599107909948,None,None,0,1099.5599107909948,None,1099.560485904191,1099.6601319579931,,,,,,,,,jklfdjsa,001,2022_Mar_16_1451,test_typingtask_norepeats_20rep,2020.2.10,59.69212283283608,
vodka,vodka,,,,,,,,,0,20,20,20,,,,,,,,,,,,,,,,,,,1105.0592828329973,None,None,0,1105.0592828329973,None,1105.060002529192,1105.160046582998,,,,,,,,,jklfdjsa,001,2022_Mar_16_1451,test_typingtask_norepeats_20rep,2020.2.10,59.69212283283608,
faqir,faqir,,,,,,,,,0,21,21,21,,,,,,,,,,,,,,,,,,,1110.5596720409958,None,None,0,1110.5596720409958,None,1110.5601904451892,1110.6603144580004,,,,,,,,,jklfdjsa,001,2022_Mar_16_1451,test_typingtask_norepeats_20rep,2020.2.10,59.69212283283608,
would,would,,,,,,,,,0,22,22,22,,,,,,,,,,,,,,,,,,,1116.0599309999961,None,None,0,1116.0599309999961,None,1116.0600081951984,None,,,,,,,,,jklfdjsa,001,2022_Mar_16_1451,test_typingtask_norepeats_20rep,2020.2.10,59.69212283283608,
haole,haole,,,,,,,,,0,23,23,23,,,,,,,,,,,,,,,,,,,1121.5591794999928,None,None,0,1121.5591794999928,None,1121.55991627919,1121.660097749991,,,,,,,,,jklfdjsa,001,2022_Mar_16_1451,test_typingtask_norepeats_20rep,2020.2.10,59.69212283283608,
tithe,tithe,,,,,,,,,0,24,24,24,,,,,,,,,,,,,,,,,,,1127.059423624989,None,None,0,1127.059423624989,None,1127.0600732791922,1127.1601010829909,,,,,,,,,jklfdjsa,001,2022_Mar_16_1451,test_typingtask_norepeats_20rep,2020.2.10,59.69212283283608,
pykka,pykka,,,,,,,,,0,25,25,25,,,,,,,,,,,,,,,,,,,1132.559686749999,None,None,0,1132.559686749999,None,1132.560096237196,1132.660240665995,,,,,,,,,jklfdjsa,001,2022_Mar_16_1451,test_typingtask_norepeats_20rep,2020.2.10,59.69212283283608,
cooed,cooed,,,,,,,,,0,26,26,26,,,,,,,,,,,,,,,,,,,1138.0598371249944,None,None,0,1138.0598371249944,None,1138.0601921121984,1138.160400875,,,,,,,,,jklfdjsa,001,2022_Mar_16_1451,test_typingtask_norepeats_20rep,2020.2.10,59.69212283283608,
isvar,isvar,,,,,,,,,0,27,27,27,,,,,,,,,,,,,,,,,,,1143.5592120410001,None,None,0,1143.5592120410001,None,1143.5599181541897,1143.6597319579887,,,,,,,,,jklfdjsa,001,2022_Mar_16_1451,test_typingtask_norepeats_20rep,2020.2.10,59.69212283283608,
think,think,,,,,,,,,0,28,28,28,,,,,,,,,,,,,,,,,,,1149.0596260409948,None,None,0,1149.0596260409948,None,1149.0599629451885,1149.160144207999,,,,,,,,,jklfdjsa,001,2022_Mar_16_1451,test_typingtask_norepeats_20rep,2020.2.10,59.69212283283608,
edthe,edthe,,,,,,,,,0,29,29,29,,,,,,,,,,,,,,,,,,,1154.559487999999,None,None,0,1154.559487999999,None,1154.560168612194,1154.6598791659926,,,,,,,,,jklfdjsa,001,2022_Mar_16_1451,test_typingtask_norepeats_20rep,2020.2.10,59.69212283283608,
cheer,cheer,,,,,,,,,0,30,30,30,,,,,,,,,,,,,,,,,,,1160.0601218329975,None,None,0,1160.0601218329975,None,1160.0603362371899,1160.1601172079972,,,,,,,,,jklfdjsa,001,2022_Mar_16_1451,test_typingtask_norepeats_20rep,2020.2.10,59.69212283283608,
lucky,lucky,,,,,,,,,0,31,31,31,,,,,,,,,,,,,,,,,,,1165.5598757080006,None,None,0,1165.5598757080006,None,1165.5599340291942,1165.6600378750009,,,,,,,,,jklfdjsa,001,2022_Mar_16_1451,test_typingtask_norepeats_20rep,2020.2.10,59.69212283283608,
haole,haole,,,,,,,,,0,32,32,32,,,,,,,,,,,,,,,,,,,1171.059508249993,None,None,0,1171.059508249993,None,1171.0601417371931,1171.1593327500013,,,,,,,,,jklfdjsa,001,2022_Mar_16_1451,test_typingtask_norepeats_20rep,2020.2.10,59.69212283283608,
think,think,,,,,,,,,0,33,33,33,,,,,,,,,,,,,,,,,,,1176.5599179159908,None,None,0,1176.5599179159908,None,1176.5600652371927,1176.6603075829917,,,,,,,,,jklfdjsa,001,2022_Mar_16_1451,test_typingtask_norepeats_20rep,2020.2.10,59.69212283283608,
cheer,cheer,,,,,,,,,0,34,34,34,,,,,,,,,,,,,,,,,,,1182.0592645829893,None,None,0,1182.0592645829893,None,1182.0597779871882,1182.1599507079954,,,,,,,,,jklfdjsa,001,2022_Mar_16_1451,test_typingtask_norepeats_20rep,2020.2.10,59.69212283283608,
edthe,edthe,,,,,,,,,0,35,35,35,,,,,,,,,,,,,,,,,,,1187.559415124997,None,None,0,1187.559415124997,None,1187.559915154196,1187.6598871659953,,,,,,,,,jklfdjsa,001,2022_Mar_16_1451,test_typingtask_norepeats_20rep,2020.2.10,59.69212283283608,
cheer,cheer,,,,,,,,,0,36,36,36,,,,,,,,,,,,,,,,,,,1193.0596884159895,None,None,0,1193.0596884159895,None,1193.0597480291894,1193.1597958749917,,,,,,,,,jklfdjsa,001,2022_Mar_16_1451,test_typingtask_norepeats_20rep,2020.2.10,59.69212283283608,
heond,heond,,,,,,,,,0,37,37,37,,,,,,,,,,,,,,,,,,,1198.5591710409935,None,None,0,1198.5591710409935,None,1198.5597724042004,1198.6597977909987,,,,,,,,,jklfdjsa,001,2022_Mar_16_1451,test_typingtask_norepeats_20rep,2020.2.10,59.69212283283608,
haole,haole,,,,,,,,,0,38,38,38,,,,,,,,,,,,,,,,,,,1204.0590046659927,None,None,0,1204.0590046659927,None,1204.0597747371926,1204.158450374991,,,,,,,,,jklfdjsa,001,2022_Mar_16_1451,test_typingtask_norepeats_20rep,2020.2.10,59.69212283283608,
there,there,,,,,,,,,0,39,39,39,,,,,,,,,,,,,,,,,,,1209.5591234579915,None,None,0,1209.5591234579915,None,1209.5596120701944,1209.6591354580014,,,,,,,,,jklfdjsa,001,2022_Mar_16_1451,test_typingtask_norepeats_20rep,2020.2.10,59.69212283283608,
belly,belly,,,,,,,,,0,40,40,40,,,,,,,,,,,,,,,,,,,1215.059010500001,None,None,0,1215.059010500001,None,1215.0596043621904,1215.1596203749941,,,,,,,,,jklfdjsa,001,2022_Mar_16_1451,test_typingtask_norepeats_20rep,2020.2.10,59.69212283283608,
haole,haole,,,,,,,,,0,41,41,41,,,,,,,,,,,,,,,,,,,1220.5591942079918,None,None,0,1220.5591942079918,None,1220.5595306121963,1220.6592632909887,,,,,,,,,jklfdjsa,001,2022_Mar_16_1451,test_typingtask_norepeats_20rep,2020.2.10,59.69212283283608,
faqir,faqir,,,,,,,,,0,42,42,42,,,,,,,,,,,,,,,,,,,1226.059535458,None,None,0,1226.059535458,None,1226.0598938621974,1226.1591398749879,,,,,,,,,jklfdjsa,001,2022_Mar_16_1451,test_typingtask_norepeats_20rep,2020.2.10,59.69212283283608,
therm,therm,,,,,,,,,0,43,43,43,,,,,,,,,,,,,,,,,,,1231.5593514159991,None,None,0,1231.5593514159991,None,1231.5596581951963,1231.6593589159893,,,,,,,,,jklfdjsa,001,2022_Mar_16_1451,test_typingtask_norepeats_20rep,2020.2.10,59.69212283283608,
there,there,,,,,,,,,0,44,44,44,,,,,,,,,,,,,,,,,,,1237.0592354580003,None,None,0,1237.0592354580003,None,1237.059200279195,1237.1601743749925,,,,,,,,,jklfdjsa,001,2022_Mar_16_1451,test_typingtask_norepeats_20rep,2020.2.10,59.69212283283608,
faqir,faqir,,,,,,,,,0,45,45,45,,,,,,,,,,,,,,,,,,,1242.5758680409926,None,None,0,1242.5758680409926,None,1242.5758034451997,1242.6759740409907,,,,,,,,,jklfdjsa,001,2022_Mar_16_1451,test_typingtask_norepeats_20rep,2020.2.10,59.69212283283608,
buddy,buddy,,,,,,,,,0,46,46,46,,,,,,,,,,,,,,,,,,,1248.0753790829913,None,None,0,1248.0753790829913,None,1248.0761531951998,1248.175836333001,,,,,,,,,jklfdjsa,001,2022_Mar_16_1451,test_typingtask_norepeats_20rep,2020.2.10,59.69212283283608,
pykka,pykka,,,,,,,,,0,47,47,47,,,,,,,,,,,,,,,,,,,1253.576484833,None,None,0,1253.576484833,None,1253.5763455291876,1253.6759922499914,,,,,,,,,jklfdjsa,001,2022_Mar_16_1451,test_typingtask_norepeats_20rep,2020.2.10,59.69212283283608,
tithe,tithe,,,,,,,,,0,48,48,48,,,,,,,,,,,,,,,,,,,1259.0752389159898,None,None,0,1259.0752389159898,None,1259.0760062791946,None,,,,,,,,,jklfdjsa,001,2022_Mar_16_1451,test_typingtask_norepeats_20rep,2020.2.10,59.69212283283608,
cooed,cooed,,,,,,,,,0,49,49,49,,,,,,,,,,,,,,,,,,,1264.5754888329975,None,None,0,1264.5754888329975,None,1264.5759822371897,1264.6761227909883,,,,,,,,,jklfdjsa,001,2022_Mar_16_1451,test_typingtask_norepeats_20rep,2020.2.10,59.69212283283608,
heond,heond,,,,,,,,,0,50,50,50,,,,,,,,,,,,,,,,,,,1270.0760836659902,None,None,0,1270.0760836659902,None,1270.075485070191,1270.1760515409987,,,,,,,,,jklfdjsa,001,2022_Mar_16_1451,test_typingtask_norepeats_20rep,2020.2.10,59.69212283283608,
puppy,puppy,,,,,,,,,0,51,51,51,,,,,,,,,,,,,,,,,,,1275.575768499999,None,None,0,1275.575768499999,None,1275.5760990701951,1275.6756793329987,,,,,,,,,jklfdjsa,001,2022_Mar_16_1451,test_typingtask_norepeats_20rep,2020.2.10,59.69212283283608,
isvar,isvar,,,,,,,,,0,52,52,52,,,,,,,,,,,,,,,,,,,1281.0757249999879,None,None,0,1281.0757249999879,None,1281.0757486541975,1281.1758651659911,,,,,,,,,jklfdjsa,001,2022_Mar_16_1451,test_typingtask_norepeats_20rep,2020.2.10,59.69212283283608,
cheer,cheer,,,,,,,,,0,53,53,53,,,,,,,,,,,,,,,,,,,1286.5754656659992,None,None,0,1286.5754656659992,None,1286.5761307791968,1286.675788624998,,,,,,,,,jklfdjsa,001,2022_Mar_16_1451,test_typingtask_norepeats_20rep,2020.2.10,59.69212283283608,
therm,therm,,,,,,,,,0,54,54,54,,,,,,,,,,,,,,,,,,,1292.075400582995,None,None,0,1292.075400582995,None,1292.0759081121928,1292.1757814159937,,,,,,,,,jklfdjsa,001,2022_Mar_16_1451,test_typingtask_norepeats_20rep,2020.2.10,59.69212283283608,
isvar,isvar,,,,,,,,,0,55,55,55,,,,,,,,,,,,,,,,,,,1297.5762316659966,None,None,0,1297.5762316659966,None,1297.5762001542012,1297.6760303749907,,,,,,,,,jklfdjsa,001,2022_Mar_16_1451,test_typingtask_norepeats_20rep,2020.2.10,59.69212283283608,
puppy,puppy,,,,,,,,,0,56,56,56,,,,,,,,,,,,,,,,,,,1303.0752305829956,None,None,0,1303.0752305829956,None,1303.075762820196,1303.1761698749906,,,,,,,,,jklfdjsa,001,2022_Mar_16_1451,test_typingtask_norepeats_20rep,2020.2.10,59.69212283283608,
vodka,vodka,,,,,,,,,0,57,57,57,,,,,,,,,,,,,,,,,,,1308.5756799160008,None,None,0,1308.5756799160008,None,1308.5756613201943,1308.675914708001,,,,,,,,,jklfdjsa,001,2022_Mar_16_1451,test_typingtask_norepeats_20rep,2020.2.10,59.69212283283608,
tithe,tithe,,,,,,,,,0,58,58,58,,,,,,,,,,,,,,,,,,,1314.091978749988,None,None,0,1314.091978749988,None,1314.0920354042014,1314.1923850829917,,,,,,,,,jklfdjsa,001,2022_Mar_16_1451,test_typingtask_norepeats_20rep,2020.2.10,59.69212283283608,
champ,champ,,,,,,,,,0,59,59,59,,,,,,,,,,,,,,,,,,,1319.5924083329883,None,None,0,1319.5924083329883,None,1319.592173362193,1319.6926568329945,,,,,,,,,jklfdjsa,001,2022_Mar_16_1451,test_typingtask_norepeats_20rep,2020.2.10,59.69212283283608,
about,about,,,,,,,,,0,60,60,60,,,,,,,,,,,,,,,,,,,1325.0918952079955,None,None,0,1325.0918952079955,None,1325.0922559871965,1325.1911754999892,,,,,,,,,jklfdjsa,001,2022_Mar_16_1451,test_typingtask_norepeats_20rep,2020.2.10,59.69212283283608,
haole,haole,,,,,,,,,0,61,61,61,,,,,,,,,,,,,,,,,,,1330.5916457079875,None,None,0,1330.5916457079875,None,1330.5921194451935,1330.6920660829928,,,,,,,,,jklfdjsa,001,2022_Mar_16_1451,test_typingtask_norepeats_20rep,2020.2.10,59.69212283283608,
kremp,kremp,,,,,,,,,0,62,62,62,,,,,,,,,,,,,,,,,,,1336.092467208,None,None,0,1336.092467208,None,1336.092415654201,1336.1919758329896,,,,,,,,,jklfdjsa,001,2022_Mar_16_1451,test_typingtask_norepeats_20rep,2020.2.10,59.69212283283608,
therm,therm,,,,,,,,,0,63,63,63,,,,,,,,,,,,,,,,,,,1341.5924236249994,None,None,0,1341.5924236249994,None,1341.5919298201902,1341.6923738329933,,,,,,,,,jklfdjsa,001,2022_Mar_16_1451,test_typingtask_norepeats_20rep,2020.2.10,59.69212283283608,
cheer,cheer,,,,,,,,,0,64,64,64,,,,,,,,,,,,,,,,,,,1347.108901915999,None,None,0,1347.108901915999,None,1347.109022112198,1347.2092182909983,,,,,,,,,jklfdjsa,001,2022_Mar_16_1451,test_typingtask_norepeats_20rep,2020.2.10,59.69212283283608,
theme,theme,,,,,,,,,0,65,65,65,,,,,,,,,,,,,,,,,,,1352.6084546659986,None,None,0,1352.6084546659986,None,1352.608922779195,1352.7091255829873,,,,,,,,,jklfdjsa,001,2022_Mar_16_1451,test_typingtask_norepeats_20rep,2020.2.10,59.69212283283608,
druze,druze,,,,,,,,,0,66,66,66,,,,,,,,,,,,,,,,,,,1358.108364707994,None,None,0,1358.108364707994,None,1358.1085841121953,1358.20881487499,,,,,,,,,jklfdjsa,001,2022_Mar_16_1451,test_typingtask_norepeats_20rep,2020.2.10,59.69212283283608,
belly,belly,,,,,,,,,0,67,67,67,,,,,,,,,,,,,,,,,,,1363.6084409579926,None,None,0,1363.6084409579926,None,1363.6090689451944,1363.7087586249982,,,,,,,,,jklfdjsa,001,2022_Mar_16_1451,test_typingtask_norepeats_20rep,2020.2.10,59.69212283283608,
champ,champ,,,,,,,,,0,68,68,68,,,,,,,,,,,,,,,,,,,1369.1086751659896,None,None,0,1369.1086751659896,None,1369.1087734451999,1369.2091586659953,,,,,,,,,jklfdjsa,001,2022_Mar_16_1451,test_typingtask_norepeats_20rep,2020.2.10,59.69212283283608,
edthe,edthe,,,,,,,,,0,69,69,69,,,,,,,,,,,,,,,,,,,1374.6080502080003,None,None,0,1374.6080502080003,None,1374.6087287371906,1374.7088279579912,,,,,,,,,jklfdjsa,001,2022_Mar_16_1451,test_typingtask_norepeats_20rep,2020.2.10,59.69212283283608,
would,would,,,,,,,,,0,70,70,70,,,,,,,,,,,,,,,,,,,1380.1080289579986,None,None,0,1380.1080289579986,None,1380.1090613621914,1380.2086555829883,,,,,,,,,jklfdjsa,001,2022_Mar_16_1451,test_typingtask_norepeats_20rep,2020.2.10,59.69212283283608,
kremp,kremp,,,,,,,,,0,71,71,71,,,,,,,,,,,,,,,,,,,1385.6087066249893,None,None,0,1385.6087066249893,None,1385.6080061121888,1385.7074440829892,,,,,,,,,jklfdjsa,001,2022_Mar_16_1451,test_typingtask_norepeats_20rep,2020.2.10,59.69212283283608,
heond,heond,,,,,,,,,0,72,72,72,,,,,,,,,,,,,,,,,,,1391.1082997079939,None,None,0,1391.1082997079939,None,1391.1089339451996,1391.2085976659873,,,,,,,,,jklfdjsa,001,2022_Mar_16_1451,test_typingtask_norepeats_20rep,2020.2.10,59.69212283283608,
kremp,kremp,,,,,,,,,0,73,73,73,,,,,,,,,,,,,,,,,,,1396.6084552079992,None,None,0,1396.6084552079992,None,1396.6088091121915,1396.7087047079985,,,,,,,,,jklfdjsa,001,2022_Mar_16_1451,test_typingtask_norepeats_20rep,2020.2.10,59.69212283283608,
isvar,isvar,,,,,,,,,0,74,74,74,,,,,,,,,,,,,,,,,,,1402.1080623749876,None,None,0,1402.1080623749876,None,1402.1089081542,1402.208174082989,,,,,,,,,jklfdjsa,001,2022_Mar_16_1451,test_typingtask_norepeats_20rep,2020.2.10,59.69212283283608,
theme,theme,,,,,,,,,0,75,75,75,,,,,,,,,,,,,,,,,,,1407.6083136249945,None,None,0,1407.6083136249945,None,1407.6088519041937,1407.7082797499897,,,,,,,,,jklfdjsa,001,2022_Mar_16_1451,test_typingtask_norepeats_20rep,2020.2.10,59.69212283283608,
cooed,cooed,,,,,,,,,0,76,76,76,,,,,,,,,,,,,,,,,,,1413.1088954159932,None,None,0,1413.1088954159932,None,1413.1085395701944,1413.2089235409949,,,,,,,,,jklfdjsa,001,2022_Mar_16_1451,test_typingtask_norepeats_20rep,2020.2.10,59.69212283283608,
edthe,edthe,,,,,,,,,0,77,77,77,,,,,,,,,,,,,,,,,,,1418.608413665992,None,None,0,1418.608413665992,None,1418.6086203621949,1418.708809541,,,,,,,,,jklfdjsa,001,2022_Mar_16_1451,test_typingtask_norepeats_20rep,2020.2.10,59.69212283283608,
lucky,lucky,,,,,,,,,0,78,78,78,,,,,,,,,,,,,,,,,,,1424.1082367079944,None,None,0,1424.1082367079944,None,1424.1086010291897,1424.2087435409921,,,,,,,,,jklfdjsa,001,2022_Mar_16_1451,test_typingtask_norepeats_20rep,2020.2.10,59.69212283283608,
kremp,kremp,,,,,,,,,0,79,79,79,,,,,,,,,,,,,,,,,,,1429.606921707993,None,None,0,1429.606921707993,None,1429.6085578621992,1429.7081486659881,,,,,,,,,jklfdjsa,001,2022_Mar_16_1451,test_typingtask_norepeats_20rep,2020.2.10,59.69212283283608,
lucky,lucky,,,,,,,,,0,80,80,80,,,,,,,,,,,,,,,,,,,1435.1078405829903,None,None,0,1435.1078405829903,None,1435.1086253621893,1435.208508374999,,,,,,,,,jklfdjsa,001,2022_Mar_16_1451,test_typingtask_norepeats_20rep,2020.2.10,59.69212283283608,
think,think,,,,,,,,,0,81,81,81,,,,,,,,,,,,,,,,,,,1440.6079042079946,None,None,0,1440.6079042079946,None,1440.608107154198,1440.7080321659887,,,,,,,,,jklfdjsa,001,2022_Mar_16_1451,test_typingtask_norepeats_20rep,2020.2.10,59.69212283283608,
lucky,lucky,,,,,,,,,0,82,82,82,,,,,,,,,,,,,,,,,,,1446.1084236659954,None,None,0,1446.1084236659954,None,1446.1083435291935,1446.2081138749927,,,,,,,,,jklfdjsa,001,2022_Mar_16_1451,test_typingtask_norepeats_20rep,2020.2.10,59.69212283283608,
tithe,tithe,,,,,,,,,0,83,83,83,,,,,,,,,,,,,,,,,,,1451.6083058329968,None,None,0,1451.6083058329968,None,1451.6083115291972,1451.7079982909927,,,,,,,,,jklfdjsa,001,2022_Mar_16_1451,test_typingtask_norepeats_20rep,2020.2.10,59.69212283283608,
belly,belly,,,,,,,,,0,84,84,84,,,,,,,,,,,,,,,,,,,1457.1244367079926,None,None,0,1457.1244367079926,None,1457.1251061951903,1457.2249242079997,,,,,,,,,jklfdjsa,001,2022_Mar_16_1451,test_typingtask_norepeats_20rep,2020.2.10,59.69212283283608,
druze,druze,,,,,,,,,0,85,85,85,,,,,,,,,,,,,,,,,,,1462.6244149999984,None,None,0,1462.6244149999984,None,1462.6257099041964,None,,,,,,,,,jklfdjsa,001,2022_Mar_16_1451,test_typingtask_norepeats_20rep,2020.2.10,59.69212283283608,
champ,champ,,,,,,,,,0,86,86,86,,,,,,,,,,,,,,,,,,,1468.124429040996,None,None,0,1468.124429040996,None,1468.1248172371984,1468.224193957998,,,,,,,,,jklfdjsa,001,2022_Mar_16_1451,test_typingtask_norepeats_20rep,2020.2.10,59.69212283283608,
puppy,puppy,,,,,,,,,0,87,87,87,,,,,,,,,,,,,,,,,,,1473.6246446250007,None,None,0,1473.6246446250007,None,1473.6249247791989,1473.7248558749998,,,,,,,,,jklfdjsa,001,2022_Mar_16_1451,test_typingtask_norepeats_20rep,2020.2.10,59.69212283283608,
faqir,faqir,,,,,,,,,0,88,88,88,,,,,,,,,,,,,,,,,,,1479.1241518749885,None,None,0,1479.1241518749885,None,1479.1246056121877,1479.2245739999926,,,,,,,,,jklfdjsa,001,2022_Mar_16_1451,test_typingtask_norepeats_20rep,2020.2.10,59.69212283283608,
puppy,puppy,,,,,,,,,0,89,89,89,,,,,,,,,,,,,,,,,,,1484.6244382909936,None,None,0,1484.6244382909936,None,1484.6243739041952,1484.724558249989,,,,,,,,,jklfdjsa,001,2022_Mar_16_1451,test_typingtask_norepeats_20rep,2020.2.10,59.69212283283608,
pykka,pykka,,,,,,,,,0,90,90,90,,,,,,,,,,,,,,,,,,,1490.1241018750006,None,None,0,1490.1241018750006,None,1490.124898904191,1490.2247970829922,,,,,,,,,jklfdjsa,001,2022_Mar_16_1451,test_typingtask_norepeats_20rep,2020.2.10,59.69212283283608,
zibja,zibja,,,,,,,,,0,91,91,91,,,,,,,,,,,,,,,,,,,1495.6240134159889,None,None,0,1495.6240134159889,None,1495.6245244041916,1495.7246132500004,,,,,,,,,jklfdjsa,001,2022_Mar_16_1451,test_typingtask_norepeats_20rep,2020.2.10,59.69212283283608,
about,about,,,,,,,,,0,92,92,92,,,,,,,,,,,,,,,,,,,1501.1245645409945,None,None,0,1501.1245645409945,None,1501.1247152791898,1501.2251662499912,,,,,,,,,jklfdjsa,001,2022_Mar_16_1451,test_typingtask_norepeats_20rep,2020.2.10,59.69212283283608,
champ,champ,,,,,,,,,0,93,93,93,,,,,,,,,,,,,,,,,,,1506.6239085409907,None,None,0,1506.6239085409907,None,1506.6248995291958,1506.7245025409939,,,,,,,,,jklfdjsa,001,2022_Mar_16_1451,test_typingtask_norepeats_20rep,2020.2.10,59.69212283283608,
buddy,buddy,,,,,,,,,0,94,94,94,,,,,,,,,,,,,,,,,,,1512.124274457994,None,None,0,1512.124274457994,None,1512.1248229452017,1512.2248889579932,,,,,,,,,jklfdjsa,001,2022_Mar_16_1451,test_typingtask_norepeats_20rep,2020.2.10,59.69212283283608,
there,there,,,,,,,,,0,95,95,95,,,,,,,,,,,,,,,,,,,1517.6241625409893,None,None,0,1517.6241625409893,None,1517.624296654189,1517.7246378749987,,,,,,,,,jklfdjsa,001,2022_Mar_16_1451,test_typingtask_norepeats_20rep,2020.2.10,59.69212283283608,
druze,druze,,,,,,,,,0,96,96,96,,,,,,,,,,,,,,,,,,,1523.1408597499976,None,None,0,1523.1408597499976,None,1523.1412639041941,1523.2412878749892,,,,,,,,,jklfdjsa,001,2022_Mar_16_1451,test_typingtask_norepeats_20rep,2020.2.10,59.69212283283608,
faqir,faqir,,,,,,,,,0,97,97,97,,,,,,,,,,,,,,,,,,,1528.6408004159894,None,None,0,1528.6408004159894,None,1528.6413874041887,1528.740907332991,,,,,,,,,jklfdjsa,001,2022_Mar_16_1451,test_typingtask_norepeats_20rep,2020.2.10,59.69212283283608,
isvar,isvar,,,,,,,,,0,98,98,98,,,,,,,,,,,,,,,,,,,1534.1408171660005,None,None,0,1534.1408171660005,None,1534.1410114871965,1534.2407986659964,,,,,,,,,jklfdjsa,001,2022_Mar_16_1451,test_typingtask_norepeats_20rep,2020.2.10,59.69212283283608,
kremp,kremp,,,,,,,,,0,99,99,99,,,,,,,,,,,,,,,,,,,1539.640932957991,None,None,0,1539.640932957991,None,1539.641315695188,1539.7411990409892,,,,,,,,,jklfdjsa,001,2022_Mar_16_1451,test_typingtask_norepeats_20rep,2020.2.10,59.69212283283608,
vodka,vodka,,,,,,,,,0,100,100,100,,,,,,,,,,,,,,,,,,,1545.1400631249999,None,None,0,1545.1400631249999,None,1545.1416353201917,1545.2411038749997,,,,,,,,,jklfdjsa,001,2022_Mar_16_1451,test_typingtask_norepeats_20rep,2020.2.10,59.69212283283608,
cooed,cooed,,,,,,,,,0,101,101,101,,,,,,,,,,,,,,,,,,,1550.6406626249955,None,None,0,1550.6406626249955,None,1550.641140904189,1550.7397844999941,,,,,,,,,jklfdjsa,001,2022_Mar_16_1451,test_typingtask_norepeats_20rep,2020.2.10,59.69212283283608,
would,would,,,,,,,,,0,102,102,102,,,,,,,,,,,,,,,,,,,1556.1395753329998,None,None,0,1556.1395753329998,None,1556.1411598201944,1556.2410228329973,,,,,,,,,jklfdjsa,001,2022_Mar_16_1451,test_typingtask_norepeats_20rep,2020.2.10,59.69212283283608,
zibja,zibja,,,,,,,,,0,103,103,103,,,,,,,,,,,,,,,,,,,1561.640208375,None,None,0,1561.640208375,None,1561.6412289451969,1561.7408302909898,,,,,,,,,jklfdjsa,001,2022_Mar_16_1451,test_typingtask_norepeats_20rep,2020.2.10,59.69212283283608,
theme,theme,,,,,,,,,0,104,104,104,,,,,,,,,,,,,,,,,,,1567.1408312499989,None,None,0,1567.1408312499989,None,1567.1410297792013,1567.2410851249879,,,,,,,,,jklfdjsa,001,2022_Mar_16_1451,test_typingtask_norepeats_20rep,2020.2.10,59.69212283283608,
vodka,vodka,,,,,,,,,0,105,105,105,,,,,,,,,,,,,,,,,,,1572.640543415997,None,None,0,1572.640543415997,None,1572.6408644452008,1572.7408909579972,,,,,,,,,jklfdjsa,001,2022_Mar_16_1451,test_typingtask_norepeats_20rep,2020.2.10,59.69212283283608,
zibja,zibja,,,,,,,,,0,106,106,106,,,,,,,,,,,,,,,,,,,1578.1406505409977,None,None,0,1578.1406505409977,None,1578.1409180702017,1578.2410167909984,,,,,,,,,jklfdjsa,001,2022_Mar_16_1451,test_typingtask_norepeats_20rep,2020.2.10,59.69212283283608,
belly,belly,,,,,,,,,0,107,107,107,,,,,,,,,,,,,,,,,,,1583.657059124991,None,None,0,1583.657059124991,None,1583.6577421121897,1583.757589749992,,,,,,,,,jklfdjsa,001,2022_Mar_16_1451,test_typingtask_norepeats_20rep,2020.2.10,59.69212283283608,
lucky,lucky,,,,,,,,,0,108,108,108,,,,,,,,,,,,,,,,,,,1589.1563535829919,None,None,0,1589.1563535829919,None,1589.1578419041894,1589.2576784580015,,,,,,,,,jklfdjsa,001,2022_Mar_16_1451,test_typingtask_norepeats_20rep,2020.2.10,59.69212283283608,
edthe,edthe,,,,,,,,,0,109,109,109,,,,,,,,,,,,,,,,,,,1594.6571086249896,None,None,0,1594.6571086249896,None,1594.6576111121963,1594.7573635409935,,,,,,,,,jklfdjsa,001,2022_Mar_16_1451,test_typingtask_norepeats_20rep,2020.2.10,59.69212283283608,
champ,champ,,,,,,,,,0,110,110,110,,,,,,,,,,,,,,,,,,,1600.1573777909944,None,None,0,1600.1573777909944,None,1600.1577896121876,1600.257445832991,,,,,,,,,jklfdjsa,001,2022_Mar_16_1451,test_typingtask_norepeats_20rep,2020.2.10,59.69212283283608,
heond,heond,,,,,,,,,0,111,111,111,,,,,,,,,,,,,,,,,,,1605.657047332992,None,None,0,1605.657047332992,None,1605.657504904199,1605.7573772909964,,,,,,,,,jklfdjsa,001,2022_Mar_16_1451,test_typingtask_norepeats_20rep,2020.2.10,59.69212283283608,
zibja,zibja,,,,,,,,,0,112,112,112,,,,,,,,,,,,,,,,,,,1611.1569857909926,None,None,0,1611.1569857909926,None,1611.1574847791912,1611.2563449159934,,,,,,,,,jklfdjsa,001,2022_Mar_16_1451,test_typingtask_norepeats_20rep,2020.2.10,59.69212283283608,
puppy,puppy,,,,,,,,,0,113,113,113,,,,,,,,,,,,,,,,,,,1616.6574346659909,None,None,0,1616.6574346659909,None,1616.6574621952009,1616.7580314160004,,,,,,,,,jklfdjsa,001,2022_Mar_16_1451,test_typingtask_norepeats_20rep,2020.2.10,59.69212283283608,
buddy,buddy,,,,,,,,,0,114,114,114,,,,,,,,,,,,,,,,,,,1622.1578662909887,None,None,0,1622.1578662909887,None,1622.1575012792005,1622.2575057909999,,,,,,,,,jklfdjsa,001,2022_Mar_16_1451,test_typingtask_norepeats_20rep,2020.2.10,59.69212283283608,
would,would,,,,,,,,,0,115,115,115,,,,,,,,,,,,,,,,,,,1627.6571596659924,None,None,0,1627.6571596659924,None,1627.6575389872,1627.7574413749971,,,,,,,,,jklfdjsa,001,2022_Mar_16_1451,test_typingtask_norepeats_20rep,2020.2.10,59.69212283283608,
heond,heond,,,,,,,,,0,116,116,116,,,,,,,,,,,,,,,,,,,1633.1736896660004,None,None,0,1633.1736896660004,None,1633.174256862198,1633.2740794159909,,,,,,,,,jklfdjsa,001,2022_Mar_16_1451,test_typingtask_norepeats_20rep,2020.2.10,59.69212283283608,
there,there,,,,,,,,,0,117,117,117,,,,,,,,,,,,,,,,,,,1638.6740217079932,None,None,0,1638.6740217079932,None,1638.6740485291944,1638.7743868329999,,,,,,,,,jklfdjsa,001,2022_Mar_16_1451,test_typingtask_norepeats_20rep,2020.2.10,59.69212283283608,
about,about,,,,,,,,,0,118,118,118,,,,,,,,,,,,,,,,,,,1644.1736057499947,None,None,0,1644.1736057499947,None,1644.1743101541929,1644.2737717079872,,,,,,,,,jklfdjsa,001,2022_Mar_16_1451,test_typingtask_norepeats_20rep,2020.2.10,59.69212283283608,
tithe,tithe,,,,,,,,,0,119,119,119,,,,,,,,,,,,,,,,,,,1649.673799415992,None,None,0,1649.673799415992,None,1649.6737689041897,1649.7734660409915,,,,,,,,,jklfdjsa,001,2022_Mar_16_1451,test_typingtask_norepeats_20rep,2020.2.10,59.69212283283608,
heond,heond,,,,,,,,,,,,,0,0,0,7,,,,,,,,,,,,,1655.1741289999918,None,,,,,,,,,1955.188367040988,None,None,0,1955.188367040988,None,,,jklfdjsa,001,2022_Mar_16_1451,test_typingtask_norepeats_20rep,2020.2.10,59.69212283283608,
heond,heond,,,,,,,,,,,,,0,0,0,7,,,,,,,,,,,,,,,,,,,,,,,,,,,,,1955.189436654195,1955.2888579159917,jklfdjsa,001,2022_Mar_16_1451,test_typingtask_norepeats_20rep,2020.2.10,59.69212283283608,
heond,heond,,,,,,,,,,,,,0,1,1,13,,,,,,,,,,,,,,,,,,,,,,,1960.6891856659931,None,None,0,1960.6891856659931,None,,,jklfdjsa,001,2022_Mar_16_1451,test_typingtask_norepeats_20rep,2020.2.10,59.69212283283608,
heond,heond,,,,,,,,,,,,,0,1,1,13,,,,,,,,,,,,,,,,,,,,,,,,,,,,,1960.6889582371937,1960.7890601659892,jklfdjsa,001,2022_Mar_16_1451,test_typingtask_norepeats_20rep,2020.2.10,59.69212283283608,
isvar,isvar,,,,,,,,,,,,,0,2,2,45,,,,,,,,,,,,,,,,,,,,,,,1966.189237957995,None,None,0,1966.189237957995,None,,,jklfdjsa,001,2022_Mar_16_1451,test_typingtask_norepeats_20rep,2020.2.10,59.69212283283608,
isvar,isvar,,,,,,,,,,,,,0,2,2,45,,,,,,,,,,,,,,,,,,,,,,,,,,,,,1966.189554070194,1966.28900325,jklfdjsa,001,2022_Mar_16_1451,test_typingtask_norepeats_20rep,2020.2.10,59.69212283283608,
would,would,,,,,,,,,,,,,0,3,3,33,,,,,,,,,,,,,,,,,,,,,,,1971.6885334159888,None,None,0,1971.6885334159888,None,,,jklfdjsa,001,2022_Mar_16_1451,test_typingtask_norepeats_20rep,2020.2.10,59.69212283283608,
would,would,,,,,,,,,,,,,0,3,3,33,,,,,,,,,,,,,,,,,,,,,,,,,,,,,1971.6880850291914,1971.7892025409965,jklfdjsa,001,2022_Mar_16_1451,test_typingtask_norepeats_20rep,2020.2.10,59.69212283283608,
pykka,pykka,,,,,,,,,,,,,0,4,4,44,,,,,,,,,,,,,,,,,,,,,,,1977.2054146250011,None,None,0,1977.2054146250011,None,,,jklfdjsa,001,2022_Mar_16_1451,test_typingtask_norepeats_20rep,2020.2.10,59.69212283283608,
pykka,pykka,,,,,,,,,,,,,0,4,4,44,,,,,,,,,,,,,,,,,,,,,,,,,,,,,1977.2062346121952,1977.3056461659871,jklfdjsa,001,2022_Mar_16_1451,test_typingtask_norepeats_20rep,2020.2.10,59.69212283283608,
champ,champ,,,,,,,,,,,,,0,5,5,110,,,,,,,,,,,,,,,,,,,,,,,1982.7049882079882,None,None,0,1982.7049882079882,None,,,jklfdjsa,001,2022_Mar_16_1451,test_typingtask_norepeats_20rep,2020.2.10,59.69212283283608,
champ,champ,,,,,,,,,,,,,0,5,5,110,,,,,,,,,,,,,,,,,,,,,,,,,,,,,1982.7052208201917,1982.8059040410008,jklfdjsa,001,2022_Mar_16_1451,test_typingtask_norepeats_20rep,2020.2.10,59.69212283283608,
zibja,zibja,,,,,,,,,,,,,0,6,6,94,,,,,,,,,,,,,,,,,,,,,,,1988.2217187499919,None,None,0,1988.2217187499919,None,,,jklfdjsa,001,2022_Mar_16_1451,test_typingtask_norepeats_20rep,2020.2.10,59.69212283283608,
zibja,zibja,,,,,,,,,,,,,0,6,6,94,,,,,,,,,,,,,,,,,,,,,,,,,,,,,1988.2216626951981,1988.322511833001,jklfdjsa,001,2022_Mar_16_1451,test_typingtask_norepeats_20rep,2020.2.10,59.69212283283608,
there,there,,,,,,,,,,,,,0,7,7,18,,,,,,,,,,,,,,,,,,,,,,,1993.7048335409927,None,None,0,1993.7048335409927,None,,,jklfdjsa,001,2022_Mar_16_1451,test_typingtask_norepeats_20rep,2020.2.10,59.69212283283608,
there,there,,,,,,,,,,,,,0,7,7,18,,,,,,,,,,,,,,,,,,,,,,,,,,,,,1993.7054415291918,1993.8053003749956,jklfdjsa,001,2022_Mar_16_1451,test_typingtask_norepeats_20rep,2020.2.10,59.69212283283608,
isvar,isvar,,,,,,,,,,,,,0,8,8,40,,,,,,,,,,,,,,,,,,,,,,,1999.2050221249956,None,None,0,1999.2050221249956,None,,,jklfdjsa,001,2022_Mar_16_1451,test_typingtask_norepeats_20rep,2020.2.10,59.69212283283608,
isvar,isvar,,,,,,,,,,,,,0,8,8,40,,,,,,,,,,,,,,,,,,,,,,,,,,,,,1999.2052714871957,1999.304962957991,jklfdjsa,001,2022_Mar_16_1451,test_typingtask_norepeats_20rep,2020.2.10,59.69212283283608,
there,there,,,,,,,,,,,,,0,9,9,46,,,,,,,,,,,,,,,,,,,,,,,2004.706162165996,None,None,0,2004.706162165996,None,,,jklfdjsa,001,2022_Mar_16_1451,test_typingtask_norepeats_20rep,2020.2.10,59.69212283283608,
there,there,,,,,,,,,,,,,0,9,9,46,,,,,,,,,,,,,,,,,,,,,,,,,,,,,2004.7050059871967,2004.8049607909925,jklfdjsa,001,2022_Mar_16_1451,test_typingtask_norepeats_20rep,2020.2.10,59.69212283283608,
tithe,tithe,,,,,,,,,,,,,0,10,10,47,,,,,,,,,,,,,,,,,,,,,,,2010.2215170409909,None,None,0,2010.2215170409909,None,,,jklfdjsa,001,2022_Mar_16_1451,test_typingtask_norepeats_20rep,2020.2.10,59.69212283283608,
tithe,tithe,,,,,,,,,,,,,0,10,10,47,,,,,,,,,,,,,,,,,,,,,,,,,,,,,2010.221023070188,2010.3219366249978,jklfdjsa,001,2022_Mar_16_1451,test_typingtask_norepeats_20rep,2020.2.10,59.69212283283608,
druze,druze,,,,,,,,,,,,,0,11,11,28,,,,,,,,,,,,,,,,,,,,,,,2015.7215852079971,None,None,0,2015.7215852079971,None,,,jklfdjsa,001,2022_Mar_16_1451,test_typingtask_norepeats_20rep,2020.2.10,59.69212283283608,
druze,druze,,,,,,,,,,,,,0,11,11,28,,,,,,,,,,,,,,,,,,,,,,,,,,,,,2015.7217924041893,2015.8217078749876,jklfdjsa,001,2022_Mar_16_1451,test_typingtask_norepeats_20rep,2020.2.10,59.69212283283608,
belly,belly,,,,,,,,,,,,,0,12,12,90,,,,,,,,,,,,,,,,,,,,,,,2021.2209927910008,None,None,0,2021.2209927910008,None,,,jklfdjsa,001,2022_Mar_16_1451,test_typingtask_norepeats_20rep,2020.2.10,59.69212283283608,
belly,belly,,,,,,,,,,,,,0,12,12,90,,,,,,,,,,,,,,,,,,,,,,,,,,,,,2021.221820904188,2021.3217906659993,jklfdjsa,001,2022_Mar_16_1451,test_typingtask_norepeats_20rep,2020.2.10,59.69212283283608,
lucky,lucky,,,,,,,,,,,,,0,13,13,70,,,,,,,,,,,,,,,,,,,,,,,2026.7213071250007,None,None,0,2026.7213071250007,None,,,jklfdjsa,001,2022_Mar_16_1451,test_typingtask_norepeats_20rep,2020.2.10,59.69212283283608,
lucky,lucky,,,,,,,,,,,,,0,13,13,70,,,,,,,,,,,,,,,,,,,,,,,,,,,,,2026.7211829451976,2026.8211444579938,jklfdjsa,001,2022_Mar_16_1451,test_typingtask_norepeats_20rep,2020.2.10,59.69212283283608,
about,about,,,,,,,,,,,,,0,14,14,105,,,,,,,,,,,,,,,,,,,,,,,2032.2213763329928,None,None,0,2032.2213763329928,None,,,jklfdjsa,001,2022_Mar_16_1451,test_typingtask_norepeats_20rep,2020.2.10,59.69212283283608,
about,about,,,,,,,,,,,,,0,14,14,105,,,,,,,,,,,,,,,,,,,,,,,,,,,,,2032.2218043201997,2032.3222115829994,jklfdjsa,001,2022_Mar_16_1451,test_typingtask_norepeats_20rep,2020.2.10,59.69212283283608,
druze,druze,,,,,,,,,,,,,0,15,15,15,,,,,,,,,,,,,,,,,,,,,,,2037.7214773749874,None,None,0,2037.7214773749874,None,,,jklfdjsa,001,2022_Mar_16_1451,test_typingtask_norepeats_20rep,2020.2.10,59.69212283283608,
druze,druze,,,,,,,,,,,,,0,15,15,15,,,,,,,,,,,,,,,,,,,,,,,,,,,,,2037.7218663201916,2037.8217464579939,jklfdjsa,001,2022_Mar_16_1451,test_typingtask_norepeats_20rep,2020.2.10,59.69212283283608,
buddy,buddy,,,,,,,,,,,,,0,16,16,3,,,,,,,,,,,,,,,,,,,,,,,2043.221373332999,None,None,0,2043.221373332999,None,,,jklfdjsa,001,2022_Mar_16_1451,test_typingtask_norepeats_20rep,2020.2.10,59.69212283283608,
buddy,buddy,,,,,,,,,,,,,0,16,16,3,,,,,,,,,,,,,,,,,,,,,,,,,,,,,2043.2222176122,2043.322136540999,jklfdjsa,001,2022_Mar_16_1451,test_typingtask_norepeats_20rep,2020.2.10,59.69212283283608,
edthe,edthe,,,,,,,,,,,,,0,17,17,37,,,,,,,,,,,,,,,,,,,,,,,2048.7218505409983,None,None,0,2048.7218505409983,None,,,jklfdjsa,001,2022_Mar_16_1451,test_typingtask_norepeats_20rep,2020.2.10,59.69212283283608,
edthe,edthe,,,,,,,,,,,,,0,17,17,37,,,,,,,,,,,,,,,,,,,,,,,,,,,,,2048.721913612199,2048.821888499995,jklfdjsa,001,2022_Mar_16_1451,test_typingtask_norepeats_20rep,2020.2.10,59.69212283283608,
kremp,kremp,,,,,,,,,,,,,0,18,18,69,,,,,,,,,,,,,,,,,,,,,,,2054.22124074999,None,None,0,2054.22124074999,None,,,jklfdjsa,001,2022_Mar_16_1451,test_typingtask_norepeats_20rep,2020.2.10,59.69212283283608,
kremp,kremp,,,,,,,,,,,,,0,18,18,69,,,,,,,,,,,,,,,,,,,,,,,,,,,,,2054.2218409451875,2054.3219116659893,jklfdjsa,001,2022_Mar_16_1451,test_typingtask_norepeats_20rep,2020.2.10,59.69212283283608,
theme,theme,,,,,,,,,,,,,0,19,19,62,,,,,,,,,,,,,,,,,,,,,,,2059.7220199579897,None,None,0,2059.7220199579897,None,,,jklfdjsa,001,2022_Mar_16_1451,test_typingtask_norepeats_20rep,2020.2.10,59.69212283283608,
theme,theme,,,,,,,,,,,,,0,19,19,62,,,,,,,,,,,,,,,,,,,,,,,,,,,,,2059.721748987197,2059.8216403749975,jklfdjsa,001,2022_Mar_16_1451,test_typingtask_norepeats_20rep,2020.2.10,59.69212283283608,
edthe,edthe,,,,,,,,,,,,,0,20,20,21,,,,,,,,,,,,,,,,,,,,,,,2065.2379292499973,None,None,0,2065.2379292499973,None,,,jklfdjsa,001,2022_Mar_16_1451,test_typingtask_norepeats_20rep,2020.2.10,59.69212283283608,
edthe,edthe,,,,,,,,,,,,,0,20,20,21,,,,,,,,,,,,,,,,,,,,,,,,,,,,,2065.2385399041946,2065.337897499994,jklfdjsa,001,2022_Mar_16_1451,test_typingtask_norepeats_20rep,2020.2.10,59.69212283283608,
edthe,edthe,,,,,,,,,,,,,0,21,21,79,,,,,,,,,,,,,,,,,,,,,,,2070.738343124991,None,None,0,2070.738343124991,None,,,jklfdjsa,001,2022_Mar_16_1451,test_typingtask_norepeats_20rep,2020.2.10,59.69212283283608,
edthe,edthe,,,,,,,,,,,,,0,21,21,79,,,,,,,,,,,,,,,,,,,,,,,,,,,,,2070.7385152791962,2070.838838999989,jklfdjsa,001,2022_Mar_16_1451,test_typingtask_norepeats_20rep,2020.2.10,59.69212283283608,
puppy,puppy,,,,,,,,,,,,,0,22,22,52,,,,,,,,,,,,,,,,,,,,,,,2076.2379376659956,None,None,0,2076.2379376659956,None,,,jklfdjsa,001,2022_Mar_16_1451,test_typingtask_norepeats_20rep,2020.2.10,59.69212283283608,
puppy,puppy,,,,,,,,,,,,,0,22,22,52,,,,,,,,,,,,,,,,,,,,,,,,,,,,,2076.238353654188,2076.3382574999996,jklfdjsa,001,2022_Mar_16_1451,test_typingtask_norepeats_20rep,2020.2.10,59.69212283283608,
tithe,tithe,,,,,,,,,,,,,0,23,23,71,,,,,,,,,,,,,,,,,,,,,,,2081.754435540992,None,None,0,2081.754435540992,None,,,jklfdjsa,001,2022_Mar_16_1451,test_typingtask_norepeats_20rep,2020.2.10,59.69212283283608,
tithe,tithe,,,,,,,,,,,,,0,23,23,71,,,,,,,,,,,,,,,,,,,,,,,,,,,,,2081.755012445194,2081.855366332995,jklfdjsa,001,2022_Mar_16_1451,test_typingtask_norepeats_20rep,2020.2.10,59.69212283283608,
vodka,vodka,,,,,,,,,,,,,0,24,24,86,,,,,,,,,,,,,,,,,,,,,,,2087.2547224579903,None,None,0,2087.2547224579903,None,,,jklfdjsa,001,2022_Mar_16_1451,test_typingtask_norepeats_20rep,2020.2.10,59.69212283283608,
vodka,vodka,,,,,,,,,,,,,0,24,24,86,,,,,,,,,,,,,,,,,,,,,,,,,,,,,2087.255083820199,2087.354851332988,jklfdjsa,001,2022_Mar_16_1451,test_typingtask_norepeats_20rep,2020.2.10,59.69212283283608,
think,think,,,,,,,,,,,,,0,25,25,115,,,,,,,,,,,,,,,,,,,,,,,2092.7542432079936,None,None,0,2092.7542432079936,None,,,jklfdjsa,001,2022_Mar_16_1451,test_typingtask_norepeats_20rep,2020.2.10,59.69212283283608,
think,think,,,,,,,,,,,,,0,25,25,115,,,,,,,,,,,,,,,,,,,,,,,,,,,,,2092.7541217371895,2092.8542877500004,jklfdjsa,001,2022_Mar_16_1451,test_typingtask_norepeats_20rep,2020.2.10,59.69212283283608,
therm,therm,,,,,,,,,,,,,0,26,26,61,,,,,,,,,,,,,,,,,,,,,,,2098.2547195410007,None,None,0,2098.2547195410007,None,,,jklfdjsa,001,2022_Mar_16_1451,test_typingtask_norepeats_20rep,2020.2.10,59.69212283283608,
therm,therm,,,,,,,,,,,,,0,26,26,61,,,,,,,,,,,,,,,,,,,,,,,,,,,,,2098.255201529201,2098.3551214999898,jklfdjsa,001,2022_Mar_16_1451,test_typingtask_norepeats_20rep,2020.2.10,59.69212283283608,
haole,haole,,,,,,,,,,,,,0,27,27,97,,,,,,,,,,,,,,,,,,,,,,,2103.7547192079946,None,None,0,2103.7547192079946,None,,,jklfdjsa,001,2022_Mar_16_1451,test_typingtask_norepeats_20rep,2020.2.10,59.69212283283608,
haole,haole,,,,,,,,,,,,,0,27,27,97,,,,,,,,,,,,,,,,,,,,,,,,,,,,,2103.7548489041933,2103.854906583001,jklfdjsa,001,2022_Mar_16_1451,test_typingtask_norepeats_20rep,2020.2.10,59.69212283283608,
puppy,puppy,,,,,,,,,,,,,0,28,28,99,,,,,,,,,,,,,,,,,,,,,,,2109.2543502079934,None,None,0,2109.2543502079934,None,,,jklfdjsa,001,2022_Mar_16_1451,test_typingtask_norepeats_20rep,2020.2.10,59.69212283283608,
puppy,puppy,,,,,,,,,,,,,0,28,28,99,,,,,,,,,,,,,,,,,,,,,,,,,,,,,2109.2550347372003,2109.354780124995,jklfdjsa,001,2022_Mar_16_1451,test_typingtask_norepeats_20rep,2020.2.10,59.69212283283608,
tithe,tithe,,,,,,,,,,,,,0,29,29,22,,,,,,,,,,,,,,,,,,,,,,,2114.754356833,None,None,0,2114.754356833,None,,,jklfdjsa,001,2022_Mar_16_1451,test_typingtask_norepeats_20rep,2020.2.10,59.69212283283608,
tithe,tithe,,,,,,,,,,,,,0,29,29,22,,,,,,,,,,,,,,,,,,,,,,,,,,,,,2114.754203029194,2114.8545677499933,jklfdjsa,001,2022_Mar_16_1451,test_typingtask_norepeats_20rep,2020.2.10,59.69212283283608,
theme,theme,,,,,,,,,,,,,0,30,30,41,,,,,,,,,,,,,,,,,,,,,,,2120.254251249993,None,None,0,2120.254251249993,None,,,jklfdjsa,001,2022_Mar_16_1451,test_typingtask_norepeats_20rep,2020.2.10,59.69212283283608,
theme,theme,,,,,,,,,,,,,0,30,30,41,,,,,,,,,,,,,,,,,,,,,,,,,,,,,2120.254585154193,2120.3546724999906,jklfdjsa,001,2022_Mar_16_1451,test_typingtask_norepeats_20rep,2020.2.10,59.69212283283608,
about,about,,,,,,,,,,,,,0,31,31,26,,,,,,,,,,,,,,,,,,,,,,,2125.754028457988,None,None,0,2125.754028457988,None,,,jklfdjsa,001,2022_Mar_16_1451,test_typingtask_norepeats_20rep,2020.2.10,59.69212283283608,
about,about,,,,,,,,,,,,,0,31,31,26,,,,,,,,,,,,,,,,,,,,,,,,,,,,,2125.7547000701875,2125.8550440830004,jklfdjsa,001,2022_Mar_16_1451,test_typingtask_norepeats_20rep,2020.2.10,59.69212283283608,
belly,belly,,,,,,,,,,,,,0,32,32,14,,,,,,,,,,,,,,,,,,,,,,,2131.254100332997,None,None,0,2131.254100332997,None,,,jklfdjsa,001,2022_Mar_16_1451,test_typingtask_norepeats_20rep,2020.2.10,59.69212283283608,
belly,belly,,,,,,,,,,,,,0,32,32,14,,,,,,,,,,,,,,,,,,,,,,,,,,,,,2131.2548278621966,2131.3546145,jklfdjsa,001,2022_Mar_16_1451,test_typingtask_norepeats_20rep,2020.2.10,59.69212283283608,
heond,heond,,,,,,,,,,,,,0,33,33,27,,,,,,,,,,,,,,,,,,,,,,,2136.754465291,None,None,0,2136.754465291,None,,,jklfdjsa,001,2022_Mar_16_1451,test_typingtask_norepeats_20rep,2020.2.10,59.69212283283608,
heond,heond,,,,,,,,,,,,,0,33,33,27,,,,,,,,,,,,,,,,,,,,,,,,,,,,,2136.754928195193,2136.854139374991,jklfdjsa,001,2022_Mar_16_1451,test_typingtask_norepeats_20rep,2020.2.10,59.69212283283608,
kremp,kremp,,,,,,,,,,,,,0,34,34,6,,,,,,,,,,,,,,,,,,,,,,,2142.2705570830003,None,None,0,2142.2705570830003,None,,,jklfdjsa,001,2022_Mar_16_1451,test_typingtask_norepeats_20rep,2020.2.10,59.69212283283608,
kremp,kremp,,,,,,,,,,,,,0,34,34,6,,,,,,,,,,,,,,,,,,,,,,,,,,,,,2142.271429279192,2142.371385665989,jklfdjsa,001,2022_Mar_16_1451,test_typingtask_norepeats_20rep,2020.2.10,59.69212283283608,
theme,theme,,,,,,,,,,,,,0,35,35,30,,,,,,,,,,,,,,,,,,,,,,,2147.7711183749925,None,None,0,2147.7711183749925,None,,,jklfdjsa,001,2022_Mar_16_1451,test_typingtask_norepeats_20rep,2020.2.10,59.69212283283608,
theme,theme,,,,,,,,,,,,,0,35,35,30,,,,,,,,,,,,,,,,,,,,,,,,,,,,,2147.7709644041884,2147.8714618749946,jklfdjsa,001,2022_Mar_16_1451,test_typingtask_norepeats_20rep,2020.2.10,59.69212283283608,
think,think,,,,,,,,,,,,,0,36,36,77,,,,,,,,,,,,,,,,,,,,,,,2153.2708486249903,None,None,0,2153.2708486249903,None,,,jklfdjsa,001,2022_Mar_16_1451,test_typingtask_norepeats_20rep,2020.2.10,59.69212283283608,
think,think,,,,,,,,,,,,,0,36,36,77,,,,,,,,,,,,,,,,,,,,,,,,,,,,,2153.2713763622,2153.3713271659944,jklfdjsa,001,2022_Mar_16_1451,test_typingtask_norepeats_20rep,2020.2.10,59.69212283283608,
therm,therm,,,,,,,,,,,,,0,37,37,9,,,,,,,,,,,,,,,,,,,,,,,2158.7707073749916,None,None,0,2158.7707073749916,None,,,jklfdjsa,001,2022_Mar_16_1451,test_typingtask_norepeats_20rep,2020.2.10,59.69212283283608,
therm,therm,,,,,,,,,,,,,0,37,37,9,,,,,,,,,,,,,,,,,,,,,,,,,,,,,2158.7707187371984,2158.871155874993,jklfdjsa,001,2022_Mar_16_1451,test_typingtask_norepeats_20rep,2020.2.10,59.69212283283608,
therm,therm,,,,,,,,,,,,,0,38,38,73,,,,,,,,,,,,,,,,,,,,,,,2164.2714907499903,None,None,0,2164.2714907499903,None,,,jklfdjsa,001,2022_Mar_16_1451,test_typingtask_norepeats_20rep,2020.2.10,59.69212283283608,
therm,therm,,,,,,,,,,,,,0,38,38,73,,,,,,,,,,,,,,,,,,,,,,,,,,,,,2164.270677737192,2164.371400666001,jklfdjsa,001,2022_Mar_16_1451,test_typingtask_norepeats_20rep,2020.2.10,59.69212283283608,
haole,haole,,,,,,,,,,,,,0,39,39,19,,,,,,,,,,,,,,,,,,,,,,,2169.770749874995,None,None,0,2169.770749874995,None,,,jklfdjsa,001,2022_Mar_16_1451,test_typingtask_norepeats_20rep,2020.2.10,59.69212283283608,
haole,haole,,,,,,,,,,,,,0,39,39,19,,,,,,,,,,,,,,,,,,,,,,,,,,,,,2169.771040487189,2169.8707153329888,jklfdjsa,001,2022_Mar_16_1451,test_typingtask_norepeats_20rep,2020.2.10,59.69212283283608,
therm,therm,,,,,,,,,,,,,0,40,40,111,,,,,,,,,,,,,,,,,,,,,,,2175.2699865829927,None,None,0,2175.2699865829927,None,,,jklfdjsa,001,2022_Mar_16_1451,test_typingtask_norepeats_20rep,2020.2.10,59.69212283283608,
therm,therm,,,,,,,,,,,,,0,40,40,111,,,,,,,,,,,,,,,,,,,,,,,,,,,,,2175.270639029199,2175.371154207998,jklfdjsa,001,2022_Mar_16_1451,test_typingtask_norepeats_20rep,2020.2.10,59.69212283283608,
pykka,pykka,,,,,,,,,,,,,0,41,41,32,,,,,,,,,,,,,,,,,,,,,,,2180.7707878329966,None,None,0,2180.7707878329966,None,,,jklfdjsa,001,2022_Mar_16_1451,test_typingtask_norepeats_20rep,2020.2.10,59.69212283283608,
pykka,pykka,,,,,,,,,,,,,0,41,41,32,,,,,,,,,,,,,,,,,,,,,,,,,,,,,2180.7708793201878,2180.871271625001,jklfdjsa,001,2022_Mar_16_1451,test_typingtask_norepeats_20rep,2020.2.10,59.69212283283608,
kremp,kremp,,,,,,,,,,,,,0,42,42,65,,,,,,,,,,,,,,,,,,,,,,,2186.2706275409873,None,None,0,2186.2706275409873,None,,,jklfdjsa,001,2022_Mar_16_1451,test_typingtask_norepeats_20rep,2020.2.10,59.69212283283608,
kremp,kremp,,,,,,,,,,,,,0,42,42,65,,,,,,,,,,,,,,,,,,,,,,,,,,,,,2186.2711744042012,2186.3710874579992,jklfdjsa,001,2022_Mar_16_1451,test_typingtask_norepeats_20rep,2020.2.10,59.69212283283608,
cheer,cheer,,,,,,,,,,,,,0,43,43,101,,,,,,,,,,,,,,,,,,,,,,,2191.770546582993,None,None,0,2191.770546582993,None,,,jklfdjsa,001,2022_Mar_16_1451,test_typingtask_norepeats_20rep,2020.2.10,59.69212283283608,
cheer,cheer,,,,,,,,,,,,,0,43,43,101,,,,,,,,,,,,,,,,,,,,,,,,,,,,,2191.771490320198,2191.8709978330007,jklfdjsa,001,2022_Mar_16_1451,test_typingtask_norepeats_20rep,2020.2.10,59.69212283283608,
faqir,faqir,,,,,,,,,,,,,0,44,44,31,,,,,,,,,,,,,,,,,,,,,,,2197.270640415998,None,None,0,2197.270640415998,None,,,jklfdjsa,001,2022_Mar_16_1451,test_typingtask_norepeats_20rep,2020.2.10,59.69212283283608,
faqir,faqir,,,,,,,,,,,,,0,44,44,31,,,,,,,,,,,,,,,,,,,,,,,,,,,,,2197.2710486541896,2197.370925540992,jklfdjsa,001,2022_Mar_16_1451,test_typingtask_norepeats_20rep,2020.2.10,59.69212283283608,
belly,belly,,,,,,,,,,,,,0,45,45,12,,,,,,,,,,,,,,,,,,,,,,,2202.770575415998,None,None,0,2202.770575415998,None,,,jklfdjsa,001,2022_Mar_16_1451,test_typingtask_norepeats_20rep,2020.2.10,59.69212283283608,
belly,belly,,,,,,,,,,,,,0,45,45,12,,,,,,,,,,,,,,,,,,,,,,,,,,,,,2202.7711846951993,2202.870924499992,jklfdjsa,001,2022_Mar_16_1451,test_typingtask_norepeats_20rep,2020.2.10,59.69212283283608,
belly,belly,,,,,,,,,,,,,0,46,46,83,,,,,,,,,,,,,,,,,,,,,,,2208.270902499993,None,None,0,2208.270902499993,None,,,jklfdjsa,001,2022_Mar_16_1451,test_typingtask_norepeats_20rep,2020.2.10,59.69212283283608,
belly,belly,,,,,,,,,,,,,0,46,46,83,,,,,,,,,,,,,,,,,,,,,,,,,,,,,2208.2710281541936,2208.371592832991,jklfdjsa,001,2022_Mar_16_1451,test_typingtask_norepeats_20rep,2020.2.10,59.69212283283608,
cooed,cooed,,,,,,,,,,,,,0,47,47,87,,,,,,,,,,,,,,,,,,,,,,,2213.770468124989,None,None,0,2213.770468124989,None,,,jklfdjsa,001,2022_Mar_16_1451,test_typingtask_norepeats_20rep,2020.2.10,59.69212283283608,
cooed,cooed,,,,,,,,,,,,,0,47,47,87,,,,,,,,,,,,,,,,,,,,,,,,,,,,,2213.771202654198,2213.870794290997,jklfdjsa,001,2022_Mar_16_1451,test_typingtask_norepeats_20rep,2020.2.10,59.69212283283608,
therm,therm,,,,,,,,,,,,,0,48,48,57,,,,,,,,,,,,,,,,,,,,,,,2219.270952665989,None,None,0,2219.270952665989,None,,,jklfdjsa,001,2022_Mar_16_1451,test_typingtask_norepeats_20rep,2020.2.10,59.69212283283608,
therm,therm,,,,,,,,,,,,,0,48,48,57,,,,,,,,,,,,,,,,,,,,,,,,,,,,,2219.270980487198,2219.370882832998,jklfdjsa,001,2022_Mar_16_1451,test_typingtask_norepeats_20rep,2020.2.10,59.69212283283608,
lucky,lucky,,,,,,,,,,,,,0,49,49,58,,,,,,,,,,,,,,,,,,,,,,,2224.770904165998,None,None,0,2224.770904165998,None,,,jklfdjsa,001,2022_Mar_16_1451,test_typingtask_norepeats_20rep,2020.2.10,59.69212283283608,
lucky,lucky,,,,,,,,,,,,,0,49,49,58,,,,,,,,,,,,,,,,,,,,,,,,,,,,,2224.770932029189,2224.8704357499955,jklfdjsa,001,2022_Mar_16_1451,test_typingtask_norepeats_20rep,2020.2.10,59.69212283283608,
vodka,vodka,,,,,,,,,,,,,0,50,50,106,,,,,,,,,,,,,,,,,,,,,,,2230.270477040991,None,None,0,2230.270477040991,None,,,jklfdjsa,001,2022_Mar_16_1451,test_typingtask_norepeats_20rep,2020.2.10,59.69212283283608,
vodka,vodka,,,,,,,,,,,,,0,50,50,106,,,,,,,,,,,,,,,,,,,,,,,,,,,,,2230.271066279193,2230.3708063749946,jklfdjsa,001,2022_Mar_16_1451,test_typingtask_norepeats_20rep,2020.2.10,59.69212283283608,
cheer,cheer,,,,,,,,,,,,,0,51,51,2,,,,,,,,,,,,,,,,,,,,,,,2235.771120665988,None,None,0,2235.771120665988,None,,,jklfdjsa,001,2022_Mar_16_1451,test_typingtask_norepeats_20rep,2020.2.10,59.69212283283608,
cheer,cheer,,,,,,,,,,,,,0,51,51,2,,,,,,,,,,,,,,,,,,,,,,,,,,,,,2235.7708596121943,2235.8709803749953,jklfdjsa,001,2022_Mar_16_1451,test_typingtask_norepeats_20rep,2020.2.10,59.69212283283608,
zibja,zibja,,,,,,,,,,,,,0,52,52,114,,,,,,,,,,,,,,,,,,,,,,,2241.2702557909943,None,None,0,2241.2702557909943,None,,,jklfdjsa,001,2022_Mar_16_1451,test_typingtask_norepeats_20rep,2020.2.10,59.69212283283608,
zibja,zibja,,,,,,,,,,,,,0,52,52,114,,,,,,,,,,,,,,,,,,,,,,,,,,,,,2241.270870237188,2241.3707990830007,jklfdjsa,001,2022_Mar_16_1451,test_typingtask_norepeats_20rep,2020.2.10,59.69212283283608,
isvar,isvar,,,,,,,,,,,,,0,53,53,5,,,,,,,,,,,,,,,,,,,,,,,2246.770467582988,None,None,0,2246.770467582988,None,,,jklfdjsa,001,2022_Mar_16_1451,test_typingtask_norepeats_20rep,2020.2.10,59.69212283283608,
isvar,isvar,,,,,,,,,,,,,0,53,53,5,,,,,,,,,,,,,,,,,,,,,,,,,,,,,2246.77067415419,2246.870893290994,jklfdjsa,001,2022_Mar_16_1451,test_typingtask_norepeats_20rep,2020.2.10,59.69212283283608,
would,would,,,,,,,,,,,,,0,54,54,93,,,,,,,,,,,,,,,,,,,,,,,2252.270228082998,None,None,0,2252.270228082998,None,,,jklfdjsa,001,2022_Mar_16_1451,test_typingtask_norepeats_20rep,2020.2.10,59.69212283283608,
would,would,,,,,,,,,,,,,0,54,54,93,,,,,,,,,,,,,,,,,,,,,,,,,,,,,2252.2704658621938,2252.370892291001,jklfdjsa,001,2022_Mar_16_1451,test_typingtask_norepeats_20rep,2020.2.10,59.69212283283608,
think,think,,,,,,,,,,,,,0,55,55,88,,,,,,,,,,,,,,,,,,,,,,,2257.7705926659983,None,None,0,2257.7705926659983,None,,,jklfdjsa,001,2022_Mar_16_1451,test_typingtask_norepeats_20rep,2020.2.10,59.69212283283608,
think,think,,,,,,,,,,,,,0,55,55,88,,,,,,,,,,,,,,,,,,,,,,,,,,,,,2257.7708998201983,2257.870345915988,jklfdjsa,001,2022_Mar_16_1451,test_typingtask_norepeats_20rep,2020.2.10,59.69212283283608,
edthe,edthe,,,,,,,,,,,,,0,56,56,104,,,,,,,,,,,,,,,,,,,,,,,2263.2704776249884,None,None,0,2263.2704776249884,None,,,jklfdjsa,001,2022_Mar_16_1451,test_typingtask_norepeats_20rep,2020.2.10,59.69212283283608,
edthe,edthe,,,,,,,,,,,,,0,56,56,104,,,,,,,,,,,,,,,,,,,,,,,,,,,,,2263.2707639871937,2263.3702811659896,jklfdjsa,001,2022_Mar_16_1451,test_typingtask_norepeats_20rep,2020.2.10,59.69212283283608,
there,there,,,,,,,,,,,,,0,57,57,76,,,,,,,,,,,,,,,,,,,,,,,2268.7859222080006,None,None,0,2268.7859222080006,None,,,jklfdjsa,001,2022_Mar_16_1451,test_typingtask_norepeats_20rep,2020.2.10,59.69212283283608,
there,there,,,,,,,,,,,,,0,57,57,76,,,,,,,,,,,,,,,,,,,,,,,,,,,,,2268.7875973202013,2268.8873744159937,jklfdjsa,001,2022_Mar_16_1451,test_typingtask_norepeats_20rep,2020.2.10,59.69212283283608,
vodka,vodka,,,,,,,,,,,,,0,58,58,42,,,,,,,,,,,,,,,,,,,,,,,2274.286790540995,None,None,0,2274.286790540995,None,,,jklfdjsa,001,2022_Mar_16_1451,test_typingtask_norepeats_20rep,2020.2.10,59.69212283283608,
vodka,vodka,,,,,,,,,,,,,0,58,58,42,,,,,,,,,,,,,,,,,,,,,,,,,,,,,2274.287343779199,2274.387355874991,jklfdjsa,001,2022_Mar_16_1451,test_typingtask_norepeats_20rep,2020.2.10,59.69212283283608,
faqir,faqir,,,,,,,,,,,,,0,59,59,50,,,,,,,,,,,,,,,,,,,,,,,2279.8034040829953,None,None,0,2279.8034040829953,None,,,jklfdjsa,001,2022_Mar_16_1451,test_typingtask_norepeats_20rep,2020.2.10,59.69212283283608,
faqir,faqir,,,,,,,,,,,,,0,59,59,50,,,,,,,,,,,,,,,,,,,,,,,,,,,,,2279.803632529189,2279.90376570799,jklfdjsa,001,2022_Mar_16_1451,test_typingtask_norepeats_20rep,2020.2.10,59.69212283283608,
cooed,cooed,,,,,,,,,,,,,0,60,60,53,,,,,,,,,,,,,,,,,,,,,,,2285.286693874994,None,None,0,2285.286693874994,None,,,jklfdjsa,001,2022_Mar_16_1451,test_typingtask_norepeats_20rep,2020.2.10,59.69212283283608,
cooed,cooed,,,,,,,,,,,,,0,60,60,53,,,,,,,,,,,,,,,,,,,,,,,,,,,,,2285.287168612193,2285.3860989999957,jklfdjsa,001,2022_Mar_16_1451,test_typingtask_norepeats_20rep,2020.2.10,59.69212283283608,
pykka,pykka,,,,,,,,,,,,,0,61,61,96,,,,,,,,,,,,,,,,,,,,,,,2290.786760207993,None,None,0,2290.786760207993,None,,,jklfdjsa,001,2022_Mar_16_1451,test_typingtask_norepeats_20rep,2020.2.10,59.69212283283608,
pykka,pykka,,,,,,,,,,,,,0,61,61,96,,,,,,,,,,,,,,,,,,,,,,,,,,,,,2290.7873030291944,2290.886734249987,jklfdjsa,001,2022_Mar_16_1451,test_typingtask_norepeats_20rep,2020.2.10,59.69212283283608,
haole,haole,,,,,,,,,,,,,0,62,62,66,,,,,,,,,,,,,,,,,,,,,,,2296.287469666,None,None,0,2296.287469666,None,,,jklfdjsa,001,2022_Mar_16_1451,test_typingtask_norepeats_20rep,2020.2.10,59.69212283283608,
haole,haole,,,,,,,,,,,,,0,62,62,66,,,,,,,,,,,,,,,,,,,,,,,,,,,,,2296.2872399452012,2296.3858749999927,jklfdjsa,001,2022_Mar_16_1451,test_typingtask_norepeats_20rep,2020.2.10,59.69212283283608,
druze,druze,,,,,,,,,,,,,0,63,63,34,,,,,,,,,,,,,,,,,,,,,,,2301.786585624999,None,None,0,2301.786585624999,None,,,jklfdjsa,001,2022_Mar_16_1451,test_typingtask_norepeats_20rep,2020.2.10,59.69212283283608,
druze,druze,,,,,,,,,,,,,0,63,63,34,,,,,,,,,,,,,,,,,,,,,,,,,,,,,2301.787042612194,2301.8867311249924,jklfdjsa,001,2022_Mar_16_1451,test_typingtask_norepeats_20rep,2020.2.10,59.69212283283608,
vodka,vodka,,,,,,,,,,,,,0,64,64,75,,,,,,,,,,,,,,,,,,,,,,,2307.286448832994,None,None,0,2307.286448832994,None,,,jklfdjsa,001,2022_Mar_16_1451,test_typingtask_norepeats_20rep,2020.2.10,59.69212283283608,
vodka,vodka,,,,,,,,,,,,,0,64,64,75,,,,,,,,,,,,,,,,,,,,,,,,,,,,,2307.2866803622005,2307.3866586660006,jklfdjsa,001,2022_Mar_16_1451,test_typingtask_norepeats_20rep,2020.2.10,59.69212283283608,
theme,theme,,,,,,,,,,,,,0,65,65,64,,,,,,,,,,,,,,,,,,,,,,,2312.7867936659895,None,None,0,2312.7867936659895,None,,,jklfdjsa,001,2022_Mar_16_1451,test_typingtask_norepeats_20rep,2020.2.10,59.69212283283608,
theme,theme,,,,,,,,,,,,,0,65,65,64,,,,,,,,,,,,,,,,,,,,,,,,,,,,,2312.7872656951936,2312.8859877499926,jklfdjsa,001,2022_Mar_16_1451,test_typingtask_norepeats_20rep,2020.2.10,59.69212283283608,
puppy,puppy,,,,,,,,,,,,,0,66,66,0,,,,,,,,,,,,,,,,,,,,,,,2318.2867491249926,None,None,0,2318.2867491249926,None,,,jklfdjsa,001,2022_Mar_16_1451,test_typingtask_norepeats_20rep,2020.2.10,59.69212283283608,
puppy,puppy,,,,,,,,,,,,,0,66,66,0,,,,,,,,,,,,,,,,,,,,,,,,,,,,,2318.2866638201945,2318.38722679099,jklfdjsa,001,2022_Mar_16_1451,test_typingtask_norepeats_20rep,2020.2.10,59.69212283283608,
zibja,zibja,,,,,,,,,,,,,0,67,67,43,,,,,,,,,,,,,,,,,,,,,,,2323.7872542080004,None,None,0,2323.7872542080004,None,,,jklfdjsa,001,2022_Mar_16_1451,test_typingtask_norepeats_20rep,2020.2.10,59.69212283283608,
zibja,zibja,,,,,,,,,,,,,0,67,67,43,,,,,,,,,,,,,,,,,,,,,,,,,,,,,2323.786808154195,2323.886455874992,jklfdjsa,001,2022_Mar_16_1451,test_typingtask_norepeats_20rep,2020.2.10,59.69212283283608,
buddy,buddy,,,,,,,,,,,,,0,68,68,1,,,,,,,,,,,,,,,,,,,,,,,2329.286556832987,None,None,0,2329.286556832987,None,,,jklfdjsa,001,2022_Mar_16_1451,test_typingtask_norepeats_20rep,2020.2.10,59.69212283283608,
buddy,buddy,,,,,,,,,,,,,0,68,68,1,,,,,,,,,,,,,,,,,,,,,,,,,,,,,2329.2860121121907,2329.3867698749964,jklfdjsa,001,2022_Mar_16_1451,test_typingtask_norepeats_20rep,2020.2.10,59.69212283283608,
kremp,kremp,,,,,,,,,,,,,0,69,69,25,,,,,,,,,,,,,,,,,,,,,,,2334.7864279579953,None,None,0,2334.7864279579953,None,,,jklfdjsa,001,2022_Mar_16_1451,test_typingtask_norepeats_20rep,2020.2.10,59.69212283283608,
kremp,kremp,,,,,,,,,,,,,0,69,69,25,,,,,,,,,,,,,,,,,,,,,,,,,,,,,2334.7866454041928,2334.887251082997,jklfdjsa,001,2022_Mar_16_1451,test_typingtask_norepeats_20rep,2020.2.10,59.69212283283608,
about,about,,,,,,,,,,,,,0,70,70,68,,,,,,,,,,,,,,,,,,,,,,,2340.3031260829885,None,None,0,2340.3031260829885,None,,,jklfdjsa,001,2022_Mar_16_1451,test_typingtask_norepeats_20rep,2020.2.10,59.69212283283608,
about,about,,,,,,,,,,,,,0,70,70,68,,,,,,,,,,,,,,,,,,,,,,,,,,,,,2340.3036962791944,2340.403386165999,jklfdjsa,001,2022_Mar_16_1451,test_typingtask_norepeats_20rep,2020.2.10,59.69212283283608,
cooed,cooed,,,,,,,,,,,,,0,71,71,74,,,,,,,,,,,,,,,,,,,,,,,2345.8026366659906,None,None,0,2345.8026366659906,None,,,jklfdjsa,001,2022_Mar_16_1451,test_typingtask_norepeats_20rep,2020.2.10,59.69212283283608,
cooed,cooed,,,,,,,,,,,,,0,71,71,74,,,,,,,,,,,,,,,,,,,,,,,,,,,,,2345.803535487196,2345.903752457991,jklfdjsa,001,2022_Mar_16_1451,test_typingtask_norepeats_20rep,2020.2.10,59.69212283283608,
zibja,zibja,,,,,,,,,,,,,0,72,72,102,,,,,,,,,,,,,,,,,,,,,,,2351.303723541001,None,None,0,2351.303723541001,None,,,jklfdjsa,001,2022_Mar_16_1451,test_typingtask_norepeats_20rep,2020.2.10,59.69212283283608,
zibja,zibja,,,,,,,,,,,,,0,72,72,102,,,,,,,,,,,,,,,,,,,,,,,,,,,,,2351.3037701121925,2351.4036087909917,jklfdjsa,001,2022_Mar_16_1451,test_typingtask_norepeats_20rep,2020.2.10,59.69212283283608,
would,would,,,,,,,,,,,,,0,73,73,63,,,,,,,,,,,,,,,,,,,,,,,2356.803001957989,None,None,0,2356.803001957989,None,,,jklfdjsa,001,2022_Mar_16_1451,test_typingtask_norepeats_20rep,2020.2.10,59.69212283283608,
would,would,,,,,,,,,,,,,0,73,73,63,,,,,,,,,,,,,,,,,,,,,,,,,,,,,2356.8038413621966,2356.903194915998,jklfdjsa,001,2022_Mar_16_1451,test_typingtask_norepeats_20rep,2020.2.10,59.69212283283608,
haole,haole,,,,,,,,,,,,,0,74,74,117,,,,,,,,,,,,,,,,,,,,,,,2362.3192519579898,None,None,0,2362.3192519579898,None,,,jklfdjsa,001,2022_Mar_16_1451,test_typingtask_norepeats_20rep,2020.2.10,59.69212283283608,
haole,haole,,,,,,,,,,,,,0,74,74,117,,,,,,,,,,,,,,,,,,,,,,,,,,,,,2362.3206177792003,2362.420550374998,jklfdjsa,001,2022_Mar_16_1451,test_typingtask_norepeats_20rep,2020.2.10,59.69212283283608,
faqir,faqir,,,,,,,,,,,,,0,75,75,116,,,,,,,,,,,,,,,,,,,,,,,2367.8199935829907,None,None,0,2367.8199935829907,None,,,jklfdjsa,001,2022_Mar_16_1451,test_typingtask_norepeats_20rep,2020.2.10,59.69212283283608,
faqir,faqir,,,,,,,,,,,,,0,75,75,116,,,,,,,,,,,,,,,,,,,,,,,,,,,,,2367.8198806951973,2367.9202751249977,jklfdjsa,001,2022_Mar_16_1451,test_typingtask_norepeats_20rep,2020.2.10,59.69212283283608,
puppy,puppy,,,,,,,,,,,,,0,76,76,16,,,,,,,,,,,,,,,,,,,,,,,2373.3188258750015,None,None,0,2373.3188258750015,None,,,jklfdjsa,001,2022_Mar_16_1451,test_typingtask_norepeats_20rep,2020.2.10,59.69212283283608,
puppy,puppy,,,,,,,,,,,,,0,76,76,16,,,,,,,,,,,,,,,,,,,,,,,,,,,,,2373.3202749871984,2373.419875540989,jklfdjsa,001,2022_Mar_16_1451,test_typingtask_norepeats_20rep,2020.2.10,59.69212283283608,
cheer,cheer,,,,,,,,,,,,,0,77,77,67,,,,,,,,,,,,,,,,,,,,,,,2378.8364361249987,None,None,0,2378.8364361249987,None,,,jklfdjsa,001,2022_Mar_16_1451,test_typingtask_norepeats_20rep,2020.2.10,59.69212283283608,
cheer,cheer,,,,,,,,,,,,,0,77,77,67,,,,,,,,,,,,,,,,,,,,,,,,,,,,,2378.8368610702005,2378.9366316249943,jklfdjsa,001,2022_Mar_16_1451,test_typingtask_norepeats_20rep,2020.2.10,59.69212283283608,
cooed,cooed,,,,,,,,,,,,,0,78,78,8,,,,,,,,,,,,,,,,,,,,,,,2384.3361689159938,None,None,0,2384.3361689159938,None,,,jklfdjsa,001,2022_Mar_16_1451,test_typingtask_norepeats_20rep,2020.2.10,59.69212283283608,
cooed,cooed,,,,,,,,,,,,,0,78,78,8,,,,,,,,,,,,,,,,,,,,,,,,,,,,,2384.336624987189,2384.4367869159905,jklfdjsa,001,2022_Mar_16_1451,test_typingtask_norepeats_20rep,2020.2.10,59.69212283283608,
there,there,,,,,,,,,,,,,0,79,79,92,,,,,,,,,,,,,,,,,,,,,,,2389.8363414159976,None,None,0,2389.8363414159976,None,,,jklfdjsa,001,2022_Mar_16_1451,test_typingtask_norepeats_20rep,2020.2.10,59.69212283283608,
there,there,,,,,,,,,,,,,0,79,79,92,,,,,,,,,,,,,,,,,,,,,,,,,,,,,2389.836803487195,2389.937071249995,jklfdjsa,001,2022_Mar_16_1451,test_typingtask_norepeats_20rep,2020.2.10,59.69212283283608,
there,there,,,,,,,,,,,,,0,80,80,23,,,,,,,,,,,,,,,,,,,,,,,2395.3535866249877,None,None,0,2395.3535866249877,None,,,jklfdjsa,001,2022_Mar_16_1451,test_typingtask_norepeats_20rep,2020.2.10,59.69212283283608,
there,there,,,,,,,,,,,,,0,80,80,23,,,,,,,,,,,,,,,,,,,,,,,,,,,,,2395.3535378621877,None,jklfdjsa,001,2022_Mar_16_1451,test_typingtask_norepeats_20rep,2020.2.10,59.69212283283608,
puppy,puppy,,,,,,,,,,,,,0,81,81,107,,,,,,,,,,,,,,,,,,,,,,,2400.8534374579904,None,None,0,2400.8534374579904,None,,,jklfdjsa,001,2022_Mar_16_1451,test_typingtask_norepeats_20rep,2020.2.10,59.69212283283608,
puppy,puppy,,,,,,,,,,,,,0,81,81,107,,,,,,,,,,,,,,,,,,,,,,,,,,,,,2400.853428862202,2400.9534867499897,jklfdjsa,001,2022_Mar_16_1451,test_typingtask_norepeats_20rep,2020.2.10,59.69212283283608,
would,would,,,,,,,,,,,,,0,82,82,48,,,,,,,,,,,,,,,,,,,,,,,2406.3529789999884,None,None,0,2406.3529789999884,None,,,jklfdjsa,001,2022_Mar_16_1451,test_typingtask_norepeats_20rep,2020.2.10,59.69212283283608,
would,would,,,,,,,,,,,,,0,82,82,48,,,,,,,,,,,,,,,,,,,,,,,,,,,,,2406.3528196542015,2406.4532294999954,jklfdjsa,001,2022_Mar_16_1451,test_typingtask_norepeats_20rep,2020.2.10,59.69212283283608,
cheer,cheer,,,,,,,,,,,,,0,83,83,10,,,,,,,,,,,,,,,,,,,,,,,2411.8534581249987,None,None,0,2411.8534581249987,None,,,jklfdjsa,001,2022_Mar_16_1451,test_typingtask_norepeats_20rep,2020.2.10,59.69212283283608,
cheer,cheer,,,,,,,,,,,,,0,83,83,10,,,,,,,,,,,,,,,,,,,,,,,,,,,,,2411.8529597791917,2411.953148707995,jklfdjsa,001,2022_Mar_16_1451,test_typingtask_norepeats_20rep,2020.2.10,59.69212283283608,
isvar,isvar,,,,,,,,,,,,,0,84,84,38,,,,,,,,,,,,,,,,,,,,,,,2417.353255707989,None,None,0,2417.353255707989,None,,,jklfdjsa,001,2022_Mar_16_1451,test_typingtask_norepeats_20rep,2020.2.10,59.69212283283608,
isvar,isvar,,,,,,,,,,,,,0,84,84,38,,,,,,,,,,,,,,,,,,,,,,,,,,,,,2417.353184112201,2417.453248291,jklfdjsa,001,2022_Mar_16_1451,test_typingtask_norepeats_20rep,2020.2.10,59.69212283283608,
heond,heond,,,,,,,,,,,,,0,85,85,80,,,,,,,,,,,,,,,,,,,,,,,2422.8535221249913,None,None,0,2422.8535221249913,None,,,jklfdjsa,001,2022_Mar_16_1451,test_typingtask_norepeats_20rep,2020.2.10,59.69212283283608,
heond,heond,,,,,,,,,,,,,0,85,85,80,,,,,,,,,,,,,,,,,,,,,,,,,,,,,2422.8533901121978,2422.95345383299,jklfdjsa,001,2022_Mar_16_1451,test_typingtask_norepeats_20rep,2020.2.10,59.69212283283608,
haole,haole,,,,,,,,,,,,,0,86,86,39,,,,,,,,,,,,,,,,,,,,,,,2428.3516910409962,None,None,0,2428.3516910409962,None,,,jklfdjsa,001,2022_Mar_16_1451,test_typingtask_norepeats_20rep,2020.2.10,59.69212283283608,
haole,haole,,,,,,,,,,,,,0,86,86,39,,,,,,,,,,,,,,,,,,,,,,,,,,,,,2428.35362944519,2428.453081582993,jklfdjsa,001,2022_Mar_16_1451,test_typingtask_norepeats_20rep,2020.2.10,59.69212283283608,
kremp,kremp,,,,,,,,,,,,,0,87,87,55,,,,,,,,,,,,,,,,,,,,,,,2433.852358332995,None,None,0,2433.852358332995,None,,,jklfdjsa,001,2022_Mar_16_1451,test_typingtask_norepeats_20rep,2020.2.10,59.69212283283608,
kremp,kremp,,,,,,,,,,,,,0,87,87,55,,,,,,,,,,,,,,,,,,,,,,,,,,,,,2433.8535116541884,2433.9532678749965,jklfdjsa,001,2022_Mar_16_1451,test_typingtask_norepeats_20rep,2020.2.10,59.69212283283608,
pykka,pykka,,,,,,,,,,,,,0,88,88,24,,,,,,,,,,,,,,,,,,,,,,,2439.352343999999,None,None,0,2439.352343999999,None,,,jklfdjsa,001,2022_Mar_16_1451,test_typingtask_norepeats_20rep,2020.2.10,59.69212283283608,
pykka,pykka,,,,,,,,,,,,,0,88,88,24,,,,,,,,,,,,,,,,,,,,,,,,,,,,,2439.3530446541977,2439.4526954579924,jklfdjsa,001,2022_Mar_16_1451,test_typingtask_norepeats_20rep,2020.2.10,59.69212283283608,
think,think,,,,,,,,,,,,,0,89,89,91,,,,,,,,,,,,,,,,,,,,,,,2444.852377999996,None,None,0,2444.852377999996,None,,,jklfdjsa,001,2022_Mar_16_1451,test_typingtask_norepeats_20rep,2020.2.10,59.69212283283608,
think,think,,,,,,,,,,,,,0,89,89,91,,,,,,,,,,,,,,,,,,,,,,,,,,,,,2444.8530221121896,2444.953108582995,jklfdjsa,001,2022_Mar_16_1451,test_typingtask_norepeats_20rep,2020.2.10,59.69212283283608,
champ,champ,,,,,,,,,,,,,0,90,90,112,,,,,,,,,,,,,,,,,,,,,,,2450.3527862499905,None,None,0,2450.3527862499905,None,,,jklfdjsa,001,2022_Mar_16_1451,test_typingtask_norepeats_20rep,2020.2.10,59.69212283283608,
champ,champ,,,,,,,,,,,,,0,90,90,112,,,,,,,,,,,,,,,,,,,,,,,,,,,,,2450.3531676541884,2450.4528424159944,jklfdjsa,001,2022_Mar_16_1451,test_typingtask_norepeats_20rep,2020.2.10,59.69212283283608,
faqir,faqir,,,,,,,,,,,,,0,91,91,29,,,,,,,,,,,,,,,,,,,,,,,2455.852750165999,None,None,0,2455.852750165999,None,,,jklfdjsa,001,2022_Mar_16_1451,test_typingtask_norepeats_20rep,2020.2.10,59.69212283283608,
faqir,faqir,,,,,,,,,,,,,0,91,91,29,,,,,,,,,,,,,,,,,,,,,,,,,,,,,2455.8531176951933,2455.9531847499893,jklfdjsa,001,2022_Mar_16_1451,test_typingtask_norepeats_20rep,2020.2.10,59.69212283283608,
belly,belly,,,,,,,,,,,,,0,92,92,20,,,,,,,,,,,,,,,,,,,,,,,2461.352511249992,None,None,0,2461.352511249992,None,,,jklfdjsa,001,2022_Mar_16_1451,test_typingtask_norepeats_20rep,2020.2.10,59.69212283283608,
belly,belly,,,,,,,,,,,,,0,92,92,20,,,,,,,,,,,,,,,,,,,,,,,,,,,,,2461.3526635291914,2461.4527131659997,jklfdjsa,001,2022_Mar_16_1451,test_typingtask_norepeats_20rep,2020.2.10,59.69212283283608,
buddy,buddy,,,,,,,,,,,,,0,93,93,35,,,,,,,,,,,,,,,,,,,,,,,2466.8522380409995,None,None,0,2466.8522380409995,None,,,jklfdjsa,001,2022_Mar_16_1451,test_typingtask_norepeats_20rep,2020.2.10,59.69212283283608,
buddy,buddy,,,,,,,,,,,,,0,93,93,35,,,,,,,,,,,,,,,,,,,,,,,,,,,,,2466.8530070291877,2466.952777790997,jklfdjsa,001,2022_Mar_16_1451,test_typingtask_norepeats_20rep,2020.2.10,59.69212283283608,
druze,druze,,,,,,,,,,,,,0,94,94,118,,,,,,,,,,,,,,,,,,,,,,,2472.3516619579896,None,None,0,2472.3516619579896,None,,,jklfdjsa,001,2022_Mar_16_1451,test_typingtask_norepeats_20rep,2020.2.10,59.69212283283608,
druze,druze,,,,,,,,,,,,,0,94,94,118,,,,,,,,,,,,,,,,,,,,,,,,,,,,,2472.3526899871927,2472.4527751659916,jklfdjsa,001,2022_Mar_16_1451,test_typingtask_norepeats_20rep,2020.2.10,59.69212283283608,
tithe,tithe,,,,,,,,,,,,,0,95,95,113,,,,,,,,,,,,,,,,,,,,,,,2477.85198308299,None,None,0,2477.85198308299,None,,,jklfdjsa,001,2022_Mar_16_1451,test_typingtask_norepeats_20rep,2020.2.10,59.69212283283608,
tithe,tithe,,,,,,,,,,,,,0,95,95,113,,,,,,,,,,,,,,,,,,,,,,,,,,,,,2477.8526101951998,2477.952748874988,jklfdjsa,001,2022_Mar_16_1451,test_typingtask_norepeats_20rep,2020.2.10,59.69212283283608,
vodka,vodka,,,,,,,,,,,,,0,96,96,49,,,,,,,,,,,,,,,,,,,,,,,2483.3524703329895,None,None,0,2483.3524703329895,None,,,jklfdjsa,001,2022_Mar_16_1451,test_typingtask_norepeats_20rep,2020.2.10,59.69212283283608,
vodka,vodka,,,,,,,,,,,,,0,96,96,49,,,,,,,,,,,,,,,,,,,,,,,,,,,,,2483.3531064041877,2483.453055416001,jklfdjsa,001,2022_Mar_16_1451,test_typingtask_norepeats_20rep,2020.2.10,59.69212283283608,
isvar,isvar,,,,,,,,,,,,,0,97,97,103,,,,,,,,,,,,,,,,,,,,,,,2488.852562749991,None,None,0,2488.852562749991,None,,,jklfdjsa,001,2022_Mar_16_1451,test_typingtask_norepeats_20rep,2020.2.10,59.69212283283608,
isvar,isvar,,,,,,,,,,,,,0,97,97,103,,,,,,,,,,,,,,,,,,,,,,,,,,,,,2488.85308857019,2488.952648374994,jklfdjsa,001,2022_Mar_16_1451,test_typingtask_norepeats_20rep,2020.2.10,59.69212283283608,
would,would,,,,,,,,,,,,,0,98,98,56,,,,,,,,,,,,,,,,,,,,,,,2494.352557582999,None,None,0,2494.352557582999,None,,,jklfdjsa,001,2022_Mar_16_1451,test_typingtask_norepeats_20rep,2020.2.10,59.69212283283608,
would,would,,,,,,,,,,,,,0,98,98,56,,,,,,,,,,,,,,,,,,,,,,,,,,,,,2494.352881320198,2494.45283699999,jklfdjsa,001,2022_Mar_16_1451,test_typingtask_norepeats_20rep,2020.2.10,59.69212283283608,
about,about,,,,,,,,,,,,,0,99,99,51,,,,,,,,,,,,,,,,,,,,,,,2499.852382332989,None,None,0,2499.852382332989,None,,,jklfdjsa,001,2022_Mar_16_1451,test_typingtask_norepeats_20rep,2020.2.10,59.69212283283608,
about,about,,,,,,,,,,,,,0,99,99,51,,,,,,,,,,,,,,,,,,,,,,,,,,,,,2499.852545404194,2499.9527858329966,jklfdjsa,001,2022_Mar_16_1451,test_typingtask_norepeats_20rep,2020.2.10,59.69212283283608,
faqir,faqir,,,,,,,,,,,,,0,100,100,109,,,,,,,,,,,,,,,,,,,,,,,2505.3515859999898,None,None,0,2505.3515859999898,None,,,jklfdjsa,001,2022_Mar_16_1451,test_typingtask_norepeats_20rep,2020.2.10,59.69212283283608,
faqir,faqir,,,,,,,,,,,,,0,100,100,109,,,,,,,,,,,,,,,,,,,,,,,,,,,,,2505.3524471121914,2505.4527894159983,jklfdjsa,001,2022_Mar_16_1451,test_typingtask_norepeats_20rep,2020.2.10,59.69212283283608,
buddy,buddy,,,,,,,,,,,,,0,101,101,72,,,,,,,,,,,,,,,,,,,,,,,2510.852635749994,None,None,0,2510.852635749994,None,,,jklfdjsa,001,2022_Mar_16_1451,test_typingtask_norepeats_20rep,2020.2.10,59.69212283283608,
buddy,buddy,,,,,,,,,,,,,0,101,101,72,,,,,,,,,,,,,,,,,,,,,,,,,,,,,2510.8528161121926,2510.9525068749936,jklfdjsa,001,2022_Mar_16_1451,test_typingtask_norepeats_20rep,2020.2.10,59.69212283283608,
