string,corrAns,practice_trials.thisRepN,practice_trials.thisTrialN,practice_trials.thisN,practice_trials.thisIndex,trials_1.thisRepN,trials_1.thisTrialN,trials_1.thisN,trials_1.thisIndex,trials_2.thisRepN,trials_2.thisTrialN,trials_2.thisN,trials_2.thisIndex,key_resp_0.keys,key_resp_0.corr,key_resp_0.rt,sound_2.started,sound_2.stopped,text_1.started,text_1.stopped,key_resp_1.keys,key_resp_1.corr,key_resp_1.rt,key_resp_1.started,key_resp_1.stopped,sound_1A_1.started,sound_1A_1.stopped,break_time.started,break_time.stopped,text_2.started,text_2.stopped,key_resp_2.keys,key_resp_2.corr,key_resp_2.rt,key_resp_2.started,key_resp_2.stopped,sound_1A_2.started,sound_1A_2.stopped,participant,session,date,expName,psychopyVersion,frameRate,
fresh,fresh,0,0,0,0,,,,,,,,,"['f', 'r', 'e', 's', 'h']",1,"[2.1044279060001827, 2.1685239809999075, 2.2884554759998537, 2.4804345309999007, 2.5365593860001354]",,,,,,,,,,,,,,,,,,,,,,,p08_marygach_08022022,001,2022_Aug_02_1412,test_typingtask_norepeats,2020.2.10,61.11728820136492,
dream,dream,0,1,1,1,,,,,,,,,"['d', 'r', 'e', 'a', 'm', 'n']",0,"[1.037425950999932, 1.149438760999601, 1.3093590949997633, 1.4614609010000095, 1.6694683829996393, 1.6774281039997732]",,,,,,,,,,,,,,,,,,,,,,,p08_marygach_08022022,001,2022_Aug_02_1412,test_typingtask_norepeats,2020.2.10,61.11728820136492,
slime,slime,0,2,2,2,,,,,,,,,"['s', 'l', 'i', 'm', 'e']",1,"[0.9457043540000996, 1.057756287000302, 1.2576760270003433, 1.3857094840000173, 1.4656474180001169]",,,,,,,,,,,,,,,,,,,,,,,p08_marygach_08022022,001,2022_Aug_02_1412,test_typingtask_norepeats,2020.2.10,61.11728820136492,
heond,heond,,,,,0,0,0,0,,,,,,,,281.4484926564999,None,282.437189538,None,"['h', 'e', 'o', 'n', 'd']",1,"[1.5315019080003367, 1.6275506020001558, 1.747579644000325, 1.8755382800000007, 2.067551724000168]",282.437189538,None,282.4323310544999,282.53210578599965,,,,,,,,,,,,p08_marygach_08022022,001,2022_Aug_02_1412,test_typingtask_norepeats,2020.2.10,61.11728820136492,
therm,therm,,,,,0,1,1,1,,,,,,,,,,287.9495902269996,None,"['t', 'h', 'e', 'r', 'm']",1,"[0.9551774039996417, 1.1471669769998698, 1.2271348739996029, 1.411127667999608, 1.4910626169998977]",287.9495902269996,None,287.9493656544999,288.0493560109999,,,,,,,,,,,,p08_marygach_08022022,001,2022_Aug_02_1412,test_typingtask_norepeats,2020.2.10,61.11728820136492,
druze,druze,,,,,0,2,2,2,,,,,,,,,,293.44905737399995,None,"['d', 'r', 'u', 'z', 'e']",1,"[0.8716676369999732, 1.1116507570000067, 1.2797362559999783, 1.775604105000184, 2.0157047940001576]",293.44905737399995,None,293.44862285749997,293.54838884599985,,,,,,,,,,,,p08_marygach_08022022,001,2022_Aug_02_1412,test_typingtask_norepeats,2020.2.10,61.11728820136492,
puppy,puppy,,,,,0,3,3,3,,,,,,,,,,298.9487115559996,None,"['o', 'u', 'p', 'p', 'y']",0,"[1.0759430890002477, 1.8919517780000206, 2.1399693930002286, 2.2919504740002594, 2.540069219000088]",298.9487115559996,None,298.94878090649974,299.04848004099995,,,,,,,,,,,,p08_marygach_08022022,001,2022_Aug_02_1412,test_typingtask_norepeats,2020.2.10,61.11728820136492,
pykka,pykka,,,,,0,4,4,4,,,,,,,,,,304.448318837,None,"['p', 'y', 'k', 'k', 'a']",1,"[1.3123637779999626, 1.6164432830000806, 2.3763430989997687, 2.5284551929998997, 2.6163704689997758]",304.448318837,None,304.44829028649957,304.54841624799974,,,,,,,,,,,,p08_marygach_08022022,001,2022_Aug_02_1412,test_typingtask_norepeats,2020.2.10,61.11728820136492,
lucky,lucky,,,,,0,5,5,5,,,,,,,,,,309.9482847659997,None,"['l', 'u', 'c', 'k', 'y']",1,"[0.9164752310002768, 1.2284711600000264, 1.572440725999968, 1.7404036160000942, 1.9885281780002515]",309.9482847659997,None,309.9484140445,310.0483474529997,,,,,,,,,,,,p08_marygach_08022022,001,2022_Aug_02_1412,test_typingtask_norepeats,2020.2.10,61.11728820136492,
belly,belly,,,,,0,6,6,6,,,,,,,,,,315.4486065449996,None,"['b', 'e', 'l', 'l', 'y']",1,"[0.776050951000343, 0.9281449630002498, 1.1281890170002953, 1.272122698000203, 1.5121544890002951]",315.4486065449996,None,315.44882777549975,315.54891780299977,,,,,,,,,,,,p08_marygach_08022022,001,2022_Aug_02_1412,test_typingtask_norepeats,2020.2.10,61.11728820136492,
cooed,cooed,,,,,0,7,7,7,,,,,,,,,,320.9486704799997,None,"['c', 'o', 'o', 'e', 'd']",1,"[0.8839738739998211, 1.068026909999844, 1.204099124000095, 1.5240961260001313, 1.716087355000127]",320.9486704799997,None,320.94857272249993,321.04865970599985,,,,,,,,,,,,p08_marygach_08022022,001,2022_Aug_02_1412,test_typingtask_norepeats,2020.2.10,61.11728820136492,
vanru,vanru,,,,,0,8,8,8,,,,,,,,,,326.4484822209997,None,"['v', 'a', 'n', 'r', 'u']",1,"[1.0562832380001055, 1.1362504379999336, 1.320283346999986, 1.5122531799997887, 1.6403263219999644]",326.4484822209997,None,326.4482955884999,326.5483757099996,,,,,,,,,,,,p08_marygach_08022022,001,2022_Aug_02_1412,test_typingtask_norepeats,2020.2.10,61.11728820136492,
zibja,zibja,,,,,0,9,9,9,,,,,,,,,,331.9483576389998,None,"['z', 'i', 'b', 'j', 'a']",1,"[1.8444728119998217, 1.9803915960001177, 2.204301353000119, 2.6684028300001046, 2.7804036560000895]",331.9483576389998,None,331.9483748884998,332.0485187219997,,,,,,,,,,,,p08_marygach_08022022,001,2022_Aug_02_1412,test_typingtask_norepeats,2020.2.10,61.11728820136492,
vodka,vodka,,,,,0,10,10,10,,,,,,,,,,337.4483471419999,None,"['v', 'o', 'd', 'k', 'a']",1,"[1.392305598999883, 1.5364209710000978, 1.720453783999801, 1.9203853509998225, 2.0963365490001706]",337.4483471419999,None,337.44855387049967,337.54826344799994,,,,,,,,,,,,p08_marygach_08022022,001,2022_Aug_02_1412,test_typingtask_norepeats,2020.2.10,61.11728820136492,
there,there,,,,,0,11,11,11,,,,,,,,,,342.94849585099973,None,"['t', 'h', 'e', 'r', 'e']",1,"[0.8841498860001593, 1.0442204729997684, 1.1242724909998287, 1.2522587759999624, 1.3162549670000772]",342.94849585099973,None,342.9485475974996,343.0482667389997,,,,,,,,,,,,p08_marygach_08022022,001,2022_Aug_02_1412,test_typingtask_norepeats,2020.2.10,61.11728820136492,
lucky,lucky,,,,,0,12,12,12,,,,,,,,,,348.4485052829996,None,"['l', 'u', 'c', 'k', 'y']",1,"[1.024249761000192, 1.224276072000066, 1.2882208729997728, 1.792161384999872, 2.008206687999973]",348.4485052829996,None,348.4484041474996,348.5484612659998,,,,,,,,,,,,p08_marygach_08022022,001,2022_Aug_02_1412,test_typingtask_norepeats,2020.2.10,61.11728820136492,
cheer,cheer,,,,,0,13,13,13,,,,,,,,,,353.94883838199985,None,"['c', 'h', 'e', 'e', 'r']",1,"[0.8119082880002679, 1.043947388000106, 1.219930518000183, 1.355879723000271, 1.515921800000342]",353.94883838199985,None,353.9488432584997,354.0488124229996,,,,,,,,,,,,p08_marygach_08022022,001,2022_Aug_02_1412,test_typingtask_norepeats,2020.2.10,61.11728820136492,
edthe,edthe,,,,,0,14,14,14,,,,,,,,,,359.4485155409998,None,"['e', 'd', 't', 'h', 'e']",1,"[1.1362411299996893, 1.3362054339995666, 1.4481221409996579, 1.6241290289999597, 1.6802191669999047]",359.4485155409998,None,359.4486186804996,359.54854244499984,,,,,,,,,,,,p08_marygach_08022022,001,2022_Aug_02_1412,test_typingtask_norepeats,2020.2.10,61.11728820136492,
lucky,lucky,,,,,0,15,15,15,,,,,,,,,,364.948449471,None,"['l', 'u', 'c', 'k', 'y']",1,"[0.9402220269998907, 1.18029248799985, 1.3003221609997127, 1.7962570989998312, 2.0203357479999795]",364.948449471,None,364.94857988549967,365.048425039,,,,,,,,,,,,p08_marygach_08022022,001,2022_Aug_02_1412,test_typingtask_norepeats,2020.2.10,61.11728820136492,
haole,haole,,,,,0,16,16,16,,,,,,,,,,370.448334876,None,"['h', 'a', 'o', 'l', 'e']",1,"[0.8404294719998688, 0.9284483090000322, 1.2723279209999419, 1.4483644980000463, 1.5284080249998624]",370.448334876,None,370.4486178245,370.5485368149998,,,,,,,,,,,,p08_marygach_08022022,001,2022_Aug_02_1412,test_typingtask_norepeats,2020.2.10,61.11728820136492,
tithe,tithe,,,,,0,17,17,17,,,,,,,,,,375.948335606,None,"['t', 'i', 't', 'h', 'e']",1,"[0.9804304879999108, 1.1164239390000148, 1.380430497999896, 1.6123299020000559, 1.7403862629998912]",375.948335606,None,375.94840821849976,376.04843643699996,,,,,,,,,,,,p08_marygach_08022022,001,2022_Aug_02_1412,test_typingtask_norepeats,2020.2.10,61.11728820136492,
puppy,puppy,,,,,0,18,18,18,,,,,,,,,,381.44881781799995,None,"['p', 'u', 'p', 'p', 'y']",1,"[0.9038301649998175, 1.12792557199964, 1.3199069109996344, 1.4719966009997734, 1.6879469679997783]",381.44881781799995,None,381.44891548749985,381.54887395399965,,,,,,,,,,,,p08_marygach_08022022,001,2022_Aug_02_1412,test_typingtask_norepeats,2020.2.10,61.11728820136492,
heond,heond,,,,,0,19,19,19,,,,,,,,,,386.94890066399967,None,"['h', 'e', 'o', 'n', 'd']",1,"[0.9558302999998887, 1.0517961129999094, 1.1078647119998095, 1.2598181210000803, 1.3798724829998719]",386.94890066399967,None,386.94881174749963,387.048601386,,,,,,,,,,,,p08_marygach_08022022,001,2022_Aug_02_1412,test_typingtask_norepeats,2020.2.10,61.11728820136492,
kremp,kremp,,,,,0,20,20,20,,,,,,,,,,392.4487853769997,None,"['k', 'r', 'e', 'm', 'm', 'k', 'p']",0,"[1.1119686150000234, 1.2239760469997236, 1.4399230710000666, 1.7039508749999186, 1.9359334319997288, 1.9439573709996694, 2.047916229999828]",392.4487853769997,None,392.4489010554997,392.549208333,,,,,,,,,,,,p08_marygach_08022022,001,2022_Aug_02_1412,test_typingtask_norepeats,2020.2.10,61.11728820136492,
theme,theme,,,,,0,21,21,21,,,,,,,,,,397.9483379879998,None,"['t', 't', 'h', 'e', 'm']",0,"[0.828396198000064, 0.9963940869997714, 1.4364290449998407, 1.5483366710000155, 1.652438408999842]",397.9483379879998,None,397.9482822434996,398.04849208099995,,,,,,,,,,,,p08_marygach_08022022,001,2022_Aug_02_1412,test_typingtask_norepeats,2020.2.10,61.11728820136492,
cheer,cheer,,,,,0,22,22,22,,,,,,,,,,403.4483645389996,None,"['c', 'h', 'e', 'e', 'r']",1,"[0.9284151900001234, 1.0483369459998357, 1.1842893839998396, 1.3363969729998644, 1.5364092190002339]",403.4483645389996,None,403.4483593234998,403.54882105199977,,,,,,,,,,,,p08_marygach_08022022,001,2022_Aug_02_1412,test_typingtask_norepeats,2020.2.10,61.11728820136492,
zibja,zibja,,,,,0,23,23,23,,,,,,,,,,408.94849855099983,None,"['z', 'i', 'b', 'j', 'a']",1,"[1.3722027019998677, 1.5001855189998423, 1.6442314129999431, 2.356173600999682, 2.5082639839997682]",408.94849855099983,None,408.94866087949987,409.048302657,,,,,,,,,,,,p08_marygach_08022022,001,2022_Aug_02_1412,test_typingtask_norepeats,2020.2.10,61.11728820136492,
champ,champ,,,,,0,24,24,24,,,,,,,,,,414.44844872299973,None,"['c', 'h', 'a', 'm', 'p']",1,"[0.8882843119999961, 0.9922727739999573, 1.2002156250000553, 1.2802823609999905, 1.4403281180002523]",414.44844872299973,None,414.4486142985,414.5484348169998,,,,,,,,,,,,p08_marygach_08022022,001,2022_Aug_02_1412,test_typingtask_norepeats,2020.2.10,61.11728820136492,
heond,heond,,,,,0,25,25,25,,,,,,,,,,419.948957994,None,"['h', 'e', 'o', 'n', 'd']",1,"[0.8198148370001945, 0.9238512710003306, 0.9957481910000752, 1.1238058470003125, 1.2596960170003513]",419.948957994,None,419.9490112224997,420.04883383399965,,,,,,,,,,,,p08_marygach_08022022,001,2022_Aug_02_1412,test_typingtask_norepeats,2020.2.10,61.11728820136492,
cheer,cheer,,,,,0,26,26,26,,,,,,,,,,425.4485169339996,None,"['c', 'h', 'e', 'e', 'r']",1,"[0.8242686540002069, 0.9521123260001332, 1.0881649070001913, 1.240197210000133, 1.336251324999921]",425.4485169339996,None,425.4486362564997,425.5484585759996,,,,,,,,,,,,p08_marygach_08022022,001,2022_Aug_02_1412,test_typingtask_norepeats,2020.2.10,61.11728820136492,
vodka,vodka,,,,,0,27,27,27,,,,,,,,,,430.94852544499963,None,"['v', 'o', 'd', 'k', 'a']",1,"[1.3322382000001198, 1.5321916990001228, 1.7242353510000612, 1.8841516920001595, 2.0522442830001637]",430.94852544499963,None,430.94874578449964,431.04851667899993,,,,,,,,,,,,p08_marygach_08022022,001,2022_Aug_02_1412,test_typingtask_norepeats,2020.2.10,61.11728820136492,
vanru,vanru,,,,,0,28,28,28,,,,,,,,,,436.4489325349996,None,"['v', 'a', 'n', 'r', 'u']",1,"[0.9037798099998327, 0.9597604390000924, 1.1517835330000707, 1.3437923669998781, 1.4717027279998547]",436.4489325349996,None,436.4490122934997,436.54881555799966,,,,,,,,,,,,p08_marygach_08022022,001,2022_Aug_02_1412,test_typingtask_norepeats,2020.2.10,61.11728820136492,
belly,belly,,,,,0,29,29,29,,,,,,,,,,441.9486133409996,None,"['b', 'e', 'k', 'k', 'y']",0,"[0.6760364459996708, 0.7801347790000364, 0.9321639380000306, 1.0840412899997318, 1.2840440939999098]",441.9486133409996,None,441.9485308164997,442.0484759809997,,,,,,,,,,,,p08_marygach_08022022,001,2022_Aug_02_1412,test_typingtask_norepeats,2020.2.10,61.11728820136492,
theme,theme,,,,,0,30,30,30,,,,,,,,,,447.4485104339997,None,"['t', 'h', 'e', 'm']",0,"[0.9282375689999753, 1.1122123389995977, 1.1922276759996748, 1.3362160219999168]",447.4485104339997,None,447.44848997449964,447.54858602099966,,,,,,,,,,,,p08_marygach_08022022,001,2022_Aug_02_1412,test_typingtask_norepeats,2020.2.10,61.11728820136492,
pykka,pykka,,,,,0,31,31,31,,,,,,,,,,452.948407588,None,"['p', 'y', 'k', 'k', 'a']",1,"[1.132357304999914, 1.652357364999716, 2.0283472979999715, 2.1722534099999393, 2.276231379999899]",452.948407588,None,452.94856788949966,453.0485882979997,,,,,,,,,,,,p08_marygach_08022022,001,2022_Aug_02_1412,test_typingtask_norepeats,2020.2.10,61.11728820136492,
theme,theme,,,,,0,32,32,32,,,,,,,,,,458.44884990399987,None,"['t', 'h', 'e', 'm', 'e']",1,"[0.8558767619997525, 1.0718685870001536, 1.1838075979999303, 1.3438569670001925, 1.51194894199989]",458.44884990399987,None,458.44890376649965,458.5490543249998,,,,,,,,,,,,p08_marygach_08022022,001,2022_Aug_02_1412,test_typingtask_norepeats,2020.2.10,61.11728820136492,
cheer,cheer,,,,,0,33,33,33,,,,,,,,,,463.9486194449996,None,"['c', 'h', 'e', 'e', 'r']",1,"[0.7880479519999426, 0.9480833580000763, 1.0840239640001528, 1.2680396380001184, 1.3400761200000488]",463.9486194449996,None,463.9485666965,464.048478445,,,,,,,,,,,,p08_marygach_08022022,001,2022_Aug_02_1412,test_typingtask_norepeats,2020.2.10,61.11728820136492,
pykka,pykka,,,,,0,34,34,34,,,,,,,,,,469.4488258909996,None,"['p', 'y', 'k', 'k', 'a']",1,"[1.0719484339997507, 1.5279190940000262, 1.8318940989997827, 1.9678206839998893, 2.047831158000008]",469.4488258909996,None,469.44854739249996,469.54864553499965,,,,,,,,,,,,p08_marygach_08022022,001,2022_Aug_02_1412,test_typingtask_norepeats,2020.2.10,61.11728820136492,
would,would,,,,,0,35,35,35,,,,,,,,,,474.9485256009998,None,"['w', 'o', 'u', 'l', 'd']",1,"[0.9961587130001135, 1.108145051000065, 1.2202360170003885, 1.3802427540003919, 1.4922383250000166]",474.9485256009998,None,474.9484846674998,475.0486012289998,,,,,,,,,,,,p08_marygach_08022022,001,2022_Aug_02_1412,test_typingtask_norepeats,2020.2.10,61.11728820136492,
vodka,vodka,,,,,0,36,36,36,,,,,,,,,,480.44846221499984,None,"['v', 'o', 'd', 'k', 'a']",1,"[1.2002403300002698, 1.4802666660002615, 1.6243174690002888, 1.8403047070000866, 2.160215791000155]",480.44846221499984,None,480.4485832935,480.5484656689996,,,,,,,,,,,,p08_marygach_08022022,001,2022_Aug_02_1412,test_typingtask_norepeats,2020.2.10,61.11728820136492,
cooed,cooed,,,,,0,37,37,37,,,,,,,,,,485.9489452759999,None,"['c', 'o', 'o', 'e', 'd']",1,"[0.7957431670001824, 1.0037548499999502, 1.147718531999999, 1.2998379730001943, 1.5158224810002139]",485.9489452759999,None,485.9490196225,486.0487555689997,,,,,,,,,,,,p08_marygach_08022022,001,2022_Aug_02_1412,test_typingtask_norepeats,2020.2.10,61.11728820136492,
vanru,vanru,,,,,0,38,38,38,,,,,,,,,,491.448649036,None,"['v', 'a', 'n', 'r', 'u']",1,"[0.960021099000187, 1.0640064789999997, 1.2081156110002667, 1.4081151380000847, 1.560049612000057]",491.448649036,None,491.44857265549973,491.5490139159997,,,,,,,,,,,,p08_marygach_08022022,001,2022_Aug_02_1412,test_typingtask_norepeats,2020.2.10,61.11728820136492,
pykka,pykka,,,,,0,39,39,39,,,,,,,,,,496.94831593399977,None,"['p', 'y', 'k', 'k', 'a']",1,"[1.6763326289997167, 1.9244708669998545, 2.228425677999894, 2.372408336999797, 2.4523268899997674]",496.94831593399977,None,496.94896520449976,497.0482589669996,,,,,,,,,,,,p08_marygach_08022022,001,2022_Aug_02_1412,test_typingtask_norepeats,2020.2.10,61.11728820136492,
druze,druze,,,,,0,40,40,40,,,,,,,,,,502.44909746899975,None,"['d', 'r', 'u', 'x', 'z', 'e']",0,"[0.8716705490001004, 1.1196368430000803, 1.2396276570002556, 1.559549780999987, 1.5675608850001481, 2.039682503000222]",502.44909746899975,None,502.44886168349996,502.54904692599985,,,,,,,,,,,,p08_marygach_08022022,001,2022_Aug_02_1412,test_typingtask_norepeats,2020.2.10,61.11728820136492,
edthe,edthe,,,,,0,41,41,41,,,,,,,,,,507.94869333999986,None,"['e', 'd', 't', 'h', 'e']",1,"[0.9880739269997321, 1.1800727869999719, 1.3239547089997359, 1.5081183779998355, 1.5560430370001086]",507.94869333999986,None,507.94871914549987,508.0487732839997,,,,,,,,,,,,p08_marygach_08022022,001,2022_Aug_02_1412,test_typingtask_norepeats,2020.2.10,61.11728820136492,
think,think,,,,,0,42,42,42,,,,,,,,,,513.4489022009998,None,"['t', 'h', 'i', 'n', 'k']",1,"[0.8317558050002845, 0.9437298890002239, 1.055800617999921, 1.2237984440002947, 1.3836746490001133]",513.4489022009998,None,513.4491156154997,513.5488415139998,,,,,,,,,,,,p08_marygach_08022022,001,2022_Aug_02_1412,test_typingtask_norepeats,2020.2.10,61.11728820136492,
belly,belly,,,,,0,43,43,43,,,,,,,,,,518.9487966089996,None,"['b', 'e', 'l', 'l', 'l', 'y']",0,"[0.7238754249997328, 0.8119871919998332, 1.0119101709997267, 1.1638995710000017, 1.3799441940000179, 1.6598937609996938]",518.9487966089996,None,518.9491072994999,519.0489549159997,,,,,,,,,,,,p08_marygach_08022022,001,2022_Aug_02_1412,test_typingtask_norepeats,2020.2.10,61.11728820136492,
vodka,vodka,,,,,0,44,44,44,,,,,,,,,,524.4485169189998,None,"['v', 'o', 'd', 'k', 'a']",1,"[1.2562001230003261, 1.4242019360003724, 1.6002514920000976, 1.7761281750003945, 1.9362095820001741]",524.4485169189998,None,524.4485888624997,524.5487248869999,,,,,,,,,,,,p08_marygach_08022022,001,2022_Aug_02_1412,test_typingtask_norepeats,2020.2.10,61.11728820136492,
zibja,zibja,,,,,0,45,45,45,,,,,,,,,,529.9485619559996,None,"['z', 'i', 'b', 'n', 'j', 'a']",0,"[1.1322076760002346, 1.3481061800002863, 1.4922547220003253, 1.5001731679999466, 1.9082080260000112, 2.0600819159999446]",529.9485619559996,None,529.9485697774996,530.04856363,,,,,,,,,,,,p08_marygach_08022022,001,2022_Aug_02_1412,test_typingtask_norepeats,2020.2.10,61.11728820136492,
buddy,buddy,,,,,0,46,46,46,,,,,,,,,,535.4489657199997,None,"['b', 'u', 'd', 'd', 'y']",1,"[1.2077205519999552, 1.3596864169999208, 1.5117891310001141, 1.6797979429998122, 1.7277741329999117]",535.4489657199997,None,535.4491199124998,535.5490167519997,,,,,,,,,,,,p08_marygach_08022022,001,2022_Aug_02_1412,test_typingtask_norepeats,2020.2.10,61.11728820136492,
therm,therm,,,,,0,47,47,47,,,,,,,,,,540.9487071109997,None,"['t', 'h', 'e', 'r', 'm']",1,"[0.8839489849997335, 1.0520552809998662, 1.1479587750000064, 1.2599568349996844, 1.620061437000004]",540.9487071109997,None,540.9484581114996,541.0486660839997,,,,,,,,,,,,p08_marygach_08022022,001,2022_Aug_02_1412,test_typingtask_norepeats,2020.2.10,61.11728820136492,
vanru,vanru,,,,,0,48,48,48,,,,,,,,,,546.449120198,None,"['v', 'a', 'n', 'u']",0,"[0.7755458460001137, 0.9036536779999551, 1.0396089410000968, 1.391739355000027]",546.449120198,None,546.4487811174997,546.5490943649997,,,,,,,,,,,,p08_marygach_08022022,001,2022_Aug_02_1412,test_typingtask_norepeats,2020.2.10,61.11728820136492,
pykka,pykka,,,,,0,49,49,49,,,,,,,,,,551.948580198,None,"['p', 'y', 'k', 'k', 'a']",1,"[1.0600846500001353, 1.3961079270002301, 1.7400809159998971, 1.8680639950002842, 2.0122002410003006]",551.948580198,None,551.9486941694997,552.0485240519997,,,,,,,,,,,,p08_marygach_08022022,001,2022_Aug_02_1412,test_typingtask_norepeats,2020.2.10,61.11728820136492,
champ,champ,,,,,0,50,50,50,,,,,,,,,,557.4487504529998,None,"['c', 'h', 'a', 'm', 'p']",1,"[0.7439410470001349, 0.871989601000223, 1.0640128800000639, 1.199982215000091, 1.3439139730003262]",557.4487504529998,None,557.4488291394998,557.5485619659999,,,,,,,,,,,,p08_marygach_08022022,001,2022_Aug_02_1412,test_typingtask_norepeats,2020.2.10,61.11728820136492,
tithe,tithe,,,,,0,51,51,51,,,,,,,,,,562.9490392149996,None,"['t', 'i', 't', 'h', 'e']",1,"[0.7956305379998412, 0.947621799999979, 1.219682119999561, 1.395650915999795, 1.4917469089996303]",562.9490392149996,None,562.9492414824997,563.04895145,,,,,,,,,,,,p08_marygach_08022022,001,2022_Aug_02_1412,test_typingtask_norepeats,2020.2.10,61.11728820136492,
cooed,cooed,,,,,0,52,52,52,,,,,,,,,,568.4489275339997,None,"['c', 'o', 'o', 'e', 'd', 'space']",0,"[0.943754436999825, 1.12777760400013, 1.271793887000058, 1.3757329549998758, 1.5597367069999564, 1.7278187020001496]",568.4489275339997,None,568.4488918464997,568.5488323119998,,,,,,,,,,,,p08_marygach_08022022,001,2022_Aug_02_1412,test_typingtask_norepeats,2020.2.10,61.11728820136492,
would,would,,,,,0,53,53,53,,,,,,,,,,573.9489209069998,None,"['w', 'o', 'u', 'l', 'd']",1,"[0.9877970499996991, 1.147766572999899, 1.2677354529996592, 1.4437414449998869, 1.5877452659997289]",573.9489209069998,None,573.9487788834997,574.0490664509998,,,,,,,,,,,,p08_marygach_08022022,001,2022_Aug_02_1412,test_typingtask_norepeats,2020.2.10,61.11728820136492,
champ,champ,,,,,0,54,54,54,,,,,,,,,,579.4490785319999,None,"['c', 'h', 'a', 'm', 'p']",1,"[0.7356833869998809, 0.9196386559997336, 1.1117241560000366, 1.215674442999898, 1.3196586959998058]",579.4490785319999,None,579.4492789634999,579.5490762309996,,,,,,,,,,,,p08_marygach_08022022,001,2022_Aug_02_1412,test_typingtask_norepeats,2020.2.10,61.11728820136492,
would,would,,,,,0,55,55,55,,,,,,,,,,584.9487884989999,None,"['w', 'o', 'u', 'l', 'd']",1,"[0.8519758100001127, 1.0199785619997783, 1.1159787960000358, 1.3159722939999483, 1.4519090559997494]",584.9487884989999,None,584.9488309604997,585.0485652309999,,,,,,,,,,,,p08_marygach_08022022,001,2022_Aug_02_1412,test_typingtask_norepeats,2020.2.10,61.11728820136492,
haole,haole,,,,,0,56,56,56,,,,,,,,,,590.4490769469999,None,"['h', 'a', 'o', 'l', 'e']",1,"[0.8475758509998741, 0.9276627089998328, 1.1595706959997187, 1.51166593500011, 1.591733700000077]",590.4490769469999,None,590.4492279514996,590.5489849619998,,,,,,,,,,,,p08_marygach_08022022,001,2022_Aug_02_1412,test_typingtask_norepeats,2020.2.10,61.11728820136492,
faqir,faqir,,,,,0,57,57,57,,,,,,,,,,595.9490789229999,None,"['f', 'a', 'q', 'i', 'r']",1,"[1.547605817999738, 1.7075695919997997, 2.3956042469999375, 2.5396983829996316, 3.139731902999756]",595.9490789229999,None,595.9488867024995,596.0488443659997,,,,,,,,,,,,p08_marygach_08022022,001,2022_Aug_02_1412,test_typingtask_norepeats,2020.2.10,61.11728820136492,
think,think,,,,,0,58,58,58,,,,,,,,,,601.4486041809996,None,"['t', 'h', 'i', 'n', 'k']",1,"[0.9201195030000235, 1.0721124690003307, 1.1680491689999144, 1.336161059999995, 1.480140424000183]",601.4486041809996,None,601.4488413134998,601.548686783,,,,,,,,,,,,p08_marygach_08022022,001,2022_Aug_02_1412,test_typingtask_norepeats,2020.2.10,61.11728820136492,
vanru,vanru,,,,,0,59,59,59,,,,,,,,,,606.9490605019996,None,"['v', 'a', 'n', 'r', 'u']",1,"[0.8117521149997629, 0.9156206650000058, 1.1076601839999967, 1.3396677759997146, 1.587670504000016]",606.9490605019996,None,606.9491175924998,607.0491335529996,,,,,,,,,,,,p08_marygach_08022022,001,2022_Aug_02_1412,test_typingtask_norepeats,2020.2.10,61.11728820136492,
champ,champ,,,,,0,60,60,60,,,,,,,,,,612.4491609299998,None,"['c', 'h', 'a', 'm', 'k', 'p']",0,"[0.7195829140000569, 0.9035743979998188, 1.1036270219997277, 1.2396247080000649, 1.2396247080000649, 1.3516030989999308]",612.4491609299998,None,612.4489430074998,612.548962763,,,,,,,,,,,,p08_marygach_08022022,001,2022_Aug_02_1412,test_typingtask_norepeats,2020.2.10,61.11728820136492,
faqir,faqir,,,,,0,61,61,61,,,,,,,,,,617.9488270009997,None,"['f', 'a', 'q', 'i', 'r']",1,"[0.8598443159999078, 1.0359396630001356, 1.5398351829999228, 1.9958518180001192, 2.171953589000168]",617.9488270009997,None,617.9487424204997,618.0488424789996,,,,,,,,,,,,p08_marygach_08022022,001,2022_Aug_02_1412,test_typingtask_norepeats,2020.2.10,61.11728820136492,
there,there,,,,,0,62,62,62,,,,,,,,,,623.4488637689997,None,"['t', 'h', 'e', 'r', 'e']",1,"[0.8079112879995591, 0.9917919189997519, 1.1198382519996812, 1.2478201739995711, 1.3279324999998607]",623.4488637689997,None,623.4490380294999,623.5490658049998,,,,,,,,,,,,p08_marygach_08022022,001,2022_Aug_02_1412,test_typingtask_norepeats,2020.2.10,61.11728820136492,
about,about,,,,,0,63,63,63,,,,,,,,,,628.9489927769996,None,"['a', 'b', 'o', 'u', 't']",1,"[0.8357312760003879, 1.523726784000246, 1.8836603570002808, 2.0037778980004077, 2.2118048820002514]",628.9489927769996,None,628.9493154195,629.0489527689997,,,,,,,,,,,,p08_marygach_08022022,001,2022_Aug_02_1412,test_typingtask_norepeats,2020.2.10,61.11728820136492,
buddy,buddy,,,,,0,64,64,64,,,,,,,,,,634.4488704149999,None,"['b', 'u', 'd', 'd', 'y']",1,"[1.0558796800000891, 1.3038470659998893, 1.687833832999786, 1.8798115670001607, 1.9757863569998335]",634.4488704149999,None,634.4487480084997,634.5489782549998,,,,,,,,,,,,p08_marygach_08022022,001,2022_Aug_02_1412,test_typingtask_norepeats,2020.2.10,61.11728820136492,
druze,druze,,,,,0,65,65,65,,,,,,,,,,639.9490979049997,None,"['d', 'r', 'u', 'z', 'e']",1,"[0.7556783400000313, 0.9716744100001051, 1.4915390609999122, 1.9316489709999587, 2.187622157000078]",639.9490979049997,None,639.9493376254998,640.0492209289996,,,,,,,,,,,,p08_marygach_08022022,001,2022_Aug_02_1412,test_typingtask_norepeats,2020.2.10,61.11728820136492,
faqir,faqir,,,,,0,66,66,66,,,,,,,,,,645.4491276539998,None,"['f', 'a', 'q', 'i', 'r']",1,"[0.9516456060000564, 1.5595383449999645, 1.7916538700001183, 2.11959294899998, 2.319634986999972]",645.4491276539998,None,645.4488082534997,645.5489541759998,,,,,,,,,,,,p08_marygach_08022022,001,2022_Aug_02_1412,test_typingtask_norepeats,2020.2.10,61.11728820136492,
lucky,lucky,,,,,0,67,67,67,,,,,,,,,,650.9493874749996,None,"['l', 'u', 'c', 'k', 'y']",1,"[0.8672669570000835, 1.139345394999964, 1.4832657880001534, 1.6113345180001488, 1.867275128000074]",650.9493874749996,None,650.9491322244996,651.0492012709997,,,,,,,,,,,,p08_marygach_08022022,001,2022_Aug_02_1412,test_typingtask_norepeats,2020.2.10,61.11728820136492,
faqir,faqir,,,,,0,68,68,68,,,,,,,,,,656.449230319,None,"['f', 'a', 'q', 'i', 'r']",1,"[0.8475037329999395, 1.0074306440001237, 1.303500779999922, 1.5594273820001945, 1.9275496639997982]",656.449230319,None,656.4491614924998,656.5490089939999,,,,,,,,,,,,p08_marygach_08022022,001,2022_Aug_02_1412,test_typingtask_norepeats,2020.2.10,61.11728820136492,
puppy,puppy,,,,,0,69,69,69,,,,,,,,,,661.9489972349998,None,"['p', 'u', 'p', 'p', 'y']",1,"[1.027831845000037, 1.2756835979998868, 1.5077210179997564, 1.643649123999694, 1.8918180229998143]",661.9489972349998,None,661.9493424614996,662.0493116809998,,,,,,,,,,,,p08_marygach_08022022,001,2022_Aug_02_1412,test_typingtask_norepeats,2020.2.10,61.11728820136492,
haole,haole,,,,,0,70,70,70,,,,,,,,,,667.4485003,None,"['h', 'a', 'o', 'l', 'e']",1,"[0.7922875099998237, 0.9202746829996613, 1.1441820069999267, 1.3282033030000093, 1.4002510119998988]",667.4485003,None,667.4484048094998,667.548894609,,,,,,,,,,,,p08_marygach_08022022,001,2022_Aug_02_1412,test_typingtask_norepeats,2020.2.10,61.11728820136492,
tithe,tithe,,,,,0,71,71,71,,,,,,,,,,672.948893967,None,"['t', 'i', 't', 'h', 'e']",1,"[0.7957779079997636, 0.9398919109999042, 1.2278260829998544, 1.4198720889999095, 1.491884311999911]",672.948893967,None,672.9489859324997,673.0488755729998,,,,,,,,,,,,p08_marygach_08022022,001,2022_Aug_02_1412,test_typingtask_norepeats,2020.2.10,61.11728820136492,
buddy,buddy,,,,,0,72,72,72,,,,,,,,,,678.4487959089997,None,"['b', 'u', 'd', 'd', 'y']",1,"[0.9280017320002116, 1.1119825440000568, 1.2479038659998878, 1.3918635670002004, 1.4879167849999249]",678.4487959089997,None,678.4489574504998,678.5491109659997,,,,,,,,,,,,p08_marygach_08022022,001,2022_Aug_02_1412,test_typingtask_norepeats,2020.2.10,61.11728820136492,
belly,belly,,,,,0,73,73,73,,,,,,,,,,683.9488456569998,None,"['b', 'e', 'l', 'l', 'y']",1,"[0.747819413000343, 0.8919407090002096, 1.1478162920002433, 1.2919475440003225, 1.7078796380001222]",683.9488456569998,None,683.9489018984998,684.0488631009998,,,,,,,,,,,,p08_marygach_08022022,001,2022_Aug_02_1412,test_typingtask_norepeats,2020.2.10,61.11728820136492,
think,think,,,,,0,74,74,74,,,,,,,,,,689.4489952989998,None,"['t', 'h', 'i', 'n', 'k']",1,"[1.1596755510004186, 1.231740746000014, 1.3197008220004136, 1.4718153900003017, 1.6237378499999977]",689.4489952989998,None,689.4487171364997,689.5491824299997,,,,,,,,,,,,p08_marygach_08022022,001,2022_Aug_02_1412,test_typingtask_norepeats,2020.2.10,61.11728820136492,
about,about,,,,,0,75,75,75,,,,,,,,,,694.9489661979997,None,"['a', 'b', 'o', 'u', 't']",1,"[0.8038035630002014, 0.8997935520001192, 1.1558454510000047, 1.3157641440002408, 1.4918187610001041]",694.9489661979997,None,694.9489423754997,695.0488728999999,,,,,,,,,,,,p08_marygach_08022022,001,2022_Aug_02_1412,test_typingtask_norepeats,2020.2.10,61.11728820136492,
edthe,edthe,,,,,0,76,76,76,,,,,,,,,,700.4489108539997,None,"['e', 'd', 't', 'h', 'e']",1,"[0.8477726299997812, 1.0638558470000135, 1.1918691189998754, 1.3758463190001748, 1.4558161009999822]",700.4489108539997,None,700.4490105784996,700.548890519,,,,,,,,,,,,p08_marygach_08022022,001,2022_Aug_02_1412,test_typingtask_norepeats,2020.2.10,61.11728820136492,
kremp,kremp,,,,,0,77,77,77,,,,,,,,,,705.9492122899997,None,"['k', 'r', 'e', 'm', 'p']",1,"[1.315520054999979, 1.4754463839999516, 1.7075614579998728, 1.8195273390001603, 1.9715715920001458]",705.9492122899997,None,705.9494387354996,706.0490760799998,,,,,,,,,,,,p08_marygach_08022022,001,2022_Aug_02_1412,test_typingtask_norepeats,2020.2.10,61.11728820136492,
therm,therm,,,,,0,78,78,78,,,,,,,,,,711.4490090989998,None,"['t', 'h', 'e', 'r', 'm']",1,"[0.8717542109998249, 1.0637615059999916, 1.167646400999729, 1.2956691839999621, 1.743714632999854]",711.4490090989998,None,711.4489754684998,711.549138372,,,,,,,,,,,,p08_marygach_08022022,001,2022_Aug_02_1412,test_typingtask_norepeats,2020.2.10,61.11728820136492,
about,about,,,,,0,79,79,79,,,,,,,,,,716.9493142039996,None,"['a', 'b', 'o', 'u', 't']",1,"[0.8275225639999917, 0.9634604009997929, 1.2433637700000872, 1.3634419939999134, 1.4673331459998735]",716.9493142039996,None,716.9487600924997,717.0488801189999,,,,,,,,,,,,p08_marygach_08022022,001,2022_Aug_02_1412,test_typingtask_norepeats,2020.2.10,61.11728820136492,
kremp,kremp,,,,,0,80,80,80,,,,,,,,,,722.4488685829997,None,"['k', 'r', 'e', 'm', 'p']",1,"[1.0799360510000042, 1.2558942289997503, 1.4639280749997852, 1.5437813710000228, 1.6558486029998676]",722.4488685829997,None,722.4489477384998,722.5492531569998,,,,,,,,,,,,p08_marygach_08022022,001,2022_Aug_02_1412,test_typingtask_norepeats,2020.2.10,61.11728820136492,
edthe,edthe,,,,,0,81,81,81,,,,,,,,,,727.9495359369998,None,"['e', 'd', 't', 'h', 'e']",1,"[0.803242758000124, 1.0112248020000152, 1.1311393010000756, 1.3152187630003027, 1.3871825490000447]",727.9495359369998,None,727.9492308815,728.0494357129996,,,,,,,,,,,,p08_marygach_08022022,001,2022_Aug_02_1412,test_typingtask_norepeats,2020.2.10,61.11728820136492,
theme,theme,,,,,0,82,82,82,,,,,,,,,,733.4488705949998,None,"['t', 'h', 'e', 'm', 'e']",1,"[0.83188903700011, 1.1597869430001992, 1.2798786749999636, 1.4717823220003083, 1.6318803780000053]",733.4488705949998,None,733.4489723654999,733.548944054,,,,,,,,,,,,p08_marygach_08022022,001,2022_Aug_02_1412,test_typingtask_norepeats,2020.2.10,61.11728820136492,
tithe,tithe,,,,,0,83,83,83,,,,,,,,,,738.9491189309997,None,"['t', 'i', 't', 'h', 'e']",1,"[0.9236190720002924, 1.0915839730000698, 1.3875840000000608, 1.5796304360001159, 1.675532468000256]",738.9491189309997,None,738.9493989794998,739.0493008799999,,,,,,,,,,,,p08_marygach_08022022,001,2022_Aug_02_1412,test_typingtask_norepeats,2020.2.10,61.11728820136492,
about,about,,,,,0,84,84,84,,,,,,,,,,744.4491112299997,None,"['a', 'b', 'o', 'u', 't']",1,"[0.7595543389998056, 0.8796121549999043, 1.151547477999884, 1.2717002439999305, 1.4396149629997126]",744.4491112299997,None,744.4494322074995,744.5494489889998,,,,,,,,,,,,p08_marygach_08022022,001,2022_Aug_02_1412,test_typingtask_norepeats,2020.2.10,61.11728820136492,
puppy,puppy,,,,,0,85,85,85,,,,,,,,,,749.9492080369996,None,"['p', 'u', 'p', 'p', 'y']",1,"[0.8995863879999888, 1.3394569019997107, 1.675491793999754, 1.8276394720001008, 2.059457261999796]",749.9492080369996,None,749.9492705564996,750.0493922279998,,,,,,,,,,,,p08_marygach_08022022,001,2022_Aug_02_1412,test_typingtask_norepeats,2020.2.10,61.11728820136492,
lucky,lucky,,,,,0,86,86,86,,,,,,,,,,755.4489994569999,None,"['l', 'u', 'c', 'k', 'y']",1,"[0.8877770120002424, 1.159748631000184, 1.4237275120003687, 2.0956427770001937, 2.335765279000043]",755.4489994569999,None,755.4488060614997,755.5488083099999,,,,,,,,,,,,p08_marygach_08022022,001,2022_Aug_02_1412,test_typingtask_norepeats,2020.2.10,61.11728820136492,
heond,heond,,,,,0,87,87,87,,,,,,,,,,760.9490115369999,None,"['h', 'e', 'o', 'n', 'd']",1,"[0.9476486739999928, 1.051754179999989, 1.1716487349999625, 1.2917230749999362, 1.4117170310000802]",760.9490115369999,None,760.9488708514998,761.0490233699998,,,,,,,,,,,,p08_marygach_08022022,001,2022_Aug_02_1412,test_typingtask_norepeats,2020.2.10,61.11728820136492,
faqir,faqir,,,,,0,88,88,88,,,,,,,,,,766.4491448039998,None,"['f', 'a', 'q', 'i', 'r']",1,"[0.855560991999937, 1.0475306250000358, 1.6236373950000598, 2.0475337620000573, 2.1835410019998562]",766.4491448039998,None,766.4491403474997,766.5493871259996,,,,,,,,,,,,p08_marygach_08022022,001,2022_Aug_02_1412,test_typingtask_norepeats,2020.2.10,61.11728820136492,
there,there,,,,,0,89,89,89,,,,,,,,,,771.9490725829996,None,"['t', 'h', 'y', 'e', 'r', 'e']",0,"[0.8595933560000049, 1.0917115620000004, 1.1077374950000376, 1.2756082259998038, 1.6116896799999267, 1.8036886919999233]",771.9490725829996,None,771.9490757594997,772.048580834,,,,,,,,,,,,p08_marygach_08022022,001,2022_Aug_02_1412,test_typingtask_norepeats,2020.2.10,61.11728820136492,
think,think,,,,,0,90,90,90,,,,,,,,,,777.4490226139997,None,"['t', 'h', 'i', 'o', 'n', 'k']",0,"[0.7756400719999874, 0.9276308809999136, 1.0717398030001277, 1.0796836519998578, 1.2476736029998392, 1.4476435759997912]",777.4490226139997,None,777.4489946894998,777.5488095169999,,,,,,,,,,,,p08_marygach_08022022,001,2022_Aug_02_1412,test_typingtask_norepeats,2020.2.10,61.11728820136492,
heond,heond,,,,,0,91,91,91,,,,,,,,,,782.9491555039999,None,"['h', 'e', 'o', 'n', 'd']",1,"[0.7396538160001, 0.8116753379999864, 0.8995621640001445, 1.04353008399994, 1.1954902679999577]",782.9491555039999,None,782.9491080954997,783.0490189779998,,,,,,,,,,,,p08_marygach_08022022,001,2022_Aug_02_1412,test_typingtask_norepeats,2020.2.10,61.11728820136492,
buddy,buddy,,,,,0,92,92,92,,,,,,,,,,788.4491728399998,None,"['b', 'i', 'u', 'u', 'd', 'd', 'y']",0,"[0.9435447209998529, 1.1514946900001632, 1.1594925290000901, 1.335595689999991, 1.74347630200009, 1.91955735800002, 1.9834902299999158]",788.4491728399998,None,788.4489066164999,788.5490614819996,,,,,,,,,,,,p08_marygach_08022022,001,2022_Aug_02_1412,test_typingtask_norepeats,2020.2.10,61.11728820136492,
belly,belly,,,,,0,93,93,93,,,,,,,,,,793.9495628369996,None,"['b', 'e', 'l', 'l', 'y']",1,"[0.8032273720000376, 0.987198208999871, 1.1872270909998406, 1.3632017019999694, 1.811234266000156]",793.9495628369996,None,793.9493181694995,794.0494389409996,,,,,,,,,,,,p08_marygach_08022022,001,2022_Aug_02_1412,test_typingtask_norepeats,2020.2.10,61.11728820136492,
kremp,kremp,,,,,0,94,94,94,,,,,,,,,,799.4496669799996,None,"['k', 'r', 'e', 'm', 'p']",1,"[1.0870832139999038, 1.2231042039998101, 1.4230918439998277, 1.5110723159996269, 1.6310823099997833]",799.4496669799996,None,799.4493599685,799.5493393079996,,,,,,,,,,,,p08_marygach_08022022,001,2022_Aug_02_1412,test_typingtask_norepeats,2020.2.10,61.11728820136492,
vodka,vodka,,,,,0,95,95,95,,,,,,,,,,804.9490140589996,None,"['v', 'o', 'd', 'k', 'a']",1,"[1.0277810180000415, 1.2037536299999374, 1.443682489999901, 1.6117559640001673, 1.8516900449999412]",804.9490140589996,None,804.9490402404997,805.0490018419996,,,,,,,,,,,,p08_marygach_08022022,001,2022_Aug_02_1412,test_typingtask_norepeats,2020.2.10,61.11728820136492,
cheer,cheer,,,,,0,96,96,96,,,,,,,,,,810.4489347119998,None,"['c', 'h', 'e', 'e', 'r']",1,"[0.7118255999998837, 0.9118162779996055, 1.063856353999654, 1.2078430849996948, 1.3757289469999705]",810.4489347119998,None,810.4490869664999,810.548977553,,,,,,,,,,,,p08_marygach_08022022,001,2022_Aug_02_1412,test_typingtask_norepeats,2020.2.10,61.11728820136492,
would,would,,,,,0,97,97,97,,,,,,,,,,815.9490104299998,None,"['w', 'o', 'u', 'l', 'd']",1,"[1.2676469749999342, 1.3316578469998603, 1.4596533439998893, 1.651696061000166, 1.7477135439999074]",815.9490104299998,None,815.9490419894998,816.0492265619996,,,,,,,,,,,,p08_marygach_08022022,001,2022_Aug_02_1412,test_typingtask_norepeats,2020.2.10,61.11728820136492,
druze,druze,,,,,0,98,98,98,,,,,,,,,,821.4493956349997,None,"['d', 'r', 'u', 'z', 'e']",1,"[0.8553080830001818, 1.1033210390000932, 1.2793161210001927, 1.6313293230000454, 1.9034083870001268]",821.4493956349997,None,821.4493875274995,821.5494802139997,,,,,,,,,,,,p08_marygach_08022022,001,2022_Aug_02_1412,test_typingtask_norepeats,2020.2.10,61.11728820136492,
cooed,cooed,,,,,0,99,99,99,,,,,,,,,,826.949089103,None,"['c', 'o', 'o', 'e', 'd']",1,"[0.811702919000254, 1.0117111540002952, 1.1476661229999081, 1.2595757550002418, 1.4675723959999232]",826.949089103,None,826.9490431034999,827.0496907469997,,,,,,,,,,,,p08_marygach_08022022,001,2022_Aug_02_1412,test_typingtask_norepeats,2020.2.10,61.11728820136492,
therm,therm,,,,,0,100,100,100,,,,,,,,,,832.4494660409996,None,"['t', 'h', 'e', 'r', 'f', 'm']",0,"[0.8552551419998053, 1.0552091810000093, 1.0952780659999917, 1.2472798579997288, 1.2472798579997288, 1.751238679999915]",832.4494660409996,None,832.4496646754999,832.5493847019998,,,,,,,,,,,,p08_marygach_08022022,001,2022_Aug_02_1412,test_typingtask_norepeats,2020.2.10,61.11728820136492,
about,about,,,,,0,101,101,101,,,,,,,,,,837.9491168879999,None,"['a', 'b', 'o', 'u', 'r', 't']",0,"[0.7875724859995898, 0.8675389410000207, 1.091642397999749, 1.2276801349999005, 1.379610448999756, 1.379610448999756]",837.9491168879999,None,837.9489807895,838.0493085759999,,,,,,,,,,,,p08_marygach_08022022,001,2022_Aug_02_1412,test_typingtask_norepeats,2020.2.10,61.11728820136492,
edthe,edthe,,,,,0,102,102,102,,,,,,,,,,843.4491298899998,None,"['e', 'd', 't', 'h', 'e']",1,"[0.9435857400003442, 1.1276109909999832, 1.2795530830003372, 1.4555983909999668, 1.5116304670000318]",843.4491298899998,None,843.4489984034997,843.5490075849998,,,,,,,,,,,,p08_marygach_08022022,001,2022_Aug_02_1412,test_typingtask_norepeats,2020.2.10,61.11728820136492,
there,there,,,,,0,103,103,103,,,,,,,,,,848.9493057219997,None,"['h', 'e', 'r', 'e']",0,"[1.027342329000021, 1.1554100560001643, 1.2673549719997936, 1.3874502859998756]",848.9493057219997,None,848.9492215664998,849.049394704,,,,,,,,,,,,p08_marygach_08022022,001,2022_Aug_02_1412,test_typingtask_norepeats,2020.2.10,61.11728820136492,
haole,haole,,,,,0,104,104,104,,,,,,,,,,854.4495711149998,None,"['h', 'a', 'o', 'l', 'e']",1,"[0.895178771999781, 1.0551733600000262, 1.695195840999986, 1.8872017539997614, 1.9831551620000027]",854.4495711149998,None,854.4495282114997,854.5493121349996,,,,,,,,,,,,p08_marygach_08022022,001,2022_Aug_02_1412,test_typingtask_norepeats,2020.2.10,61.11728820136492,
zibja,zibja,,,,,0,105,105,105,,,,,,,,,,859.949251521,None,"['z', 'i', 'b', 'j', 'a']",1,"[1.2994768039998235, 1.419519605000005, 1.61948335399984, 1.9954998779999187, 2.091523041000073]",859.949251521,None,859.9490510864996,860.0491498209999,,,,,,,,,,,,p08_marygach_08022022,001,2022_Aug_02_1412,test_typingtask_norepeats,2020.2.10,61.11728820136492,
think,think,,,,,0,106,106,106,,,,,,,,,,865.4490867899999,None,"['t', 'h', 'i', 'n', 'k']",1,"[0.8316118500001721, 0.9435616089999712, 1.0475887480001802, 1.1916783130000113, 1.3196747299998606]",865.4490867899999,None,865.4490643554998,865.54917699,,,,,,,,,,,,p08_marygach_08022022,001,2022_Aug_02_1412,test_typingtask_norepeats,2020.2.10,61.11728820136492,
therm,therm,,,,,0,107,107,107,,,,,,,,,,870.9496978349998,None,"['t', 'h', 'e', 'r', 'm']",1,"[0.7229684810004073, 0.9310327190000862, 1.0030673130004288, 1.1950261760002832, 1.2350543270003982]",870.9496978349998,None,870.9493338624995,871.0497695579998,,,,,,,,,,,,p08_marygach_08022022,001,2022_Aug_02_1412,test_typingtask_norepeats,2020.2.10,61.11728820136492,
puppy,puppy,,,,,0,108,108,108,,,,,,,,,,876.4491572989996,None,"['p', 'u', 'p', 'y']",0,"[1.1595045120002396, 1.3036361600002238, 1.495543717000146, 1.9675019670003167]",876.4491572989996,None,876.4491347364999,876.5490452009999,,,,,,,,,,,,p08_marygach_08022022,001,2022_Aug_02_1412,test_typingtask_norepeats,2020.2.10,61.11728820136492,
zibja,zibja,,,,,0,109,109,109,,,,,,,,,,881.9490251769998,None,"['z', 'i', 'b', 'j', 'a']",1,"[1.083686207000028, 1.2836298300003364, 1.4436214560000735, 1.7236947670003246, 1.8276719170003162]",881.9490251769998,None,881.9493650654997,882.049208209,,,,,,,,,,,,p08_marygach_08022022,001,2022_Aug_02_1412,test_typingtask_norepeats,2020.2.10,61.11728820136492,
would,would,,,,,0,110,110,110,,,,,,,,,,887.4490273489996,None,"['w', 'o', 'u', 'o', 'l', 'd']",0,"[0.9436249800000951, 1.1917463629997656, 1.351620623999679, 1.52766290999989, 1.6556390769997051, 1.8077390589996867]",887.4490273489996,None,887.4491565264996,887.5492865449996,,,,,,,,,,,,p08_marygach_08022022,001,2022_Aug_02_1412,test_typingtask_norepeats,2020.2.10,61.11728820136492,
champ,champ,,,,,0,111,111,111,,,,,,,,,,892.9490822369999,None,"['c', 'h', 'a', 'm', 'p']",1,"[0.7636702270001479, 0.8916370590000042, 1.0916896580001776, 1.1796515080000063, 1.315647010000248]",892.9490822369999,None,892.9491497815,893.0492367519996,,,,,,,,,,,,p08_marygach_08022022,001,2022_Aug_02_1412,test_typingtask_norepeats,2020.2.10,61.11728820136492,
there,there,,,,,0,112,112,112,,,,,,,,,,898.4494695119997,None,"['t', 'h', 'e', 'r', 'e']",1,"[0.7993112839999412, 0.9912020619999566, 1.1271965079999973, 1.2792567989999952, 1.3591946579999785]",898.4494695119997,None,898.4494488004996,898.5495926869999,,,,,,,,,,,,p08_marygach_08022022,001,2022_Aug_02_1412,test_typingtask_norepeats,2020.2.10,61.11728820136492,
haole,haole,,,,,0,113,113,113,,,,,,,,,,903.949102089,None,"['h', 'a', 'o', 'l', 'e']",1,"[0.8356604020000304, 0.9315988759999527, 1.11561465900013, 1.2996288119998098, 1.3636402759998418]",903.949102089,None,903.9491630044997,904.0492365699997,,,,,,,,,,,,p08_marygach_08022022,001,2022_Aug_02_1412,test_typingtask_norepeats,2020.2.10,61.11728820136492,
cooed,cooed,,,,,0,114,114,114,,,,,,,,,,909.4491293009996,None,"['c', 'o', 'o', 'e', 'd']",1,"[0.9276028079998468, 1.135634366999966, 1.2795982699999513, 1.4236422319995654, 1.615634597999815]",909.4491293009996,None,909.4490601234995,909.5492547159997,,,,,,,,,,,,p08_marygach_08022022,001,2022_Aug_02_1412,test_typingtask_norepeats,2020.2.10,61.11728820136492,
druze,druze,,,,,0,115,115,115,,,,,,,,,,914.9493859969998,None,"['d', 'r', 'u', 'z', 'e']",1,"[0.9873732580003889, 1.2033078580002439, 1.4033873410003253, 1.707430738000312, 1.9393920700003946]",914.9493859969998,None,914.9490815034999,915.0491632769999,,,,,,,,,,,,p08_marygach_08022022,001,2022_Aug_02_1412,test_typingtask_norepeats,2020.2.10,61.11728820136492,
theme,theme,,,,,0,116,116,116,,,,,,,,,,920.4491959019997,None,"['t', 'h', 'e', 'm']",0,"[0.9355054580000797, 1.1355716709999797, 1.255584085999999, 1.3835696559999633]",920.4491959019997,None,920.4492695574997,920.549065275,,,,,,,,,,,,p08_marygach_08022022,001,2022_Aug_02_1412,test_typingtask_norepeats,2020.2.10,61.11728820136492,
tithe,tithe,,,,,0,117,117,117,,,,,,,,,,925.9492526949998,None,"['t', 'i', 't', 'h', 'e']",1,"[0.8594040170000881, 1.0434415259996968, 1.3394908410000426, 1.6114909029997762, 1.7554918830001043]",925.9492526949998,None,925.9493556204995,926.0491506139997,,,,,,,,,,,,p08_marygach_08022022,001,2022_Aug_02_1412,test_typingtask_norepeats,2020.2.10,61.11728820136492,
kremp,kremp,,,,,0,118,118,118,,,,,,,,,,931.449644114,None,"['k', 'r', 'e', 'm', 'p']",1,"[1.0711498099999517, 1.21508375600024, 1.4231667700000799, 1.5111233249999714, 1.655135855000026]",931.449644114,None,931.4496173744999,931.5496460179997,,,,,,,,,,,,p08_marygach_08022022,001,2022_Aug_02_1412,test_typingtask_norepeats,2020.2.10,61.11728820136492,
buddy,buddy,,,,,0,119,119,119,,,,,,,,,,936.949632976,None,"['b', 'u', 'd', 'd', 'y']",1,"[0.9471401669998158, 1.0750990950000414, 1.2351287679998677, 1.3790899989999161, 1.4670243340001434]",936.949632976,None,936.9494869084999,937.049572982,,,,,,,,,,,,p08_marygach_08022022,001,2022_Aug_02_1412,test_typingtask_norepeats,2020.2.10,61.11728820136492,
buddy,buddy,,,,,,,,,0,0,0,0,,,,966.0497743714998,966.3496017959997,,,,,,,,,,943.4329825619998,None,967.0235605459998,None,"['b', 'u', 'd', 'd', 'y']",1,"[1.361169525999685, 1.497184697999728, 1.657091175000005, 1.7930717409999488, 1.881088779000038]",967.0235605459998,None,967.0163787634999,967.1165290069998,p08_marygach_08022022,001,2022_Aug_02_1412,test_typingtask_norepeats,2020.2.10,61.11728820136492,
vanru,vanru,,,,,,,,,0,1,1,1,,,,,,,,,,,,,,,,,972.53284042,None,"['a', 'n', 'r', 'u']",0,"[1.0279069939997498, 1.7079400170000554, 1.8758268120000139, 1.9798913350000475]",972.53284042,None,972.5326664584998,972.6326261429999,p08_marygach_08022022,001,2022_Aug_02_1412,test_typingtask_norepeats,2020.2.10,61.11728820136492,
buddy,buddy,,,,,,,,,0,2,2,2,,,,,,,,,,,,,,,,,978.033084445,None,"['b', 'u', 'u', 'd', 'y']",0,"[1.0876907070000925, 1.2316824540002926, 1.3595671500002027, 1.5276587220000692, 1.639652056000159]",978.033084445,None,978.0330217034996,978.133004456,p08_marygach_08022022,001,2022_Aug_02_1412,test_typingtask_norepeats,2020.2.10,61.11728820136492,
cooed,cooed,,,,,,,,,0,3,3,3,,,,,,,,,,,,,,,,,983.5325070949998,None,"['c', 'o', 'o', 'e', 'd']",1,"[0.7322665870001401, 0.9562033930001235, 1.0921871930004272, 1.1961864030004108, 1.3722578700003396]",983.5325070949998,None,983.5325749974998,983.6326150239997,p08_marygach_08022022,001,2022_Aug_02_1412,test_typingtask_norepeats,2020.2.10,61.11728820136492,
cheer,cheer,,,,,,,,,0,4,4,4,,,,,,,,,,,,,,,,,989.0329088219996,None,"['c', 'h', 'e', 'e', 'r']",1,"[0.8318524579999576, 1.047756468999978, 1.2238700289999542, 1.3918880869996428, 1.583746981999866]",989.0329088219996,None,989.0329361385,989.1327814329998,p08_marygach_08022022,001,2022_Aug_02_1412,test_typingtask_norepeats,2020.2.10,61.11728820136492,
kremp,kremp,,,,,,,,,0,5,5,5,,,,,,,,,,,,,,,,,994.5325219349997,None,"['k', 'r', 'e', 'm', 'p']",1,"[1.1722396780000963, 1.2922593210000741, 1.4922548770000503, 1.5802037170001313, 1.6922908270003063]",994.5325219349997,None,994.5326319234998,994.6329752249999,p08_marygach_08022022,001,2022_Aug_02_1412,test_typingtask_norepeats,2020.2.10,61.11728820136492,
therm,therm,,,,,,,,,0,6,6,6,,,,,,,,,,,,,,,,,1000.0325546009999,None,"['t', 'h', 'e', 'r', 'm']",1,"[1.0242095810003775, 1.400171679000323, 1.6481477840002299, 1.7681064980001793, 2.144094733000202]",1000.0325546009999,None,1000.0327765324998,1000.133070721,p08_marygach_08022022,001,2022_Aug_02_1412,test_typingtask_norepeats,2020.2.10,61.11728820136492,
pykka,pykka,,,,,,,,,0,7,7,7,,,,,,,,,,,,,,,,,1005.5331281099998,None,"['p', 'y', 'k', 'k', 'a']",1,"[0.9236540039996726, 1.3395568939999976, 1.6595319819998622, 1.803622324999651, 1.9156368109997857]",1005.5331281099998,None,1005.5334639524997,1005.632644927,p08_marygach_08022022,001,2022_Aug_02_1412,test_typingtask_norepeats,2020.2.10,61.11728820136492,
tithe,tithe,,,,,,,,,0,8,8,8,,,,,,,,,,,,,,,,,1011.0328645559998,None,"['t', 'i', 't', 'h', 'e']",1,"[0.8158886159999383, 0.9757785909996528, 1.2878814079999756, 1.5038948979999986, 1.5918758230000094]",1011.0328645559998,None,1011.0328641184999,1011.1329660669999,p08_marygach_08022022,001,2022_Aug_02_1412,test_typingtask_norepeats,2020.2.10,61.11728820136492,
haole,haole,,,,,,,,,0,9,9,9,,,,,,,,,,,,,,,,,1016.5331162349999,None,"['h', 'a', 'o', 'l', 'e']",1,"[0.995550237000316, 1.171540627000013, 1.4675383369999508, 1.6917324159999225, 1.7556504950002818]",1016.5331162349999,None,1016.5329335814997,1016.6330318259998,p08_marygach_08022022,001,2022_Aug_02_1412,test_typingtask_norepeats,2020.2.10,61.11728820136492,
theme,theme,,,,,,,,,0,10,10,10,,,,,,,,,,,,,,,,,1022.0327167219998,None,"['t', 'h', 'e', 'm']",0,"[0.9919681060000585, 1.2000493699997605, 1.2800594740001543, 1.448017911000079]",1022.0327167219998,None,1022.0325919384998,1022.1326507429999,p08_marygach_08022022,001,2022_Aug_02_1412,test_typingtask_norepeats,2020.2.10,61.11728820136492,
think,think,,,,,,,,,0,11,11,11,,,,,,,,,,,,,,,,,1027.5328734549998,None,"['t', 'h', 'i', 'n', 'k']",1,"[0.7798741290002908, 0.8918769710003289, 1.0518955580000693, 1.251886743000341, 1.4279152120002436]",1027.5328734549998,None,1027.5330059374999,1027.6328081699999,p08_marygach_08022022,001,2022_Aug_02_1412,test_typingtask_norepeats,2020.2.10,61.11728820136492,
vodka,vodka,,,,,,,,,0,12,12,12,,,,,,,,,,,,,,,,,1033.032987612,None,"['v', 'o', 'd', 'k', 'a']",1,"[1.1357831269997405, 1.3918232749997514, 1.599768192999818, 1.7836697819998335, 1.9836699509996834]",1033.032987612,None,1033.0329951544998,1033.1328061079998,p08_marygach_08022022,001,2022_Aug_02_1412,test_typingtask_norepeats,2020.2.10,61.11728820136492,
lucky,lucky,,,,,,,,,0,13,13,13,,,,,,,,,,,,,,,,,1038.532999182,None,"['l', 'u', 'c', 'k', 'y']",1,"[0.8117870849996507, 1.1077801849996831, 1.4517657169999438, 1.5556599249998726, 1.8197704219996922]",1038.532999182,None,1038.5331146385,1038.6329189999997,p08_marygach_08022022,001,2022_Aug_02_1412,test_typingtask_norepeats,2020.2.10,61.11728820136492,
heond,heond,,,,,,,,,0,14,14,14,,,,,,,,,,,,,,,,,1044.0329826329998,None,"['h', 'e', 'o', 'n', 'd']",1,"[0.7836799249998876, 0.9197552719997475, 0.9596878579995973, 1.0877956269996503, 1.2077842979997513]",1044.0329826329998,None,1044.0331436344998,1044.133137677,p08_marygach_08022022,001,2022_Aug_02_1412,test_typingtask_norepeats,2020.2.10,61.11728820136492,
faqir,faqir,,,,,,,,,0,15,15,15,,,,,,,,,,,,,,,,,1049.5328247329999,None,"['f', 'a', 'q', 'i', 'r', 'space']",0,"[0.8678074149997883, 0.987903223000103, 1.203899402999923, 1.5318972489999396, 1.7319034150000334, 1.883849930999986]",1049.5328247329999,None,1049.5327710354998,1049.632811726,p08_marygach_08022022,001,2022_Aug_02_1412,test_typingtask_norepeats,2020.2.10,61.11728820136492,
tithe,tithe,,,,,,,,,0,16,16,16,,,,,,,,,,,,,,,,,1055.0327445799999,None,"['t', 'i', 't', 'h', 'e']",1,"[0.9360165299999608, 1.0800058380000337, 1.1759324959998594, 1.3120315639998807, 1.5119384260001425]",1055.0327445799999,None,1055.0328374585,1055.1330871589998,p08_marygach_08022022,001,2022_Aug_02_1412,test_typingtask_norepeats,2020.2.10,61.11728820136492,
theme,theme,,,,,,,,,0,17,17,17,,,,,,,,,,,,,,,,,1060.5326361469997,None,"['t', 'h', 'e', 'm', 'e']",1,"[0.7640899870002613, 1.0839945669999906, 1.804137313999945, 1.9400186160000885, 2.0281502860002547]",1060.5326361469997,None,1060.5327079114998,1060.6327489629998,p08_marygach_08022022,001,2022_Aug_02_1412,test_typingtask_norepeats,2020.2.10,61.11728820136492,
would,would,,,,,,,,,0,18,18,18,,,,,,,,,,,,,,,,,1066.0329502949999,None,"['w', 'o', 'u', 'l', 'd']",1,"[0.9437419430000773, 1.4798101310002494, 1.6398270150002645, 1.8878155319998768, 2.0077879820000817]",1066.0329502949999,None,1066.0332746074998,1066.1332164719997,p08_marygach_08022022,001,2022_Aug_02_1412,test_typingtask_norepeats,2020.2.10,61.11728820136492,
edthe,edthe,,,,,,,,,0,19,19,19,,,,,,,,,,,,,,,,,1071.532622541,None,"['e', 'd', 't', 'h', 'e']",1,"[0.6600848110001607, 0.8840178420000484, 1.1241916260000835, 1.3241568819998975, 1.3641226989998358]",1071.532622541,None,1071.5329943684999,1071.632829703,p08_marygach_08022022,001,2022_Aug_02_1412,test_typingtask_norepeats,2020.2.10,61.11728820136492,
belly,belly,,,,,,,,,0,20,20,20,,,,,,,,,,,,,,,,,1077.0330603129996,None,"['b', 'e', 'l', 'l', 'y']",1,"[0.6956785329998638, 0.7917790219999006, 1.0397118460000456, 1.1835945630000424, 1.4236573529997258]",1077.0330603129996,None,1077.0330037974998,1077.1330764599998,p08_marygach_08022022,001,2022_Aug_02_1412,test_typingtask_norepeats,2020.2.10,61.11728820136492,
champ,champ,,,,,,,,,0,21,21,21,,,,,,,,,,,,,,,,,1082.5327383249996,None,"['c', 'h', 'a', 'm', 'p']",1,"[0.8679223509998337, 1.0520250869999472, 1.2839168499999687, 1.3959702509996532, 1.595946831999754]",1082.5327383249996,None,1082.5328778014998,1082.6329611789997,p08_marygach_08022022,001,2022_Aug_02_1412,test_typingtask_norepeats,2020.2.10,61.11728820136492,
vanru,vanru,,,,,,,,,0,22,22,22,,,,,,,,,,,,,,,,,1088.0332474299998,None,"['v', 'a', 'n', 'r', 'u']",1,"[0.7915884499998356, 0.9594087899999977, 1.1115005020001263, 1.2874681170001168, 1.7114825779999592]",1088.0332474299998,None,1088.0328180964996,1088.1332163909997,p08_marygach_08022022,001,2022_Aug_02_1412,test_typingtask_norepeats,2020.2.10,61.11728820136492,
belly,belly,,,,,,,,,0,23,23,23,,,,,,,,,,,,,,,,,1093.533140129,None,"['b', 'e', 'l', 'l', 'y']",1,"[0.7716266130000804, 0.8996193520001725, 1.1556366300001173, 1.3076384099999814, 1.5316174360000332]",1093.533140129,None,1093.5329182064995,1093.6331886049998,p08_marygach_08022022,001,2022_Aug_02_1412,test_typingtask_norepeats,2020.2.10,61.11728820136492,
pykka,pykka,,,,,,,,,0,24,24,24,,,,,,,,,,,,,,,,,1099.0328474379999,None,"['p', 'y', 'k', 'k', 'a']",1,"[0.9438040700001693, 1.2798601890003738, 1.5759645880002608, 1.711856273000194, 1.7919353710003634]",1099.0328474379999,None,1099.0329191614999,1099.133191382,p08_marygach_08022022,001,2022_Aug_02_1412,test_typingtask_norepeats,2020.2.10,61.11728820136492,
buddy,buddy,,,,,,,,,0,25,25,25,,,,,,,,,,,,,,,,,1104.5329975529999,None,"['b', 'u', 'd', 'd', 'y']",1,"[0.9637670349998189, 1.091849029000059, 1.219788600999891, 1.3718171249997795, 1.467661274999955]",1104.5329975529999,None,1104.5330970834996,1104.6329132319997,p08_marygach_08022022,001,2022_Aug_02_1412,test_typingtask_norepeats,2020.2.10,61.11728820136492,
zibja,zibja,,,,,,,,,0,26,26,26,,,,,,,,,,,,,,,,,1110.0328458669997,None,"['z', 'i', 'b', 'j', 'a']",1,"[1.1359238519999053, 1.4239349180002137, 1.5999165799998991, 1.8398512130002018, 1.9759365419999995]",1110.0328458669997,None,1110.0327097015,1110.1327465569998,p08_marygach_08022022,001,2022_Aug_02_1412,test_typingtask_norepeats,2020.2.10,61.11728820136492,
belly,belly,,,,,,,,,0,27,27,27,,,,,,,,,,,,,,,,,1115.5331866299998,None,"['b', 'e', 'l', 'l', 'y']",1,"[0.8115610350000679, 0.9475520679998226, 1.2115664259999903, 1.3635847499999727, 1.5874789899999087]",1115.5331866299998,None,1115.5331695404996,1115.6330915089998,p08_marygach_08022022,001,2022_Aug_02_1412,test_typingtask_norepeats,2020.2.10,61.11728820136492,
champ,champ,,,,,,,,,0,28,28,28,,,,,,,,,,,,,,,,,1121.0327130789997,None,"['c', 'h', 'a', 'm', 'o', 'p']",0,"[0.767944234999959, 0.8880585990000327, 1.1360325010000452, 1.2640679319997616, 1.3920119780000277, 1.3920119780000277]",1121.0327130789997,None,1121.0328285804997,1121.1328629219997,p08_marygach_08022022,001,2022_Aug_02_1412,test_typingtask_norepeats,2020.2.10,61.11728820136492,
think,think,,,,,,,,,0,29,29,29,,,,,,,,,,,,,,,,,1126.5327381109996,None,"['t', 'h', 'i', 'n', 'k']",1,"[0.7640256059999047, 0.9799964039998486, 1.043911947000197, 1.2200366679999206, 1.3720479949997753]",1126.5327381109996,None,1126.5328108514998,1126.6329140399998,p08_marygach_08022022,001,2022_Aug_02_1412,test_typingtask_norepeats,2020.2.10,61.11728820136492,
there,there,,,,,,,,,0,30,30,30,,,,,,,,,,,,,,,,,1132.0328423029996,None,"['t', 'h', 'e', 'r']",0,"[0.9838018899999952, 1.1677950379998947, 1.2638852370000677, 1.399837208000008]",1132.0328423029996,None,1132.0328099204996,1132.1328017399996,p08_marygach_08022022,001,2022_Aug_02_1412,test_typingtask_norepeats,2020.2.10,61.11728820136492,
heond,heond,,,,,,,,,0,31,31,31,,,,,,,,,,,,,,,,,1137.5330764589999,None,"['h', 'e', 'o', 'n', 'd']",1,"[1.003652417000012, 1.1156869599999482, 1.1715710500002388, 1.3396421030001875, 1.459588905000146]",1137.5330764589999,None,1137.5332519264996,1137.633078375,p08_marygach_08022022,001,2022_Aug_02_1412,test_typingtask_norepeats,2020.2.10,61.11728820136492,
edthe,edthe,,,,,,,,,0,32,32,32,,,,,,,,,,,,,,,,,1143.033079846,None,"['e', 'd', 't', 'h', 'e']",1,"[0.6316815430000133, 0.8316430899999432, 1.0156818579998799, 1.2077076199998373, 1.263623859999825]",1143.033079846,None,1143.0331994024998,1143.1332181369999,p08_marygach_08022022,001,2022_Aug_02_1412,test_typingtask_norepeats,2020.2.10,61.11728820136492,
faqir,faqir,,,,,,,,,0,33,33,33,,,,,,,,,,,,,,,,,1148.5328590119998,None,"['f', 'a', 'q', 'i', 'r']",1,"[1.0358247529998152, 1.2199066590001166, 1.4437964039998405, 1.8198653899999044, 2.0518974599999638]",1148.5328590119998,None,1148.5329542435,1148.6328441429996,p08_marygach_08022022,001,2022_Aug_02_1412,test_typingtask_norepeats,2020.2.10,61.11728820136492,
about,about,,,,,,,,,0,34,34,34,,,,,,,,,,,,,,,,,1154.0331894759997,None,"['a', 'b', 'o', 'u', 't']",1,"[0.7674494560001222, 0.9115665620001892, 1.143464208000296, 1.271597949000352, 1.391481333000229]",1154.0331894759997,None,1154.0332316984998,1154.1331189549996,p08_marygach_08022022,001,2022_Aug_02_1412,test_typingtask_norepeats,2020.2.10,61.11728820136492,
puppy,puppy,,,,,,,,,0,35,35,35,,,,,,,,,,,,,,,,,1159.5330435439996,None,"['p', 'u', 'u', 'p', 'p', 'y']",0,"[1.2037294599999768, 1.3716223400001581, 1.5716972179998265, 2.1956617219998407, 2.3476578320000954, 2.467615689000013]",1159.5330435439996,None,1159.5328090694995,1159.6328483939997,p08_marygach_08022022,001,2022_Aug_02_1412,test_typingtask_norepeats,2020.2.10,61.11728820136492,
faqir,faqir,,,,,,,,,0,36,36,36,,,,,,,,,,,,,,,,,1165.0328086979998,None,"['f', 'a', 'q', 'i', 'r']",1,"[1.0238564450000922, 1.1919032710002284, 1.4079553280002983, 1.6879201730002933, 1.8798906120000538]",1165.0328086979998,None,1165.0328148844999,1165.1329719999999,p08_marygach_08022022,001,2022_Aug_02_1412,test_typingtask_norepeats,2020.2.10,61.11728820136492,
druze,druze,,,,,,,,,0,37,37,37,,,,,,,,,,,,,,,,,1170.5331534309998,None,"['d', 'r', 'u', 'z', 'z', 'e']",0,"[0.8276470679998056, 1.059509066999908, 1.2995710379996126, 1.5955591049996656, 1.923494689999643, 2.1955467650000173]",1170.5331534309998,None,1170.5329673254998,1170.6333286659997,p08_marygach_08022022,001,2022_Aug_02_1412,test_typingtask_norepeats,2020.2.10,61.11728820136492,
buddy,buddy,,,,,,,,,0,38,38,38,,,,,,,,,,,,,,,,,1176.033195042,None,"['b', 'u', 'd', 'd', 'y']",1,"[0.8395814330001485, 0.9915892710000662, 1.1834608449998996, 1.3434574430002613, 1.431567436000023]",1176.033195042,None,1176.0332734334995,1176.1331807409997,p08_marygach_08022022,001,2022_Aug_02_1412,test_typingtask_norepeats,2020.2.10,61.11728820136492,
think,think,,,,,,,,,0,39,39,39,,,,,,,,,,,,,,,,,1181.5330947579996,None,"['t', 'h', 'i', 'n', 'k']",1,"[0.8037029369997981, 0.9316651069998443, 1.0435552829999324, 1.2196744650000255, 1.3556723249998868]",1181.5330947579996,None,1181.5330375754995,1181.6328636589997,p08_marygach_08022022,001,2022_Aug_02_1412,test_typingtask_norepeats,2020.2.10,61.11728820136492,
therm,therm,,,,,,,,,0,40,40,40,,,,,,,,,,,,,,,,,1187.033174829,None,"['t', 'h', 'e', 'r', 'm']",1,"[0.8955323759996645, 1.1434760089996416, 1.2475234019998425, 1.431530181999733, 1.5354773929998373]",1187.033174829,None,1187.0331998074996,1187.133208884,p08_marygach_08022022,001,2022_Aug_02_1412,test_typingtask_norepeats,2020.2.10,61.11728820136492,
cooed,cooed,,,,,,,,,0,41,41,41,,,,,,,,,,,,,,,,,1192.5336366959996,None,"['c', 'o', 'o', 'e', 'd']",1,"[0.7151203839998743, 0.9310649079998257, 1.0751038549997247, 1.163125893999677, 1.347028582999883]",1192.5336366959996,None,1192.5331090284997,1192.6331207669996,p08_marygach_08022022,001,2022_Aug_02_1412,test_typingtask_norepeats,2020.2.10,61.11728820136492,
tithe,tithe,,,,,,,,,0,42,42,42,,,,,,,,,,,,,,,,,1198.033470118,None,"['t', 'i', 't', 'h', 'e']",1,"[0.7832256020001296, 0.9591858270000557, 1.1431964360003803, 1.191302127000199, 1.4232384400002047]",1198.033470118,None,1198.0332944154995,1198.13327429,p08_marygach_08022022,001,2022_Aug_02_1412,test_typingtask_norepeats,2020.2.10,61.11728820136492,
cheer,cheer,,,,,,,,,0,43,43,43,,,,,,,,,,,,,,,,,1203.5332780089998,None,"['c', 'h', 'e', 'e', 'r']",1,"[0.7394393479999053, 0.9314700549998634, 1.0994737920000262, 1.2513652899997396, 1.4753926289999981]",1203.5332780089998,None,1203.5333455784996,1203.6333823339996,p08_marygach_08022022,001,2022_Aug_02_1412,test_typingtask_norepeats,2020.2.10,61.11728820136492,
therm,therm,,,,,,,,,0,44,44,44,,,,,,,,,,,,,,,,,1209.0331780519996,None,"['t', 'h', 'e', 'r', 'm']",1,"[0.8395074290001503, 1.0556036769999082, 1.1594864480002798, 1.367473861000235, 1.4636187629998858]",1209.0331780519996,None,1209.0333560344995,1209.1331698879999,p08_marygach_08022022,001,2022_Aug_02_1412,test_typingtask_norepeats,2020.2.10,61.11728820136492,
vanru,vanru,,,,,,,,,0,45,45,45,,,,,,,,,,,,,,,,,1214.5331437099999,None,"['v', 'a', 'n', 'r', 'u']",1,"[0.9156182920000902, 1.0356237279997913, 1.2196294179998404, 1.4196219750001546, 1.587610759999734]",1214.5331437099999,None,1214.5332597054996,1214.6332552699996,p08_marygach_08022022,001,2022_Aug_02_1412,test_typingtask_norepeats,2020.2.10,61.11728820136492,
vodka,vodka,,,,,,,,,0,46,46,46,,,,,,,,,,,,,,,,,1220.0332067199997,None,"['v', 'o', 'd', 'k', 'a']",1,"[1.1594439890000103, 1.5035688650000338, 1.7755105860001095, 2.16745254999978, 2.279565082999852]",1220.0332067199997,None,1220.0332353684996,1220.1333379999996,p08_marygach_08022022,001,2022_Aug_02_1412,test_typingtask_norepeats,2020.2.10,61.11728820136492,
would,would,,,,,,,,,0,47,47,47,,,,,,,,,,,,,,,,,1225.5331366829996,None,"['w', 'o', 'u', 'l', 'd']",1,"[0.9315398700000515, 1.051564277000125, 1.179566272000102, 1.3796193899997888, 1.51562640200018]",1225.5331366829996,None,1225.5333339674996,1225.6334410639997,p08_marygach_08022022,001,2022_Aug_02_1412,test_typingtask_norepeats,2020.2.10,61.11728820136492,
haole,haole,,,,,,,,,0,48,48,48,,,,,,,,,,,,,,,,,1231.033040194,None,"['h', 'a', 'o', 'l', 'e']",1,"[0.8557297860002109, 0.9916559640000742, 1.1436127910001233, 1.3277535410002201, 1.3917179549998764]",1231.033040194,None,1231.0328798924995,1231.1329496999997,p08_marygach_08022022,001,2022_Aug_02_1412,test_typingtask_norepeats,2020.2.10,61.11728820136492,
cheer,cheer,,,,,,,,,0,49,49,49,,,,,,,,,,,,,,,,,1236.5333956779996,None,"['c', 'h', 'e', 'e', 'r']",1,"[0.7472973439998896, 0.875242531999902, 1.0752555869999014, 1.2432639369999379, 1.5073839560000124]",1236.5333956779996,None,1236.5330855034997,1236.633307745,p08_marygach_08022022,001,2022_Aug_02_1412,test_typingtask_norepeats,2020.2.10,61.11728820136492,
puppy,puppy,,,,,,,,,0,50,50,50,,,,,,,,,,,,,,,,,1242.033293131,None,"['p', 'u', 'p', 'p', 'y']",1,"[1.0874026360002063, 1.3114337910001268, 1.5834350159998394, 1.727413942000112, 1.9994325369998478]",1242.033293131,None,1242.0332309144999,1242.1332388819997,p08_marygach_08022022,001,2022_Aug_02_1412,test_typingtask_norepeats,2020.2.10,61.11728820136492,
about,about,,,,,,,,,0,51,51,51,,,,,,,,,,,,,,,,,1247.533525713,None,"['a', 'b', 'o', 'u', 't']",1,"[0.7872021420002966, 0.9232532500000161, 1.2352540169999884, 1.347175322000112, 1.57125728300025]",1247.533525713,None,1247.5334315495,1247.6331922669997,p08_marygach_08022022,001,2022_Aug_02_1412,test_typingtask_norepeats,2020.2.10,61.11728820136492,
vodka,vodka,,,,,,,,,0,52,52,52,,,,,,,,,,,,,,,,,1253.0331490039998,None,"['v', 'o', 'd', 'k', 'a']",1,"[1.0875828869998259, 1.327637778999815, 1.5675070259999302, 1.7595087659997262, 1.9755081729999802]",1253.0331490039998,None,1253.0330526134996,1253.1328941919996,p08_marygach_08022022,001,2022_Aug_02_1412,test_typingtask_norepeats,2020.2.10,61.11728820136492,
there,there,,,,,,,,,0,53,53,53,,,,,,,,,,,,,,,,,1258.5334620899998,None,"['t', 'h', 'e', 'r', 'e']",1,"[0.8513024700000642, 1.0512875180002084, 1.1632327920001444, 1.299269785999968, 1.3551932129998931]",1258.5334620899998,None,1258.5332559084998,1258.633223634,p08_marygach_08022022,001,2022_Aug_02_1412,test_typingtask_norepeats,2020.2.10,61.11728820136492,
puppy,puppy,,,,,,,,,0,54,54,54,,,,,,,,,,,,,,,,,1264.03313872,None,"['p', 'u', 'p', 'p', 'y']",1,"[0.7835396979999132, 1.2236369019997255, 1.4795232189999297, 1.6475634929997796, 1.7916247739999562]",1264.03313872,None,1264.0329480444996,1264.1334128159997,p08_marygach_08022022,001,2022_Aug_02_1412,test_typingtask_norepeats,2020.2.10,61.11728820136492,
therm,therm,,,,,,,,,0,55,55,55,,,,,,,,,,,,,,,,,1269.5331597609998,None,"['t', 'h', 'e', 'r', 'm']",1,"[0.9314964770001097, 1.139564115000212, 1.203558200000316, 1.3474914910002553, 1.6355783680000968]",1269.5331597609998,None,1269.5331611534996,1269.6331314199997,p08_marygach_08022022,001,2022_Aug_02_1412,test_typingtask_norepeats,2020.2.10,61.11728820136492,
faqir,faqir,,,,,,,,,0,56,56,56,,,,,,,,,,,,,,,,,1275.0330018219997,None,"['f', 'a', 'q', 'i', 'r']",1,"[0.8317049269999188, 1.0076617959998657, 1.2077325689997451, 1.4717745560001276, 1.607727285999772]",1275.0330018219997,None,1275.0330555414996,1275.1330671329997,p08_marygach_08022022,001,2022_Aug_02_1412,test_typingtask_norepeats,2020.2.10,61.11728820136492,
puppy,puppy,,,,,,,,,0,57,57,57,,,,,,,,,,,,,,,,,1280.5331128619996,None,"['p', 'u', 'p', 'p', 'y']",1,"[0.7875400749999244, 1.0276367940000455, 1.2516517210001439, 1.395545286000015, 1.6356414819997553]",1280.5331128619996,None,1280.5333309224995,1280.6332632939998,p08_marygach_08022022,001,2022_Aug_02_1412,test_typingtask_norepeats,2020.2.10,61.11728820136492,
heond,heond,,,,,,,,,0,58,58,58,,,,,,,,,,,,,,,,,1286.0327807189997,None,"['h', 'e', 'o', 'n', 'd']",1,"[0.9039489100000537, 1.0079468119997728, 1.0958701389999987, 1.2479069969999728, 1.3278709490000438]",1286.0327807189997,None,1286.0326852795,1286.133361402,p08_marygach_08022022,001,2022_Aug_02_1412,test_typingtask_norepeats,2020.2.10,61.11728820136492,
haole,haole,,,,,,,,,0,59,59,59,,,,,,,,,,,,,,,,,1291.532962546,None,"['h', 'a', 'o', 'l', 'e']",1,"[0.8757087929998306, 1.0197782779996487, 1.523764024999764, 1.6997880099997928, 1.7558184149997942]",1291.532962546,None,1291.5331626324999,1291.6330984899996,p08_marygach_08022022,001,2022_Aug_02_1412,test_typingtask_norepeats,2020.2.10,61.11728820136492,
pykka,pykka,,,,,,,,,0,60,60,60,,,,,,,,,,,,,,,,,1297.033313807,None,"['p', 'y', 'k', 'k', 'a']",1,"[0.8234525990001202, 1.1673446429999785, 1.4473258279999754, 1.5834295690001454, 1.6554672860002029]",1297.033313807,None,1297.0334698164995,1297.1334708219997,p08_marygach_08022022,001,2022_Aug_02_1412,test_typingtask_norepeats,2020.2.10,61.11728820136492,
edthe,edthe,,,,,,,,,0,61,61,61,,,,,,,,,,,,,,,,,1302.533279116,None,"['e', 'd', 't', 'h', 'e']",1,"[0.8275154090001706, 1.01954424700034, 1.1793880909999643, 1.3554995469999085, 1.395440520000193]",1302.533279116,None,1302.5331204885,1302.6331475509996,p08_marygach_08022022,001,2022_Aug_02_1412,test_typingtask_norepeats,2020.2.10,61.11728820136492,
there,there,,,,,,,,,0,62,62,62,,,,,,,,,,,,,,,,,1308.0331616909998,None,"['t', 'h', 'e', 'r', 'e']",1,"[0.8155946309998399, 1.0155681679998452, 1.095489058000112, 1.247586057999797, 1.2875628319998214]",1308.0331616909998,None,1308.0330256774998,1308.133114413,p08_marygach_08022022,001,2022_Aug_02_1412,test_typingtask_norepeats,2020.2.10,61.11728820136492,
vanru,vanru,,,,,,,,,0,63,63,63,,,,,,,,,,,,,,,,,1313.5332613209998,None,"['v', 'a', 'n', 'r', 'u']",1,"[0.8115480619999289, 0.9235027229997286, 1.0674173689999407, 1.243376621999687, 1.3793920640000579]",1313.5332613209998,None,1313.5333064544996,1313.6334954589997,p08_marygach_08022022,001,2022_Aug_02_1412,test_typingtask_norepeats,2020.2.10,61.11728820136492,
puppy,puppy,,,,,,,,,0,64,64,64,,,,,,,,,,,,,,,,,1319.0331425669997,None,"['p', 'u', 'p', 'p', 'y']",1,"[0.8956588040000497, 1.2396214059999693, 1.47952064600031, 1.6236310570002388, 1.9435315110004012]",1319.0331425669997,None,1319.0331537714999,1319.1329179279996,p08_marygach_08022022,001,2022_Aug_02_1412,test_typingtask_norepeats,2020.2.10,61.11728820136492,
kremp,kremp,,,,,,,,,0,65,65,65,,,,,,,,,,,,,,,,,1324.5333962769996,None,"['k', 'r', 'e', 'm', 'p']",1,"[0.9713624729997719, 1.0993364659998406, 1.2913051299997278, 1.4113263959998221, 1.5073158820000572]",1324.5333962769996,None,1324.5334681134998,1324.6332793509996,p08_marygach_08022022,001,2022_Aug_02_1412,test_typingtask_norepeats,2020.2.10,61.11728820136492,
zibja,zibja,,,,,,,,,0,66,66,66,,,,,,,,,,,,,,,,,1330.033163133,None,"['z', 'i', 'b', 'j', 'a']",1,"[1.0075580539996736, 1.2715799839997999, 1.3915778839996165, 1.6235768069996084, 1.7355187409998507]",1330.033163133,None,1330.0334184375,1330.133221263,p08_marygach_08022022,001,2022_Aug_02_1412,test_typingtask_norepeats,2020.2.10,61.11728820136492,
druze,druze,,,,,,,,,0,67,67,67,,,,,,,,,,,,,,,,,1335.533424285,None,"['d', 'r', 'u', 'z', 'e']",1,"[0.7073450210000374, 0.9792365200000859, 1.1953749540002718, 1.4672275630000513, 1.7312586570001258]",1335.533424285,None,1335.5333272964997,1335.6334272299996,p08_marygach_08022022,001,2022_Aug_02_1412,test_typingtask_norepeats,2020.2.10,61.11728820136492,
belly,belly,,,,,,,,,0,68,68,68,,,,,,,,,,,,,,,,,1341.0335803629996,None,"['b', 'e', 'l', 'l', 'y']",1,"[0.7511113269997622, 0.8871391279999443, 1.1191909929998474, 1.2631681809998554, 1.4552317489997222]",1341.0335803629996,None,1341.0333467965,1341.1335232009997,p08_marygach_08022022,001,2022_Aug_02_1412,test_typingtask_norepeats,2020.2.10,61.11728820136492,
about,about,,,,,,,,,0,69,69,69,,,,,,,,,,,,,,,,,1346.5335500929996,None,"['a', 'b', 'o', 'u', 't']",1,"[0.7952279400001316, 0.9471936240001924, 1.2271686340000088, 1.3471616570000151, 1.5712065650000113]",1346.5335500929996,None,1346.5335002704999,1346.633508852,p08_marygach_08022022,001,2022_Aug_02_1412,test_typingtask_norepeats,2020.2.10,61.11728820136492,
theme,theme,,,,,,,,,0,70,70,70,,,,,,,,,,,,,,,,,1352.033347401,None,"['t', 'h', 'e', 'm', 'e']",1,"[0.9353691860001163, 1.1753524280002239, 1.3033781540002565, 1.511420679999901, 1.6394330269999955]",1352.033347401,None,1352.0335082354998,1352.133552751,p08_marygach_08022022,001,2022_Aug_02_1412,test_typingtask_norepeats,2020.2.10,61.11728820136492,
lucky,lucky,,,,,,,,,0,71,71,71,,,,,,,,,,,,,,,,,1357.5333226419998,None,"['l', 'u', 'c', 'k', 'y']",1,"[0.947439728000063, 1.2194490030001361, 1.4194420870003341, 1.5313627040000029, 1.8033866610003315]",1357.5333226419998,None,1357.5335867134997,1357.6333827679996,p08_marygach_08022022,001,2022_Aug_02_1412,test_typingtask_norepeats,2020.2.10,61.11728820136492,
cooed,cooed,,,,,,,,,0,72,72,72,,,,,,,,,,,,,,,,,1363.0330953059997,None,"['c', 'o', 'o', 'e', 'd']",1,"[0.8556841970003006, 1.0716831660001844, 1.2156674810003096, 1.335670864000349, 1.5196541530003742]",1363.0330953059997,None,1363.0331960564997,1363.1330694939998,p08_marygach_08022022,001,2022_Aug_02_1412,test_typingtask_norepeats,2020.2.10,61.11728820136492,
pykka,pykka,,,,,,,,,0,73,73,73,,,,,,,,,,,,,,,,,1368.5329859239996,None,"['p', 'y', 'k', 'k', 'a']",1,"[0.9317158490002839, 1.2757039900002383, 1.5317150650002986, 1.675690657999894, 1.7477609699999448]",1368.5329859239996,None,1368.5332020965,1368.6332026169998,p08_marygach_08022022,001,2022_Aug_02_1412,test_typingtask_norepeats,2020.2.10,61.11728820136492,
cooed,cooed,,,,,,,,,0,74,74,74,,,,,,,,,,,,,,,,,1374.0337571659998,None,"['c', 'o', 'o', 'e', 'd']",1,"[0.7429089110000859, 0.8949003490001814, 1.0389728220002326, 1.0870374520000041, 1.2630073570003333]",1374.0337571659998,None,1374.0336729934995,1374.133445473,p08_marygach_08022022,001,2022_Aug_02_1412,test_typingtask_norepeats,2020.2.10,61.11728820136492,
zibja,zibja,,,,,,,,,0,75,75,75,,,,,,,,,,,,,,,,,1379.533655705,None,"['z', 'i', 'b', 'j', 'a']",1,"[0.93100907500002, 1.203129677999641, 1.323107537999931, 1.5709911330000068, 1.6909990449998986]",1379.533655705,None,1379.5334182744998,1379.6334089049997,p08_marygach_08022022,001,2022_Aug_02_1412,test_typingtask_norepeats,2020.2.10,61.11728820136492,
edthe,edthe,,,,,,,,,0,76,76,76,,,,,,,,,,,,,,,,,1385.0335100869997,None,"['e', 'd', 't', 'h', 'e']",1,"[0.8072659909998947, 1.0072696579995863, 1.159150278999732, 1.327195938999921, 1.407258112999898]",1385.0335100869997,None,1385.0333187145,1385.1333257509996,p08_marygach_08022022,001,2022_Aug_02_1412,test_typingtask_norepeats,2020.2.10,61.11728820136492,
about,about,,,,,,,,,0,77,77,77,,,,,,,,,,,,,,,,,1390.5332920689998,None,"['a', 'b', 'o', 'u', 't']",1,"[0.7634721650001666, 0.9154693260002205, 1.1634883280003123, 1.3234777709999435, 1.4354679190000752]",1390.5332920689998,None,1390.5332009395,1390.633059452,p08_marygach_08022022,001,2022_Aug_02_1412,test_typingtask_norepeats,2020.2.10,61.11728820136492,
theme,theme,,,,,,,,,0,78,78,78,,,,,,,,,,,,,,,,,1396.033486671,None,"['t', 'h', 'e', 'm', 'e']",1,"[0.7832375650000358, 0.9832156829997984, 1.0552862439999444, 1.2472084109999741, 1.3671665110000504]",1396.033486671,None,1396.0334867914996,1396.1334805499996,p08_marygach_08022022,001,2022_Aug_02_1412,test_typingtask_norepeats,2020.2.10,61.11728820136492,
zibja,zibja,,,,,,,,,0,79,79,79,,,,,,,,,,,,,,,,,1401.5336160339998,None,"['z', 'i', 'b', 'k', 'a']",0,"[0.9631409109997549, 1.1391633079997519, 1.3071095119998972, 1.5230711239996708, 1.6911131879996901]",1401.5336160339998,None,1401.5335852504998,1401.6333451259998,p08_marygach_08022022,001,2022_Aug_02_1412,test_typingtask_norepeats,2020.2.10,61.11728820136492,
edthe,edthe,,,,,,,,,0,80,80,80,,,,,,,,,,,,,,,,,1407.0335187379997,None,"['e', 'd', 't', 'h', 'e']",1,"[0.6552493849999337, 0.8632108709998647, 1.0871857369997997, 1.2952127589996962, 1.3752467049998813]",1407.0335187379997,None,1407.0335176334995,1407.1338130689996,p08_marygach_08022022,001,2022_Aug_02_1412,test_typingtask_norepeats,2020.2.10,61.11728820136492,
druze,druze,,,,,,,,,0,81,81,81,,,,,,,,,,,,,,,,,1412.5336380239996,None,"['d', 'r', 'u', 'z', 'e']",1,"[0.8991232519997538, 1.6351252019999265, 1.8030956699999479, 2.187140852000084, 2.4430222249998224]",1412.5336380239996,None,1412.5334826775,1412.6336332839996,p08_marygach_08022022,001,2022_Aug_02_1412,test_typingtask_norepeats,2020.2.10,61.11728820136492,
belly,belly,,,,,,,,,0,82,82,82,,,,,,,,,,,,,,,,,1418.033585314,None,"['b', 'e', 'l', 'l', 'y']",1,"[0.7831808730002194, 0.9191825570001129, 1.1991935040000499, 1.3991967470001327, 1.6551333420002265]",1418.033585314,None,1418.0334771264995,1418.1335273589998,p08_marygach_08022022,001,2022_Aug_02_1412,test_typingtask_norepeats,2020.2.10,61.11728820136492,
buddy,buddy,,,,,,,,,0,83,83,83,,,,,,,,,,,,,,,,,1423.5332705219998,None,"['b', 'u', 'd', 'd', 'y']",1,"[0.8195118590001584, 0.9635085590002745, 1.1634676880003099, 1.3235073630003171, 1.4433971630000997]",1423.5332705219998,None,1423.5333840594997,1423.6332632469998,p08_marygach_08022022,001,2022_Aug_02_1412,test_typingtask_norepeats,2020.2.10,61.11728820136492,
about,about,,,,,,,,,0,84,84,84,,,,,,,,,,,,,,,,,1429.0334739179998,None,"['a', 'b', 'o', 'u', 'r', 't']",0,"[0.8152866720001839, 0.9271952879998935, 1.1912914919998912, 1.2952662650000093, 1.45522426000025, 1.45522426000025]",1429.0334739179998,None,1429.0336523224998,1429.1337069639999,p08_marygach_08022022,001,2022_Aug_02_1412,test_typingtask_norepeats,2020.2.10,61.11728820136492,
lucky,lucky,,,,,,,,,0,85,85,85,,,,,,,,,,,,,,,,,1434.533386182,None,"['l', 'u', 'c', 'k', 'y']",1,"[0.9233866540002964, 1.1713785169999937, 2.2353772490000665, 2.3873825040000156, 2.635354731999996]",1434.533386182,None,1434.5336089064997,1434.6336506529997,p08_marygach_08022022,001,2022_Aug_02_1412,test_typingtask_norepeats,2020.2.10,61.11728820136492,
tithe,tithe,,,,,,,,,0,86,86,86,,,,,,,,,,,,,,,,,1440.0331080759997,None,"['t', 'i', 't', 'h', 'e']",1,"[0.9196571190000213, 1.0795583009999064, 1.4156476610000936, 1.599611410000307, 1.6716206450000755]",1440.0331080759997,None,1440.0332532114996,1440.133509548,p08_marygach_08022022,001,2022_Aug_02_1412,test_typingtask_norepeats,2020.2.10,61.11728820136492,
champ,champ,,,,,,,,,0,87,87,87,,,,,,,,,,,,,,,,,1445.5334306789996,None,"['c', 'h', 'a', 'm', 'p']",1,"[0.7473112000002402, 0.8833346620003795, 1.1232987630000935, 1.2353366620000088, 1.395360360000268]",1445.5334306789996,None,1445.5337094734998,1445.6332139319998,p08_marygach_08022022,001,2022_Aug_02_1412,test_typingtask_norepeats,2020.2.10,61.11728820136492,
lucky,lucky,,,,,,,,,0,88,88,88,,,,,,,,,,,,,,,,,1451.0332771459998,None,"['l', 'u', 'c', 'k', 'y']",1,"[0.8394496509999954, 1.1354924649999703, 1.5354701450000903, 1.6954714439998497, 1.9753933990000405]",1451.0332771459998,None,1451.0332089335,1451.133261944,p08_marygach_08022022,001,2022_Aug_02_1412,test_typingtask_norepeats,2020.2.10,61.11728820136492,
cheer,cheer,,,,,,,,,0,89,89,89,,,,,,,,,,,,,,,,,1456.533440873,None,"['c', 'h', 'e', 'e', 'r']",1,"[0.7952738809999573, 0.9712349030000951, 1.1713307669997448, 1.3073418600001787, 1.5233240490001663]",1456.533440873,None,1456.5331022774997,1456.6338333509998,p08_marygach_08022022,001,2022_Aug_02_1412,test_typingtask_norepeats,2020.2.10,61.11728820136492,
tithe,tithe,,,,,,,,,0,90,90,90,,,,,,,,,,,,,,,,,1462.0335708549997,None,"['t', 'i', 't', 'h', 'e']",1,"[0.82317276699996, 1.0232481190000726, 1.2871656610000173, 1.4632103620001544, 1.5431026579999525]",1462.0335708549997,None,1462.0331621464995,1462.133582856,p08_marygach_08022022,001,2022_Aug_02_1412,test_typingtask_norepeats,2020.2.10,61.11728820136492,
would,would,,,,,,,,,0,91,91,91,,,,,,,,,,,,,,,,,1467.5333339689996,None,"['w', 'o', 'u', 'l', 'd']",1,"[0.891438121000192, 0.9714033039999777, 1.1154253170002448, 1.3073956900002486, 1.4273383110003124]",1467.5333339689996,None,1467.5333331694999,1467.6333689449998,p08_marygach_08022022,001,2022_Aug_02_1412,test_typingtask_norepeats,2020.2.10,61.11728820136492,
think,think,,,,,,,,,0,92,92,92,,,,,,,,,,,,,,,,,1473.0336021889998,None,"['t', 'h', 'i', 'n', 'k']",1,"[0.7191346810000141, 0.8951793210003416, 0.9510581970002931, 1.119161496000288, 1.2631539100002556]",1473.0336021889998,None,1473.0337549634999,1473.1334370299996,p08_marygach_08022022,001,2022_Aug_02_1412,test_typingtask_norepeats,2020.2.10,61.11728820136492,
vanru,vanru,,,,,,,,,0,93,93,93,,,,,,,,,,,,,,,,,1478.5334318999999,None,"['v', 'a', 'n', 'r', 'u']",1,"[0.8112466219999988, 0.9312510479999219, 1.0672225739999703, 1.2113238540000566, 1.33127126699992]",1478.5334318999999,None,1478.5331952534996,1478.6335061959999,p08_marygach_08022022,001,2022_Aug_02_1412,test_typingtask_norepeats,2020.2.10,61.11728820136492,
would,would,,,,,,,,,0,94,94,94,,,,,,,,,,,,,,,,,1484.033771159,None,"['w', 'o', 'u', 'l', 'd']",1,"[0.8149810039999466, 0.9428742099998999, 1.0550308089996179, 1.1989554309998312, 1.31898769099962]",1484.033771159,None,1484.0335441054997,1484.133613857,p08_marygach_08022022,001,2022_Aug_02_1412,test_typingtask_norepeats,2020.2.10,61.11728820136492,
pykka,pykka,,,,,,,,,0,95,95,95,,,,,,,,,,,,,,,,,1489.5338896179996,None,"['p', 'y', 'k', 'k', 'a']",1,"[1.0588279799999327, 1.6587714390002475, 1.9547690150002381, 2.098869260000356, 2.178791165000348]",1489.5338896179996,None,1489.5337047224996,1489.6338267839997,p08_marygach_08022022,001,2022_Aug_02_1412,test_typingtask_norepeats,2020.2.10,61.11728820136492,
vodka,vodka,,,,,,,,,0,96,96,96,,,,,,,,,,,,,,,,,1495.033655156,None,"['v', 'o', 'd', 'k', 'a']",1,"[0.9830091389999325, 1.191127908999988, 1.3991081730000587, 1.5590248969997447, 1.7591024869998364]",1495.033655156,None,1495.0336887184997,1495.133734557,p08_marygach_08022022,001,2022_Aug_02_1412,test_typingtask_norepeats,2020.2.10,61.11728820136492,
kremp,kremp,,,,,,,,,0,97,97,97,,,,,,,,,,,,,,,,,1500.5332038359998,None,"['k', 'r', 'e', 'm', 'p']",1,"[0.9874936669998533, 1.1314783939997142, 1.3315040729999055, 1.5794656729999588, 1.6995559009997123]",1500.5332038359998,None,1500.5336968054996,1500.63355138,p08_marygach_08022022,001,2022_Aug_02_1412,test_typingtask_norepeats,2020.2.10,61.11728820136492,
champ,champ,,,,,,,,,0,98,98,98,,,,,,,,,,,,,,,,,1506.0337510989998,None,"['c', 'h', 'a', 'm', 'p']",1,"[0.8949676429997453, 1.166904144, 1.3350158209996152, 1.5030205089997253, 1.7030161359998601]",1506.0337510989998,None,1506.0337416034997,1506.1336790829996,p08_marygach_08022022,001,2022_Aug_02_1412,test_typingtask_norepeats,2020.2.10,61.11728820136492,
cooed,cooed,,,,,,,,,0,99,99,99,,,,,,,,,,,,,,,,,1511.533577448,None,"['c', 'o', 'o', 'e', 'd']",1,"[0.6591104170001927, 0.883188207999865, 1.003189126000052, 1.571106681999936, 1.7871942599999784]",1511.533577448,None,1511.5337568194998,1511.6336893509997,p08_marygach_08022022,001,2022_Aug_02_1412,test_typingtask_norepeats,2020.2.10,61.11728820136492,
kremp,kremp,,,,,,,,,0,100,100,100,,,,,,,,,,,,,,,,,1517.03343309,None,"['k', 'r', 'e', 'm', 'p']",1,"[1.1833323949999794, 1.311317451999912, 1.639335394000227, 1.967215810000198, 2.1432222309999815]",1517.03343309,None,1517.0335504964999,1517.1337251659997,p08_marygach_08022022,001,2022_Aug_02_1412,test_typingtask_norepeats,2020.2.10,61.11728820136492,
there,there,,,,,,,,,0,101,101,101,,,,,,,,,,,,,,,,,1522.5336793779998,None,"['t', 'h', 'e', 'r', 'e']",1,"[0.9950431990000652, 1.1951277319999463, 1.3150824669996837, 1.7230465039997398, 1.8669794879997426]",1522.5336793779998,None,1522.5336983424997,1522.633632742,p08_marygach_08022022,001,2022_Aug_02_1412,test_typingtask_norepeats,2020.2.10,61.11728820136492,
druze,druze,,,,,,,,,0,102,102,102,,,,,,,,,,,,,,,,,1528.033866536,None,"['d', 'r', 'u', 'z', 'e']",1,"[0.7828916860003119, 0.9988977689999956, 1.2068963780002377, 1.5988926630002425, 1.8229432000002816]",1528.033866536,None,1528.0335599844996,1528.133712639,p08_marygach_08022022,001,2022_Aug_02_1412,test_typingtask_norepeats,2020.2.10,61.11728820136492,
haole,haole,,,,,,,,,0,103,103,103,,,,,,,,,,,,,,,,,1533.533671314,None,"['h', 'a', 'o', 'l', 'e']",1,"[0.7389841229996819, 0.8670841119997021, 1.5070553599998675, 1.6670141820000026, 1.7471013579997816]",1533.533671314,None,1533.5336884704996,1533.6337960399997,p08_marygach_08022022,001,2022_Aug_02_1412,test_typingtask_norepeats,2020.2.10,61.11728820136492,
therm,therm,,,,,,,,,0,104,104,104,,,,,,,,,,,,,,,,,1539.033426864,None,"['t', 'h', 'e', 'r', 'm']",1,"[1.0393137149999347, 1.2153037339999173, 1.303339527999924, 1.439239329999964, 1.7432686860001922]",1539.033426864,None,1539.0333848594998,1539.133552454,p08_marygach_08022022,001,2022_Aug_02_1412,test_typingtask_norepeats,2020.2.10,61.11728820136492,
there,there,,,,,,,,,0,105,105,105,,,,,,,,,,,,,,,,,1544.5338268619998,None,"['t', 'h', 'e', 'r', 'e']",1,"[0.8989072129998021, 1.0829350449998856, 1.1869423199996163, 1.2908486869996523, 1.3789174719995572]",1544.5338268619998,None,1544.5338075514999,1544.633442811,p08_marygach_08022022,001,2022_Aug_02_1412,test_typingtask_norepeats,2020.2.10,61.11728820136492,
theme,theme,,,,,,,,,0,106,106,106,,,,,,,,,,,,,,,,,1550.0337778399999,None,"['t', 'h', 'e', 'r', 'e', 'm']",0,"[0.8230014979999396, 0.9989769349999733, 1.0550081719998161, 1.2068958589998147, 1.2388742529997216, 1.6390010399995845]",1550.0337778399999,None,1550.0338352385,1550.133683956,p08_marygach_08022022,001,2022_Aug_02_1412,test_typingtask_norepeats,2020.2.10,61.11728820136492,
kremp,kremp,,,,,,,,,0,107,107,107,,,,,,,,,,,,,,,,,1555.53374924,None,"['k', 'r', 'e', 'm', 'p']",1,"[1.0669119150002189, 1.1949682070003291, 1.3870149340000353, 1.4509064200001376, 1.5470350040000085]",1555.53374924,None,1555.5337677014998,1555.633848425,p08_marygach_08022022,001,2022_Aug_02_1412,test_typingtask_norepeats,2020.2.10,61.11728820136492,
lucky,lucky,,,,,,,,,0,108,108,108,,,,,,,,,,,,,,,,,1561.033896346,None,"['l', 'u', 'c', 'k', 'y']",1,"[0.8548729819999608, 1.1028366440000354, 1.2548693829999138, 1.3427747860000636, 1.606835953999962]",1561.033896346,None,1561.0341695034997,1561.133832477,p08_marygach_08022022,001,2022_Aug_02_1412,test_typingtask_norepeats,2020.2.10,61.11728820136492,
heond,heond,,,,,,,,,0,109,109,109,,,,,,,,,,,,,,,,,1566.5338314769997,None,"['h', 'e', 'o', 'n', 'd']",1,"[0.8268126170000869, 0.9229732800004058, 1.0828817120000167, 1.1869325990001016, 1.3388791170000331]",1566.5338314769997,None,1566.5337266344998,1566.633784267,p08_marygach_08022022,001,2022_Aug_02_1412,test_typingtask_norepeats,2020.2.10,61.11728820136492,
faqir,faqir,,,,,,,,,0,110,110,110,,,,,,,,,,,,,,,,,1572.0337487019997,None,"['f', 'a', 'q', 'i', 'r']",1,"[1.0309900759998527, 1.1750403949999964, 1.4309118539999872, 1.766900957999951, 1.9190012310000384]",1572.0337487019997,None,1572.0338828344995,1572.1337230549998,p08_marygach_08022022,001,2022_Aug_02_1412,test_typingtask_norepeats,2020.2.10,61.11728820136492,
think,think,,,,,,,,,0,111,111,111,,,,,,,,,,,,,,,,,1577.533710664,None,"['t', 'h', 'i', 'n', 'k']",1,"[0.8190594089996921, 1.0110924979999254, 1.1309908369998993, 1.355069777999688, 1.5550199809999867]",1577.533710664,None,1577.5338021715,1577.633748282,p08_marygach_08022022,001,2022_Aug_02_1412,test_typingtask_norepeats,2020.2.10,61.11728820136492,
vodka,vodka,,,,,,,,,0,112,112,112,,,,,,,,,,,,,,,,,1583.0337160139998,None,"['v', 'o', 'd', 'k', 'a']",1,"[1.1669499559998258, 1.3990477140000621, 1.5830272439998225, 1.7269549759998881, 2.0070113550000315]",1583.0337160139998,None,1583.0338127485,1583.1337454949999,p08_marygach_08022022,001,2022_Aug_02_1412,test_typingtask_norepeats,2020.2.10,61.11728820136492,
would,would,,,,,,,,,0,113,113,113,,,,,,,,,,,,,,,,,1588.5336143239997,None,"['w', 'o', 'u', 'l', 'd']",1,"[0.8750349090000782, 0.9550363519997518, 1.0911506819998067, 1.3231498959999044, 1.4270692360000794]",1588.5336143239997,None,1588.5336625475,1588.6339802469997,p08_marygach_08022022,001,2022_Aug_02_1412,test_typingtask_norepeats,2020.2.10,61.11728820136492,
haole,haole,,,,,,,,,0,114,114,114,,,,,,,,,,,,,,,,,1594.03375409,None,"['h', 'a', 'o', 'l', 'e']",1,"[0.8228950299999269, 1.0149760730000708, 1.3669165989999783, 1.5349066849998962, 1.630930559999797]",1594.03375409,None,1594.0338253974999,1594.133975539,p08_marygach_08022022,001,2022_Aug_02_1412,test_typingtask_norepeats,2020.2.10,61.11728820136492,
champ,champ,,,,,,,,,0,115,115,115,,,,,,,,,,,,,,,,,1599.5336242539997,None,"['c', 'h', 'a', 'm', 'p', 'o']",0,"[0.7870980429997871, 0.923140377999971, 1.1310515569998643, 1.1950818029999937, 1.3391568009997172, 1.355144399999972]",1599.5336242539997,None,1599.5332652344998,1599.6339760279998,p08_marygach_08022022,001,2022_Aug_02_1412,test_typingtask_norepeats,2020.2.10,61.11728820136492,
heond,heond,,,,,,,,,0,116,116,116,,,,,,,,,,,,,,,,,1605.0338052859997,None,"['h', 'e', 'o', 'n', 'd']",1,"[0.7428575199996885, 1.2629749549996632, 1.35085397299963, 1.510975483999573, 1.6068385229996238]",1605.0338052859997,None,1605.0337092354996,1605.13384946,p08_marygach_08022022,001,2022_Aug_02_1412,test_typingtask_norepeats,2020.2.10,61.11728820136492,
cheer,cheer,,,,,,,,,0,117,117,117,,,,,,,,,,,,,,,,,1610.5337744689996,None,"['c', 'h', 'e', 'e', 'r']",1,"[0.7309052470000097, 0.9390128609998101, 1.1308710190000966, 1.3149909550002121, 1.4830094610001652]",1610.5337744689996,None,1610.5340666564996,1610.633713879,p08_marygach_08022022,001,2022_Aug_02_1412,test_typingtask_norepeats,2020.2.10,61.11728820136492,
zibja,zibja,,,,,,,,,0,118,118,118,,,,,,,,,,,,,,,,,1616.0338465959999,None,"['z', 'i', 'b', 'j', 'a']",1,"[0.9909643089999918, 1.3668480169999384, 1.5508097779998025, 1.79884487299978, 1.9109839829998236]",1616.0338465959999,None,1616.0338767824999,1616.1336523299997,p08_marygach_08022022,001,2022_Aug_02_1412,test_typingtask_norepeats,2020.2.10,61.11728820136492,
druze,druze,,,,,,,,,0,119,119,119,,,,,,,,,,,,,,,,,1621.533582995,None,"['d', 'r', 'u', 'z', 'e']",1,"[0.7871827979997761, 1.0112441520000175, 1.2191536159998577, 1.4271255290000227, 1.6831362299999455]",1621.533582995,None,1621.5336856224997,1621.6333523049998,p08_marygach_08022022,001,2022_Aug_02_1412,test_typingtask_norepeats,2020.2.10,61.11728820136492,
,,,,,,,,,,,,,,,,,1627.0338926885,1627.334135484,,,,,,,,,,,,,,,,,,,,,,,,,,,
