string,corrAns,practice_trials.thisRepN,practice_trials.thisTrialN,practice_trials.thisN,practice_trials.thisIndex,trials_1.thisRepN,trials_1.thisTrialN,trials_1.thisN,trials_1.thisIndex,trials_2.thisRepN,trials_2.thisTrialN,trials_2.thisN,trials_2.thisIndex,key_resp_0.keys,key_resp_0.corr,key_resp_0.rt,text_1.started,text_1.stopped,key_resp_1.keys,key_resp_1.corr,key_resp_1.rt,key_resp_1.started,key_resp_1.stopped,sound_1A_1.started,sound_1A_1.stopped,break_time.started,break_time.stopped,text_2.started,text_2.stopped,key_resp_2.keys,key_resp_2.corr,key_resp_2.rt,key_resp_2.started,key_resp_2.stopped,sound_1A_2.started,sound_1A_2.stopped,participant,session,date,expName,psychopyVersion,frameRate,
fresh,fresh,0,0,0,0,,,,,,,,,"['f', 'r', 'e', 's', 'h']",1,"[1.2714382520061918, 1.5114292970101815, 2.0236509229871444, 2.46342974100844, 2.519441749987891]",,,,,,,,,,,,,,,,,,,,,p09_gabe_08052022,001,2022_Aug_05_1415,test_typingtask_norepeats,2020.2.10,60.009560846333535,
dream,dream,0,1,1,1,,,,,,,,,"['d', 'r', 'e', 'a', 'm']",1,"[1.1165434939903207, 1.316546243004268, 1.9725408839876764, 2.268594764987938, 2.3885386000038125]",,,,,,,,,,,,,,,,,,,,,p09_gabe_08052022,001,2022_Aug_05_1415,test_typingtask_norepeats,2020.2.10,60.009560846333535,
slime,slime,0,2,2,2,,,,,,,,,"['s', 'l', 'i', 'm', 'e', 'space']",0,"[1.0330262790084817, 1.0729735110071488, 1.2249811319925357, 1.3610508580168243, 1.433041497017257, 1.5610363400192]",,,,,,,,,,,,,,,,,,,,,p09_gabe_08052022,001,2022_Aug_05_1415,test_typingtask_norepeats,2020.2.10,60.009560846333535,
think,think,,,,,0,0,0,0,,,,,,,,150.55793718999485,None,"['t', 'h', 'i', 'n', 'k']",1,"[0.966381823993288, 0.9983707219944336, 1.174422782001784, 1.3583741189795546, 1.7823716029815841]",150.55793718999485,None,150.54930904151115,150.649047910003,,,,,,,,,,,,p09_gabe_08052022,001,2022_Aug_05_1415,test_typingtask_norepeats,2020.2.10,60.009560846333535,
buddy,buddy,,,,,0,1,1,1,,,,,,,,156.06753173100878,None,"['b', 'u', 'd', 'd', 'y']",1,"[0.8808587509847712, 1.2247873340093065, 1.904795918992022, 2.048772009991808, 2.1127632060088217]",156.06753173100878,None,156.06602392050263,156.16604393799207,,,,,,,,,,,,p09_gabe_08052022,001,2022_Aug_05_1415,test_typingtask_norepeats,2020.2.10,60.009560846333535,
tithe,tithe,,,,,0,2,2,2,,,,,,,,161.58291853198898,None,"['t', 'i', 't', 'h', 'e']",1,"[1.1014292360050604, 1.181422432011459, 1.5573808410263155, 1.6134316580137238, 1.725387785001658]",161.58291853198898,None,161.58263652749883,161.6827054460009,,,,,,,,,,,,p09_gabe_08052022,001,2022_Aug_05_1415,test_typingtask_norepeats,2020.2.10,60.009560846333535,
kremp,kremp,,,,,0,3,3,3,,,,,,,,167.08294618100626,None,"['k', 't', 'r', 'e', 'm', 'p']",0,"[1.0413621159968898, 1.1614253160078079, 1.6173577579902485, 1.8093797079927754, 2.06540749699343, 2.3694304520031437]",167.08294618100626,None,167.0826260564936,167.18253434001235,,,,,,,,,,,,p09_gabe_08052022,001,2022_Aug_05_1415,test_typingtask_norepeats,2020.2.10,60.009560846333535,
therm,therm,,,,,0,4,4,4,,,,,,,,172.59968651999952,None,"['t', 'h', 'e', 'e', 'r', 'm']",0,"[0.9486974689934868, 0.996695655019721, 1.0926331810187548, 1.2686679259932134, 1.6366622770146932, 1.7246253530029207]",172.59968651999952,None,172.59942507148662,172.69932039699052,,,,,,,,,,,,p09_gabe_08052022,001,2022_Aug_05_1415,test_typingtask_norepeats,2020.2.10,60.009560846333535,
haole,haole,,,,,0,5,5,5,,,,,,,,178.0995333819883,None,"['h', 'a', 'o', 'l', 'e']",1,"[1.0648260340094566, 1.1927684810070787, 1.8488237540004775, 2.2407671970140655, 2.2968403510167263]",178.0995333819883,None,178.09924648651213,178.19936163601233,,,,,,,,,,,,p09_gabe_08052022,001,2022_Aug_05_1415,test_typingtask_norepeats,2020.2.10,60.009560846333535,
champ,champ,,,,,0,6,6,6,,,,,,,,183.59980165600427,None,"['c', 'h', 'a', 'm', 'p']",1,"[1.1165060899802484, 1.196566245984286, 1.2765161349962, 1.612569041986717, 1.8125494919950143]",183.59980165600427,None,183.59937032048765,183.69954456799314,,,,,,,,,,,,p09_gabe_08052022,001,2022_Aug_05_1415,test_typingtask_norepeats,2020.2.10,60.009560846333535,
cooed,cooed,,,,,0,7,7,7,,,,,,,,189.0992205280054,None,"['c', 'o', 'o', 'e', 'd']",1,"[0.9371387220162433, 1.0331344500009436, 1.1611940150032751, 1.241083733009873, 1.4170881909958553]",189.0992205280054,None,189.09947815949272,189.1997242970101,,,,,,,,,,,,p09_gabe_08052022,001,2022_Aug_05_1415,test_typingtask_norepeats,2020.2.10,60.009560846333535,
there,there,,,,,0,8,8,8,,,,,,,,194.59937703999458,None,"['t', 'h', 'e', 'r', 'e']",1,"[0.8130139020213392, 0.8849756680137943, 0.9889212530106306, 1.268998053012183, 1.4209266880061477]",194.59937703999458,None,194.59929424549046,194.69943662101286,,,,,,,,,,,,p09_gabe_08052022,001,2022_Aug_05_1415,test_typingtask_norepeats,2020.2.10,60.009560846333535,
vanru,vanru,,,,,0,9,9,9,,,,,,,,200.10075948300073,None,"['v', 'a', 'n', 'r', 'u']",1,"[1.1836250649939757, 1.5516037289926317, 1.7035358319990337, 2.127541032998124, 2.199543596012518]",200.10075948300073,None,200.0993123595108,200.19916942800046,,,,,,,,,,,,p09_gabe_08052022,001,2022_Aug_05_1415,test_typingtask_norepeats,2020.2.10,60.009560846333535,
therm,therm,,,,,0,10,10,10,,,,,,,,205.61792885899195,None,"['t', 'h', 'e', 'r', 'm']",1,"[0.8983742939890362, 0.9624122509849258, 1.090374730003532, 1.2903750669793226, 1.4023677140066866]",205.61792885899195,None,205.6160917334928,205.7159670010151,,,,,,,,,,,,p09_gabe_08052022,001,2022_Aug_05_1415,test_typingtask_norepeats,2020.2.10,60.009560846333535,
zibja,zibja,,,,,0,11,11,11,,,,,,,,211.1186668940063,None,"['z', 'i', 'b', 'j', 'a']",1,"[1.261653102003038, 1.365656151989242, 1.5576542310009245, 1.7417009119817521, 1.8776839099882636]",211.1186668940063,None,211.11594894451264,211.21711394799058,,,,,,,,,,,,p09_gabe_08052022,001,2022_Aug_05_1415,test_typingtask_norepeats,2020.2.10,60.009560846333535,
therm,therm,,,,,0,12,12,12,,,,,,,,216.61601393599994,None,"['t', 'h', 'e', 'r', 'm']",1,"[0.8043032040004618, 0.9002773219835944, 0.9804685550043359, 1.1482829989981838, 1.2363305029866751]",216.61601393599994,None,216.61619904950203,216.71602583900676,,,,,,,,,,,,p09_gabe_08052022,001,2022_Aug_05_1415,test_typingtask_norepeats,2020.2.10,60.009560846333535,
pykka,pykka,,,,,0,13,13,13,,,,,,,,222.1176566699869,None,"['p', 'y', 'k', 'k', 'a']",1,"[1.5106448479928076, 1.59064836599282, 1.998645718995249, 2.142745974997524, 2.2146912309981417]",222.1176566699869,None,222.11690570750216,222.21627579300548,,,,,,,,,,,,p09_gabe_08052022,001,2022_Aug_05_1415,test_typingtask_norepeats,2020.2.10,60.009560846333535,
puppy,puppy,,,,,0,14,14,14,,,,,,,,227.61746358900564,None,"['p', 'u', 'p', 'p', 'y']",1,"[0.834888982004486, 1.0349021420115605, 1.466917187004583, 1.5949150710075628, 1.6828703070059419]",227.61746358900564,None,227.6162225795124,227.71609170999727,,,,,,,,,,,,p09_gabe_08052022,001,2022_Aug_05_1415,test_typingtask_norepeats,2020.2.10,60.009560846333535,
vanru,vanru,,,,,0,15,15,15,,,,,,,,233.13271525301388,None,"['v', 'a', 'n', 'r', 'u']",1,"[0.9356463629810605, 1.0235878599924035, 1.1595942059939262, 1.4476287279976532, 1.5276452889957]",233.13271525301388,None,233.13280408449646,233.23273975300253,,,,,,,,,,,,p09_gabe_08052022,001,2022_Aug_05_1415,test_typingtask_norepeats,2020.2.10,60.009560846333535,
heond,heond,,,,,0,16,16,16,,,,,,,,238.63286303100176,None,"['h', 'r', 'o', 'n', 'd']",0,"[1.0834606489806902, 1.1474419589794707, 1.6434643929824233, 2.283437445992604, 2.6194923910079524]",238.63286303100176,None,238.6328488674917,238.73260566900717,,,,,,,,,,,,p09_gabe_08052022,001,2022_Aug_05_1415,test_typingtask_norepeats,2020.2.10,60.009560846333535,
kremp,kremp,,,,,0,17,17,17,,,,,,,,244.14965619999566,None,"['k', 'r', 'e', 'm', 'p']",1,"[1.09470162197249, 1.158648918994004, 1.3586550509789959, 1.486691764992429, 1.654646185983438]",244.14965619999566,None,244.14930779048882,244.2493327530101,,,,,,,,,,,,p09_gabe_08052022,001,2022_Aug_05_1415,test_typingtask_norepeats,2020.2.10,60.009560846333535,
faqir,faqir,,,,,0,18,18,18,,,,,,,,249.65064649199485,None,"['f', 'a', 'q', 'u', 'i']",0,"[1.0496615169977304, 1.161657127988292, 2.17765734900604, 2.289651551982388, 2.457670050993329]",249.65064649199485,None,249.64940746351203,249.74942591201398,,,,,,,,,,,,p09_gabe_08052022,001,2022_Aug_05_1415,test_typingtask_norepeats,2020.2.10,60.009560846333535,
think,think,,,,,0,19,19,19,,,,,,,,255.1665552110062,None,"['t', 'h', 'i', 'n', 'k']",1,"[0.8377423719794024, 0.8858471999992616, 1.0537465809902642, 1.2137820209900383, 1.3978000479983166]",255.1665552110062,None,255.16597465450468,255.2658810270077,,,,,,,,,,,,p09_gabe_08052022,001,2022_Aug_05_1415,test_typingtask_norepeats,2020.2.10,60.009560846333535,
buddy,buddy,,,,,0,20,20,20,,,,,,,,260.66599664799287,None,"['b', 'u', 'd', 'd', 'y']",1,"[0.9142779209942091, 1.0742656920047011, 1.4102794269856531, 1.554265767976176, 1.618319105997216]",260.66599664799287,None,260.6661537244945,260.7661287980154,,,,,,,,,,,,p09_gabe_08052022,001,2022_Aug_05_1415,test_typingtask_norepeats,2020.2.10,60.009560846333535,
about,about,,,,,0,21,21,21,,,,,,,,266.1659668489883,None,"['a', 'b', 'o', 'u', 'y']",0,"[0.7663832679972984, 0.8383266079763416, 1.038332725991495, 1.2943843839748297, 1.398382100975141]",266.1659668489883,None,266.16607141851273,266.26612948501133,,,,,,,,,,,,p09_gabe_08052022,001,2022_Aug_05_1415,test_typingtask_norepeats,2020.2.10,60.009560846333535,
therm,therm,,,,,0,22,22,22,,,,,,,,271.68288179600495,None,"['t', 'h', 'e', 'r', 'm']",1,"[0.809431625995785, 0.8894231769954786, 0.9774177749932278, 1.121455557004083, 1.2414216960023623]",271.68288179600495,None,271.68269488248916,271.78262168500805,,,,,,,,,,,,p09_gabe_08052022,001,2022_Aug_05_1415,test_typingtask_norepeats,2020.2.10,60.009560846333535,
belly,belly,,,,,0,23,23,23,,,,,,,,277.1829011760128,None,"['b', 'e', 'l', 'l', 'y']",1,"[0.8134521549800411, 0.9014056339801755, 1.1654834520013537, 1.3174059159937315, 1.3654979949933477]",277.1829011760128,None,277.1828588195058,277.2827996459964,,,,,,,,,,,,p09_gabe_08052022,001,2022_Aug_05_1415,test_typingtask_norepeats,2020.2.10,60.009560846333535,
vodka,vodka,,,,,0,24,24,24,,,,,,,,282.6829267500143,None,"['v', 'o', 'd', 'k', 'a']",1,"[1.0173887999844737, 1.1053782349918038, 1.4173784749873448, 1.6014220860088244, 1.681462234002538]",282.6829267500143,None,282.68279115449695,282.782795792009,,,,,,,,,,,,p09_gabe_08052022,001,2022_Aug_05_1415,test_typingtask_norepeats,2020.2.10,60.009560846333535,
would,would,,,,,0,25,25,25,,,,,,,,288.18301565400907,None,"['w', 'o', 'u', 'l', 'd']",1,"[1.013336250995053, 1.0773507709964179, 1.261389038991183, 1.6853749019792303, 1.7572798649780452]",288.18301565400907,None,288.18288756550464,288.28266253499896,,,,,,,,,,,,p09_gabe_08052022,001,2022_Aug_05_1415,test_typingtask_norepeats,2020.2.10,60.009560846333535,
buddy,buddy,,,,,0,26,26,26,,,,,,,,293.68301789599354,None,"['b', 'u', 'd', 'd', 'u']",0,"[0.8172772130055819, 1.177292629989097, 1.4813104280037805, 1.6412695689941756, 1.7373371759895235]",293.68301789599354,None,293.6829802454886,293.78286155100795,,,,,,,,,,,,p09_gabe_08052022,001,2022_Aug_05_1415,test_typingtask_norepeats,2020.2.10,60.009560846333535,
think,think,,,,,0,27,27,27,,,,,,,,299.19933134899475,None,"['t', 'h', 'i', 'n', 'k']",1,"[0.7889647510019131, 1.9409652929753065, 2.380967390985461, 2.6690140259743202, 2.8209748219815083]",299.19933134899475,None,299.1995102274959,299.2993591350096,,,,,,,,,,,,p09_gabe_08052022,001,2022_Aug_05_1415,test_typingtask_norepeats,2020.2.10,60.009560846333535,
zibja,zibja,,,,,0,28,28,28,,,,,,,,304.6995223679987,None,"['z', 'i', 'b', 'j', 'a']",1,"[1.7608336890116334, 1.8567788180080242, 2.2328332980105188, 2.608795984997414, 2.672777076018974]",304.6995223679987,None,304.6995511524874,304.7994300480059,,,,,,,,,,,,p09_gabe_08052022,001,2022_Aug_05_1415,test_typingtask_norepeats,2020.2.10,60.009560846333535,
puppy,puppy,,,,,0,29,29,29,,,,,,,,310.1995970570133,None,"['p', 'u', 'p', 'p', 'y']",1,"[0.9167035909777042, 1.1887022279843222, 1.6367500809719786, 1.7887044639792293, 1.8687931939784903]",310.1995970570133,None,310.1996460395021,310.29932871600613,,,,,,,,,,,,p09_gabe_08052022,001,2022_Aug_05_1415,test_typingtask_norepeats,2020.2.10,60.009560846333535,
cooed,cooed,,,,,0,30,30,30,,,,,,,,315.699890118005,None,"['c', 'o', 'o', 'e', 'd']",1,"[0.9124083349888679, 1.0244048339955043, 1.168461702996865, 1.2485222899995279, 1.4244062950019725]",315.699890118005,None,315.699342459513,315.79932173001,,,,,,,,,,,,p09_gabe_08052022,001,2022_Aug_05_1415,test_typingtask_norepeats,2020.2.10,60.009560846333535,
faqir,faqir,,,,,0,31,31,31,,,,,,,,321.1997758510115,None,"['f', 'a', 'q', 'i', 'r']",1,"[1.5085414979839697, 1.5885475279937964, 2.1565242759825196, 2.5085395489877556, 2.564601584977936]",321.1997758510115,None,321.19938677149185,321.2993918719876,,,,,,,,,,,,p09_gabe_08052022,001,2022_Aug_05_1415,test_typingtask_norepeats,2020.2.10,60.009560846333535,
there,there,,,,,0,32,32,32,,,,,,,,326.6996919120138,None,"['t', 'h', 'e', 'r', 'e']",1,"[0.7766229190165177, 0.8486620800103992, 0.9526554890035186, 1.120602550014155, 1.3046093150041997]",326.6996919120138,None,326.69949512051244,326.79957834401284,,,,,,,,,,,,p09_gabe_08052022,001,2022_Aug_05_1415,test_typingtask_norepeats,2020.2.10,60.009560846333535,
about,about,,,,,0,33,33,33,,,,,,,,332.1996551330085,None,"['a', 'b', 'o', 'u', 't']",1,"[0.6926417539943941, 0.8046430929971393, 1.0286573510093149, 1.4847423860046547, 1.556644210999366]",332.1996551330085,None,332.1993978165119,332.29943566099973,,,,,,,,,,,,p09_gabe_08052022,001,2022_Aug_05_1415,test_typingtask_norepeats,2020.2.10,60.009560846333535,
would,would,,,,,0,34,34,34,,,,,,,,337.6997057860135,None,"['w', 'o', 'u', 'l', 'd']",1,"[0.9526470790151507, 1.0406371350109112, 1.2805942720151506, 1.5286190379993059, 1.7766148000082467]",337.6997057860135,None,337.6995840025047,337.7993589839898,,,,,,,,,,,,p09_gabe_08052022,001,2022_Aug_05_1415,test_typingtask_norepeats,2020.2.10,60.009560846333535,
tithe,tithe,,,,,0,35,35,35,,,,,,,,343.19953922298737,None,"['t', 'i', 't', 'h', 'e']",1,"[0.8847748400003184, 0.9649309320084285, 1.0688164989987854, 1.2368122420157306, 1.316773344995454]",343.19953922298737,None,343.19958902751387,343.29947554599494,,,,,,,,,,,,p09_gabe_08052022,001,2022_Aug_05_1415,test_typingtask_norepeats,2020.2.10,60.009560846333535,
champ,champ,,,,,0,36,36,36,,,,,,,,348.699678606994,None,"['c', 'h', 'a', 's', 'm', 'o']",0,"[0.9447397649928462, 1.0246051700087264, 1.1526680540118832, 1.1606663249840494, 1.4726051499892492, 1.624607012985507]",348.699678606994,None,348.6995713554934,348.7995432270109,,,,,,,,,,,,p09_gabe_08052022,001,2022_Aug_05_1415,test_typingtask_norepeats,2020.2.10,60.009560846333535,
kremp,kremp,,,,,0,37,37,37,,,,,,,,354.2161794959975,None,"['k', 'r', 'e', 'm', 'p']",1,"[1.0841320350009482, 1.1721211099938955, 1.332165461994009, 1.7881173490022775, 1.932175369001925]",354.2161794959975,None,354.2162111305079,354.3163257059932,,,,,,,,,,,,p09_gabe_08052022,001,2022_Aug_05_1415,test_typingtask_norepeats,2020.2.10,60.009560846333535,
puppy,puppy,,,,,0,38,38,38,,,,,,,,359.7162574430113,None,"['p', 'u', 'p', 'p', 'y']",1,"[0.7520993330108467, 0.952139397006249, 1.2720463880104944, 1.4400614839978516, 1.576053469994804]",359.7162574430113,None,359.716293049496,359.8162650509912,,,,,,,,,,,,p09_gabe_08052022,001,2022_Aug_05_1415,test_typingtask_norepeats,2020.2.10,60.009560846333535,
cheer,cheer,,,,,0,39,39,39,,,,,,,,365.2165238930029,None,"['c', 'h', 'e', 'e', 'r']",1,"[0.9318257800186984, 1.0358674880117178, 1.1318600330268964, 1.323772154020844, 1.4837847480084747]",365.2165238930029,None,365.21638097248797,365.3161128539941,,,,,,,,,,,,p09_gabe_08052022,001,2022_Aug_05_1415,test_typingtask_norepeats,2020.2.10,60.009560846333535,
edthe,edthe,,,,,0,40,40,40,,,,,,,,370.71653465300915,None,"['e', 'd', 't', 'h', 'e']",1,"[0.9757774239988066, 1.1757661309966352, 1.463804749015253, 1.6397592690191232, 1.7037584840145428]",370.71653465300915,None,370.71616034749604,370.8161343979882,,,,,,,,,,,,p09_gabe_08052022,001,2022_Aug_05_1415,test_typingtask_norepeats,2020.2.10,60.009560846333535,
belly,belly,,,,,0,41,41,41,,,,,,,,376.2168326690153,None,"['b', 'r', 'l', 'l', 'y']",0,"[0.7234702279965859, 0.8275336640072055, 1.2275476350041572, 1.3714711570064537, 1.4275572859914973]",376.2168326690153,None,376.2162379514921,376.3162324790028,,,,,,,,,,,,p09_gabe_08052022,001,2022_Aug_05_1415,test_typingtask_norepeats,2020.2.10,60.009560846333535,
cheer,cheer,,,,,0,42,42,42,,,,,,,,381.73294468800304,None,"['c', 'h', 'e', 'e', 'r']",1,"[0.8233571369783022, 0.9114233939908445, 0.9753560069948435, 1.151479466992896, 1.3114723179896828]",381.73294468800304,None,381.7331723644893,381.83282233099453,,,,,,,,,,,,p09_gabe_08052022,001,2022_Aug_05_1415,test_typingtask_norepeats,2020.2.10,60.009560846333535,
think,think,,,,,0,43,43,43,,,,,,,,387.23312855898985,None,"['t', 'h', 'i', 'n', 'k']",1,"[0.7632235659984872, 0.8352620119985659, 1.2671767649881076, 1.4992149169847835, 1.7632270629983395]",387.23312855898985,None,387.23294389351213,387.33295047999127,,,,,,,,,,,,p09_gabe_08052022,001,2022_Aug_05_1415,test_typingtask_norepeats,2020.2.10,60.009560846333535,
cooed,cooed,,,,,0,44,44,44,,,,,,,,392.73322645400185,None,"['c', 'o', 'o', 'e', 'd']",1,"[0.8390797169995494, 1.0151193840138149, 1.1351293680199888, 1.2631308069976512, 1.431145220005419]",392.73322645400185,None,392.7328966524947,392.8329499049869,,,,,,,,,,,,p09_gabe_08052022,001,2022_Aug_05_1415,test_typingtask_norepeats,2020.2.10,60.009560846333535,
druze,druze,,,,,0,45,45,45,,,,,,,,398.232982948015,None,"['d', 'r', 'u', 'u', 'z', 'e']",0,"[1.0833154449937865, 1.251408170996001, 1.395342208998045, 2.091344084998127, 2.443338262004545, 2.6433181159954984]",398.232982948015,None,398.23307988348824,398.33283807200496,,,,,,,,,,,,p09_gabe_08052022,001,2022_Aug_05_1415,test_typingtask_norepeats,2020.2.10,60.009560846333535,
tithe,tithe,,,,,0,46,46,46,,,,,,,,403.7499667450029,None,"['t', 'i', 't', 'h', 'e']",1,"[0.910335450025741, 0.974332368990872, 1.0703830359852873, 1.2223861460224725, 1.262343571987003]",403.7499667450029,None,403.7496794684994,403.84942260201205,,,,,,,,,,,,p09_gabe_08052022,001,2022_Aug_05_1415,test_typingtask_norepeats,2020.2.10,60.009560846333535,
vanru,vanru,,,,,0,47,47,47,,,,,,,,409.24988867502543,None,"['v', 'a', 'n', 'r', 'u']",1,"[1.0184683380066417, 1.0824598090257496, 1.2344280480174348, 1.5304841449833475, 1.6264237349969335]",409.24988867502543,None,409.24955212952045,409.34968998099794,,,,,,,,,,,,p09_gabe_08052022,001,2022_Aug_05_1415,test_typingtask_norepeats,2020.2.10,60.009560846333535,
about,about,,,,,0,48,48,48,,,,,,,,414.7497945089999,None,"['a', 'b', 'o', 'u', 't']",1,"[0.6465480179758742, 0.7345514280023053, 0.9425073469756171, 1.4225298810051754, 1.4945814540260471]",414.7497945089999,None,414.74968365549284,414.8496120390191,,,,,,,,,,,,p09_gabe_08052022,001,2022_Aug_05_1415,test_typingtask_norepeats,2020.2.10,60.009560846333535,
tithe,tithe,,,,,0,49,49,49,,,,,,,,420.24982807799825,None,"['t', 'i', 't', 'h', 'e']",1,"[0.8744664640398696, 0.9305111379944719, 1.0264894930296578, 1.1304933589999564, 1.1865655720466748]",420.24982807799825,None,420.249503676474,420.3495114730031,,,,,,,,,,,,p09_gabe_08052022,001,2022_Aug_05_1415,test_typingtask_norepeats,2020.2.10,60.009560846333535,
kremp,kremp,,,,,0,50,50,50,,,,,,,,425.7498096470081,None,"['k', 'r', 'e', 'm', 'o', 'p']",0,"[1.2785067409859039, 1.3825395230087452, 1.5504974800278433, 1.7344962490024045, 1.9105140750179999, 1.9105140750179999]",425.7498096470081,None,425.74972272447485,425.84941437197267,,,,,,,,,,,,p09_gabe_08052022,001,2022_Aug_05_1415,test_typingtask_norepeats,2020.2.10,60.009560846333535,
haole,haole,,,,,0,51,51,51,,,,,,,,431.26667308001197,None,"['h', 'a', 'o', 'l', 'e']",1,"[0.8736485400004312, 0.9616424979758449, 1.1697211060090922, 1.5936363940127194, 1.6576628609909676]",431.26667308001197,None,431.2662700405199,431.3663204519835,,,,,,,,,,,,p09_gabe_08052022,001,2022_Aug_05_1415,test_typingtask_norepeats,2020.2.10,60.009560846333535,
heond,heond,,,,,0,52,52,52,,,,,,,,436.7666507829854,None,"['h', 'e', 'o', 'n', 'd']",1,"[0.9896516220178455, 1.0697066109860316, 1.2536618569865823, 1.4456535460194573, 1.6056505300221033]",436.7666507829854,None,436.76648088252114,436.8664679689973,,,,,,,,,,,,p09_gabe_08052022,001,2022_Aug_05_1415,test_typingtask_norepeats,2020.2.10,60.009560846333535,
would,would,,,,,0,53,53,53,,,,,,,,442.26621474398416,None,"['w', 'o', 'u', 'l', 'd']",1,"[0.7781583229661919, 0.8981193299987353, 1.0741201909841038, 1.5060842399834655, 1.7781435420038179]",442.26621474398416,None,442.2664190435171,442.36627761801356,,,,,,,,,,,,p09_gabe_08052022,001,2022_Aug_05_1415,test_typingtask_norepeats,2020.2.10,60.009560846333535,
buddy,buddy,,,,,0,54,54,54,,,,,,,,447.76650615702965,None,"['b', 'u', 'd', 'd', 'y']",1,"[0.7178170279948972, 1.045795957033988, 1.3498085960163735, 1.5098145210067742, 1.5977890699869022]",447.76650615702965,None,447.7665246004908,447.8662712259975,,,,,,,,,,,,p09_gabe_08052022,001,2022_Aug_05_1415,test_typingtask_norepeats,2020.2.10,60.009560846333535,
lucky,lucky,,,,,0,55,55,55,,,,,,,,453.26664173501194,None,"['l', 'u', 'c', 'k', 'y']",1,"[1.1936704450054094, 1.4256698180106468, 1.801663645019289, 1.8736939990194514, 2.2256668100017123]",453.26664173501194,None,453.26648099649174,453.3662398989836,,,,,,,,,,,,p09_gabe_08052022,001,2022_Aug_05_1415,test_typingtask_norepeats,2020.2.10,60.009560846333535,
champ,champ,,,,,0,56,56,56,,,,,,,,458.76656739399186,None,"['c', 'h', 'a', 'm', 'p']",1,"[0.8857881330186501, 1.0298013259889558, 1.3177989510004409, 1.437711632985156, 1.829769945004955]",458.76656739399186,None,458.7664769965195,458.8662018609757,,,,,,,,,,,,p09_gabe_08052022,001,2022_Aug_05_1415,test_typingtask_norepeats,2020.2.10,60.009560846333535,
vodka,vodka,,,,,0,57,57,57,,,,,,,,464.26646475997404,None,"['v', 'o', 'd', 'k', 'a', 's']",0,"[1.1938605409814045, 1.2738316649920307, 1.5298844749922864, 1.6498446239857003, 1.7378347730264068, 1.7458293900126591]",464.26646475997404,None,464.2665509465005,464.36627226302517,,,,,,,,,,,,p09_gabe_08052022,001,2022_Aug_05_1415,test_typingtask_norepeats,2020.2.10,60.009560846333535,
faqir,faqir,,,,,0,58,58,58,,,,,,,,469.783267841005,None,"['f', 'a', 'q', 'i', 'r']",1,"[1.1810699189663865, 1.3170416099601425, 1.7810460709733889, 1.885045958973933, 2.069076618994586]",469.783267841005,None,469.7831202435045,469.88293306101696,,,,,,,,,,,,p09_gabe_08052022,001,2022_Aug_05_1415,test_typingtask_norepeats,2020.2.10,60.009560846333535,
heond,heond,,,,,0,59,59,59,,,,,,,,475.28326058600214,None,"['h', 'e', 'o', 'n', 'd']",1,"[1.0250431970343925, 1.1130919410497881, 1.2330447140266187, 1.713089678029064, 1.8011448699980974]",475.28326058600214,None,475.28313624048315,475.38297657700605,,,,,,,,,,,,p09_gabe_08052022,001,2022_Aug_05_1415,test_typingtask_norepeats,2020.2.10,60.009560846333535,
about,about,,,,,0,60,60,60,,,,,,,,480.7832487389969,None,"['a', 'b', 'o', 'u', 't']",1,"[0.6770950299687684, 0.7651096099871211, 1.0050545979756862, 1.2770993669983, 1.3890644709463231]",480.7832487389969,None,480.7829974494962,480.8830269719765,,,,,,,,,,,,p09_gabe_08052022,001,2022_Aug_05_1415,test_typingtask_norepeats,2020.2.10,60.009560846333535,
belly,belly,,,,,0,61,61,61,,,,,,,,486.2833655579889,None,"['b', 'e', 'l', 'l', 'y']",1,"[0.824946092965547, 0.9129799020010978, 1.0729373879730701, 1.2409371209796518, 1.3449440440163016]",486.2833655579889,None,486.2830791015149,486.38389474802534,,,,,,,,,,,,p09_gabe_08052022,001,2022_Aug_05_1415,test_typingtask_norepeats,2020.2.10,60.009560846333535,
heond,heond,,,,,0,62,62,62,,,,,,,,491.78301336601726,None,"['h', 'e', 'o', 'n', 'd']",1,"[0.9653471839847043, 1.0372997660306282, 1.1493115840130486, 1.3732646760181524, 1.4613193040131591]",491.78301336601726,None,491.78300819148717,491.8831236710248,,,,,,,,,,,,p09_gabe_08052022,001,2022_Aug_05_1415,test_typingtask_norepeats,2020.2.10,60.009560846333535,
pykka,pykka,,,,,0,63,63,63,,,,,,,,497.2830901320267,None,"['p', 'y', 'k', 'k', 'a']",1,"[0.9372582869837061, 1.2252077959710732, 1.6252041059779003, 1.761285290995147, 1.8493238230003044]",497.2830901320267,None,497.2832209595217,497.38311380599043,,,,,,,,,,,,p09_gabe_08052022,001,2022_Aug_05_1415,test_typingtask_norepeats,2020.2.10,60.009560846333535,
cooed,cooed,,,,,0,64,64,64,,,,,,,,502.7832481820078,None,"['c', 'o', 'o', 'e', 'd']",1,"[1.005089409998618, 1.117058893025387, 1.2451015890110284, 1.3090611850493588, 1.4851052740123123]",502.7832481820078,None,502.7830963504821,502.8829087349877,,,,,,,,,,,,p09_gabe_08052022,001,2022_Aug_05_1415,test_typingtask_norepeats,2020.2.10,60.009560846333535,
lucky,lucky,,,,,0,65,65,65,,,,,,,,508.2832665859896,None,"['l', 'u', 'c', 'k', 'y']",1,"[0.8650684879976325, 1.2890264140442014, 1.3690762920305133, 1.5050610700272955, 1.7690760500263423]",508.2832665859896,None,508.2830003435229,508.3830890429963,,,,,,,,,,,,p09_gabe_08052022,001,2022_Aug_05_1415,test_typingtask_norepeats,2020.2.10,60.009560846333535,
vodka,vodka,,,,,0,66,66,66,,,,,,,,513.7832550020248,None,"['v', 'o', 'd', 'k', 'a']",1,"[0.9730611440027133, 1.045072038017679, 1.1650905939750373, 1.461172089970205, 1.5330615440034308]",513.7832550020248,None,513.7831368864718,513.8831627709733,,,,,,,,,,,,p09_gabe_08052022,001,2022_Aug_05_1415,test_typingtask_norepeats,2020.2.10,60.009560846333535,
zibja,zibja,,,,,0,67,67,67,,,,,,,,519.2833921819984,None,"['z', 'i', 'b', 'j', 'a']",1,"[1.5209053460275754, 1.600912543013692, 1.832921207009349, 2.304925983014982, 2.376926299009938]",519.2833921819984,None,519.2830303825176,519.3831234009995,,,,,,,,,,,,p09_gabe_08052022,001,2022_Aug_05_1415,test_typingtask_norepeats,2020.2.10,60.009560846333535,
kremp,kremp,,,,,0,68,68,68,,,,,,,,524.7834498380253,None,"['k', 'r', 'e', 'm', 'p']",1,"[1.0128960649599321, 1.2048680069856346, 1.3808511630049907, 1.6208504239912145, 1.7969141859794036]",524.7834498380253,None,524.7830036245141,524.88313383903,,,,,,,,,,,,p09_gabe_08052022,001,2022_Aug_05_1415,test_typingtask_norepeats,2020.2.10,60.009560846333535,
faqir,faqir,,,,,0,69,69,69,,,,,,,,530.2834310329927,None,"['f', 'a', 'q', 'i', 'r']",1,"[1.1048716409713961, 1.3689258009544574, 1.8088754859636538, 1.968924265995156, 2.0968866479815915]",530.2834310329927,None,530.2830993045209,530.3830894559796,,,,,,,,,,,,p09_gabe_08052022,001,2022_Aug_05_1415,test_typingtask_norepeats,2020.2.10,60.009560846333535,
edthe,edthe,,,,,0,70,70,70,,,,,,,,535.7832653909863,None,"['e', 'd', 't', 'h', 'e']",1,"[0.8611467460286804, 1.07704989699414, 1.3170511060161516, 1.3970911690266803, 1.4770862309960648]",535.7832653909863,None,535.7832192184724,535.883037119027,,,,,,,,,,,,p09_gabe_08052022,001,2022_Aug_05_1415,test_typingtask_norepeats,2020.2.10,60.009560846333535,
buddy,buddy,,,,,0,71,71,71,,,,,,,,541.2832725419721,None,"['b', 'u', 'd', 'd', 'y']",1,"[0.8890307479887269, 1.081026294035837, 1.30506406101631, 1.4490817500045523, 1.5371205279952846]",541.2832725419721,None,541.283045399512,541.3829924040183,,,,,,,,,,,,p09_gabe_08052022,001,2022_Aug_05_1415,test_typingtask_norepeats,2020.2.10,60.009560846333535,
faqir,faqir,,,,,0,72,72,72,,,,,,,,546.7833434099739,None,"['f', 'a', 'q', 'i', 'r']",1,"[1.1809619989944622, 1.2610288049909286, 1.453008515003603, 1.6850171529804356, 1.7809546689968556]",546.7833434099739,None,546.7831834074896,546.8831016900076,,,,,,,,,,,,p09_gabe_08052022,001,2022_Aug_05_1415,test_typingtask_norepeats,2020.2.10,60.009560846333535,
edthe,edthe,,,,,0,73,73,73,,,,,,,,552.2832732679963,None,"['e', 'd', 't', 'h', 'e']",1,"[0.8330974549753591, 1.0170302899787202, 1.2410292759886943, 1.3211139040067792, 1.401031470973976]",552.2832732679963,None,552.2832166795124,552.3832379320229,,,,,,,,,,,,p09_gabe_08052022,001,2022_Aug_05_1415,test_typingtask_norepeats,2020.2.10,60.009560846333535,
cooed,cooed,,,,,0,74,74,74,,,,,,,,557.7834493940172,None,"['c', 'o', 'o', 'e', 'd']",1,"[0.7568517670151778, 0.9088598359958269, 1.0769069570233114, 1.1248493969906121, 1.3329096250236034]",557.7834493940172,None,557.7831600535283,557.8832927460026,,,,,,,,,,,,p09_gabe_08052022,001,2022_Aug_05_1415,test_typingtask_norepeats,2020.2.10,60.009560846333535,
champ,champ,,,,,0,75,75,75,,,,,,,,563.2835238119878,None,"['c', 'h', 'a', 'm', 'p']",1,"[0.8887721539940685, 1.0007803059997968, 1.1448326780227944, 1.4167785560130142, 1.7368347230367362]",563.2835238119878,None,563.2831351904752,563.3831069870212,,,,,,,,,,,,p09_gabe_08052022,001,2022_Aug_05_1415,test_typingtask_norepeats,2020.2.10,60.009560846333535,
vanru,vanru,,,,,0,76,76,76,,,,,,,,568.7831796059909,None,"['v', 'a', 'n', 'r', 'u']",1,"[0.8371372149558738, 1.0452579929842614, 1.3491877159685828, 1.9651760299457237, 2.1331568099558353]",568.7831796059909,None,568.7831233225152,568.8831223650195,,,,,,,,,,,,p09_gabe_08052022,001,2022_Aug_05_1415,test_typingtask_norepeats,2020.2.10,60.009560846333535,
puppy,puppy,,,,,0,77,77,77,,,,,,,,574.2830930439814,None,"['p', 'u', 'p', 'p', 'y']",1,"[0.8092175340279937, 1.0572078460245393, 1.3852584160049446, 1.5692616309970617, 1.6812582490383647]",574.2830930439814,None,574.2832242814911,574.3832600669994,,,,,,,,,,,,p09_gabe_08052022,001,2022_Aug_05_1415,test_typingtask_norepeats,2020.2.10,60.009560846333535,
about,about,,,,,0,78,78,78,,,,,,,,579.7833650430257,None,"['a', 'b', 'o', 'u', 't']",1,"[0.8209306030184962, 0.9169301920337602, 1.140932584006805, 1.5490143450442702, 1.6209336360334419]",579.7833650430257,None,579.7833035475196,579.8830902159971,,,,,,,,,,,,p09_gabe_08052022,001,2022_Aug_05_1415,test_typingtask_norepeats,2020.2.10,60.009560846333535,
druze,druze,,,,,0,79,79,79,,,,,,,,585.2834605279786,None,"['d', 'r', 'u', 'x', 'e']",0,"[1.144925917033106, 1.360904723056592, 1.512864652031567, 1.9288390120491385, 2.5609286580001935]",585.2834605279786,None,585.2831439105066,585.3830702120031,,,,,,,,,,,,p09_gabe_08052022,001,2022_Aug_05_1415,test_typingtask_norepeats,2020.2.10,60.009560846333535,
belly,belly,,,,,0,80,80,80,,,,,,,,590.8000266609888,None,"['b', 'e', 'l', 'l', 'y']",1,"[0.7323306059697643, 0.8122752259951085, 1.0122770930174738, 1.1562839989783242, 1.260316790023353]",590.8000266609888,None,590.7998638704739,590.8999268599728,,,,,,,,,,,,p09_gabe_08052022,001,2022_Aug_05_1415,test_typingtask_norepeats,2020.2.10,60.009560846333535,
puppy,puppy,,,,,0,81,81,81,,,,,,,,596.2999185470107,None,"['p', 'u', 'p', 'p', 'y']",1,"[0.7764017109875567, 1.0484299149829894, 1.3364323389832862, 1.4964503219816834, 1.6564136879751459]",596.2999185470107,None,596.2999836184754,596.3997971529898,,,,,,,,,,,,p09_gabe_08052022,001,2022_Aug_05_1415,test_typingtask_norepeats,2020.2.10,60.009560846333535,
pykka,pykka,,,,,0,82,82,82,,,,,,,,601.7999725360132,None,"['p', 'y', 'k', 'k', 'a']",1,"[0.8603747920133173, 1.08433361799689, 1.5003387770266272, 1.6363960800226778, 1.6843868650030345]",601.7999725360132,None,601.799957607509,601.9000678250159,,,,,,,,,,,,p09_gabe_08052022,001,2022_Aug_05_1415,test_typingtask_norepeats,2020.2.10,60.009560846333535,
theme,theme,,,,,0,83,83,83,,,,,,,,607.3001902689866,None,"['t', 'h', 'e', 'm', 'e']",1,"[0.7761137940105982, 0.8880972500192001, 0.9601136459968984, 1.2561121250037104, 1.2961688120267354]",607.3001902689866,None,607.3000708725158,607.4000355599856,,,,,,,,,,,,p09_gabe_08052022,001,2022_Aug_05_1415,test_typingtask_norepeats,2020.2.10,60.009560846333535,
cheer,cheer,,,,,0,84,84,84,,,,,,,,612.8002422930149,None,"['c', 'h', 'e', 'e', 'r']",1,"[0.8041696940199472, 0.9000669150264002, 0.9801566699752584, 1.148147590982262, 1.3080944910179824]",612.8002422930149,None,612.7998869345029,612.899921580014,,,,,,,,,,,,p09_gabe_08052022,001,2022_Aug_05_1415,test_typingtask_norepeats,2020.2.10,60.009560846333535,
pykka,pykka,,,,,0,85,85,85,,,,,,,,618.3002922970045,None,"['p', 'y', 'k', 'k', 'a']",1,"[0.8240090500330552, 1.088006692007184, 1.503993480000645, 1.6400322649860755, 1.7039988010074012]",618.3002922970045,None,618.2999480204744,618.400003407005,,,,,,,,,,,,p09_gabe_08052022,001,2022_Aug_05_1415,test_typingtask_norepeats,2020.2.10,60.009560846333535,
druze,druze,,,,,0,86,86,86,,,,,,,,623.8000061749772,None,"['d', 'r', 'u', 'z', 'e']",1,"[0.9882958420203067, 1.188293348008301, 1.2923381970031187, 1.6443646090338007, 1.8443439280381426]",623.8000061749772,None,623.7999546734936,623.9000056420045,,,,,,,,,,,,p09_gabe_08052022,001,2022_Aug_05_1415,test_typingtask_norepeats,2020.2.10,60.009560846333535,
vanru,vanru,,,,,0,87,87,87,,,,,,,,629.299901559978,None,"['v', 'a', 'n', 'r', 'u']",1,"[0.8884093489614315, 1.0485007569659501, 1.1604052169714123, 1.4643941160175018, 1.5364473829977214]",629.299901559978,None,629.3000102864899,629.399995528016,,,,,,,,,,,,p09_gabe_08052022,001,2022_Aug_05_1415,test_typingtask_norepeats,2020.2.10,60.009560846333535,
pykka,pykka,,,,,0,88,88,88,,,,,,,,634.8002237149922,None,"['p', 'y', 'k', 'k', 'a']",1,"[0.8441392480162904, 1.0920852459967136, 1.4681197360041551, 1.6120797119801864, 1.6920985960168764]",634.8002237149922,None,634.7998014084733,634.8998927200155,,,,,,,,,,,,p09_gabe_08052022,001,2022_Aug_05_1415,test_typingtask_norepeats,2020.2.10,60.009560846333535,
edthe,edthe,,,,,0,89,89,89,,,,,,,,640.3000885129732,None,"['e', 'd', 't', 'h', 'e']",1,"[0.960189089004416, 1.1762090229894966, 1.5041890499996953, 1.5841833589947782, 1.6961865249904804]",640.3000885129732,None,640.2999816594966,640.3997400920198,,,,,,,,,,,,p09_gabe_08052022,001,2022_Aug_05_1415,test_typingtask_norepeats,2020.2.10,60.009560846333535,
lucky,lucky,,,,,0,90,90,90,,,,,,,,645.8001748899987,None,"['l', 'u', 'c', 'j', 'y']",0,"[1.012129791022744, 1.220190818014089, 1.5162437859689817, 1.6361826549982652, 2.1481766320066527]",645.8001748899987,None,645.7999712634919,645.900007838005,,,,,,,,,,,,p09_gabe_08052022,001,2022_Aug_05_1415,test_typingtask_norepeats,2020.2.10,60.009560846333535,
theme,theme,,,,,0,91,91,91,,,,,,,,651.3166538109945,None,"['t', 'h', 'e', 'm', 'e']",1,"[0.7357046590186656, 0.8157355139846914, 0.9197285429690965, 1.215741136984434, 1.2876478609978221]",651.3166538109945,None,651.3167677214806,651.4166092510277,,,,,,,,,,,,p09_gabe_08052022,001,2022_Aug_05_1415,test_typingtask_norepeats,2020.2.10,60.009560846333535,
would,would,,,,,0,92,92,92,,,,,,,,656.8168471239915,None,"['w', 'o', 'u', 'l', 'd']",1,"[0.8914717840380035, 1.5874538110219873, 1.8434697139891796, 2.131531810038723, 2.3394815120263956]",656.8168471239915,None,656.8166380444745,656.9168372769782,,,,,,,,,,,,p09_gabe_08052022,001,2022_Aug_05_1415,test_typingtask_norepeats,2020.2.10,60.009560846333535,
belly,belly,,,,,0,93,93,93,,,,,,,,662.3180441020231,None,"['b', 'e', 'l', 'l', 'y']",1,"[0.8303054629941471, 0.9103414170094766, 1.0542489200015552, 1.2222534220200032, 1.2702560990001075]",662.3180441020231,None,662.3165557575267,662.4167464020138,,,,,,,,,,,,p09_gabe_08052022,001,2022_Aug_05_1415,test_typingtask_norepeats,2020.2.10,60.009560846333535,
tithe,tithe,,,,,0,94,94,94,,,,,,,,667.8334078609769,None,"['t', 'i', 't', 'h', 'e']",1,"[0.8829547390341759, 0.9469857120420784, 1.0509009710513055, 1.146961064019706, 1.1949595650075935]",667.8334078609769,None,667.8333167594828,667.9332323890121,,,,,,,,,,,,p09_gabe_08052022,001,2022_Aug_05_1415,test_typingtask_norepeats,2020.2.10,60.009560846333535,
cheer,cheer,,,,,0,95,95,95,,,,,,,,673.3337030500115,None,"['c', 'h', 'e', 'e', 'r']",1,"[0.7826604839647189, 0.8786394170019776, 0.9586031920043752, 1.1346729130018502, 1.2946601489675231]",673.3337030500115,None,673.3333189465193,673.4331578280253,,,,,,,,,,,,p09_gabe_08052022,001,2022_Aug_05_1415,test_typingtask_norepeats,2020.2.10,60.009560846333535,
theme,theme,,,,,0,96,96,96,,,,,,,,678.8335228709911,None,"['t', 'h', 'e', 'm', 'e']",1,"[0.73877676500706, 0.8267909959540702, 0.914826683991123, 1.1548093159799464, 1.2108196289627813]",678.8335228709911,None,678.8332289655082,678.9333015979792,,,,,,,,,,,,p09_gabe_08052022,001,2022_Aug_05_1415,test_typingtask_norepeats,2020.2.10,60.009560846333535,
would,would,,,,,0,97,97,97,,,,,,,,684.3337435790163,None,"['w', 'o', 'u', 'l', 'd']",1,"[0.9106180950184353, 1.0065540879731998, 1.1665585929877125, 1.4785612470004708, 1.6946246270090342]",684.3337435790163,None,684.3333729004808,684.4332338359964,,,,,,,,,,,,p09_gabe_08052022,001,2022_Aug_05_1415,test_typingtask_norepeats,2020.2.10,60.009560846333535,
zibja,zibja,,,,,0,98,98,98,,,,,,,,689.8339587609807,None,"['z', 'i', 'b', 'j', 'a']",1,"[1.2743600910180248, 1.3624312769970857, 1.5703705470077693, 1.77044868003577, 1.8343918760074303]",689.8339587609807,None,689.8332965224836,689.9332066899806,,,,,,,,,,,,p09_gabe_08052022,001,2022_Aug_05_1415,test_typingtask_norepeats,2020.2.10,60.009560846333535,
theme,theme,,,,,0,99,99,99,,,,,,,,695.3334565839905,None,"['t', 'h', 'e', 'm', 'e']",1,"[0.7028922709869221, 0.766850785992574, 0.8949190480052494, 1.214949537999928, 1.3588565629906952]",695.3334565839905,None,695.333366445484,695.4331986489997,,,,,,,,,,,,p09_gabe_08052022,001,2022_Aug_05_1415,test_typingtask_norepeats,2020.2.10,60.009560846333535,
edthe,edthe,,,,,0,100,100,100,,,,,,,,700.8332981540298,None,"['e', 'd', 't', 'h', 'e']",1,"[1.1229904709616676, 1.3229920140001923, 1.5309930649818853, 1.6030794309917837, 1.7069940399960615]",700.8332981540298,None,700.8334901904891,700.9332273279724,,,,,,,,,,,,p09_gabe_08052022,001,2022_Aug_05_1415,test_typingtask_norepeats,2020.2.10,60.009560846333535,
theme,theme,,,,,0,101,101,101,,,,,,,,706.3335364960076,None,"['t', 'h', 'e', 'm', 'e']",1,"[0.7907667250256054, 0.8628094249870628, 0.9907612589886412, 1.294837734021712, 1.3667671459843405]",706.3335364960076,None,706.3335148534825,706.4334336750035,,,,,,,,,,,,p09_gabe_08052022,001,2022_Aug_05_1415,test_typingtask_norepeats,2020.2.10,60.009560846333535,
vodka,vodka,,,,,0,102,102,102,,,,,,,,711.8335467920115,None,"['v', 'o', 'd', 'k', 'a']",1,"[0.890753839048557, 0.9868115910212509, 1.1547544110217132, 1.3787643240066245, 1.4747676510014571]",711.8335467920115,None,711.833262200511,711.93328259603,,,,,,,,,,,,p09_gabe_08052022,001,2022_Aug_05_1415,test_typingtask_norepeats,2020.2.10,60.009560846333535,
lucky,lucky,,,,,0,103,103,103,,,,,,,,717.3336715810292,None,"['l', 'u', 'c', 'k', 'y']",1,"[0.8146339390077628, 1.0626254469971173, 1.3746204050257802, 1.502682143007405, 1.7986878809751943]",717.3336715810292,None,717.3334299074922,717.4333956810005,,,,,,,,,,,,p09_gabe_08052022,001,2022_Aug_05_1415,test_typingtask_norepeats,2020.2.10,60.009560846333535,
zibja,zibja,,,,,0,104,104,104,,,,,,,,722.8337282829743,None,"['z', 'i', 'b', 'j', 'a']",1,"[1.186772150977049, 1.2828406839980744, 1.5146085959859192, 1.6986225339933299, 1.7865783490124159]",722.8337282829743,None,722.8334108944837,722.9336528149724,,,,,,,,,,,,p09_gabe_08052022,001,2022_Aug_05_1415,test_typingtask_norepeats,2020.2.10,60.009560846333535,
there,there,,,,,0,105,105,105,,,,,,,,728.3356972859765,None,"['t', 'h', 'e', 'r', 'e']",1,"[0.9246186499949545, 1.0046033259714022, 1.1166622549644671, 1.3566062420140952, 1.732653521001339]",728.3356972859765,None,728.3338033084729,728.4334631130041,,,,,,,,,,,,p09_gabe_08052022,001,2022_Aug_05_1415,test_typingtask_norepeats,2020.2.10,60.009560846333535,
cheer,cheer,,,,,0,106,106,106,,,,,,,,733.8502251659811,None,"['c', 'h', 'e', 'e', 'r']",1,"[0.7702369719627313, 0.8500804009963758, 1.0180895089870319, 1.1861286800121889, 1.3540785079821944]",733.8502251659811,None,733.8501049034967,733.9500572399993,,,,,,,,,,,,p09_gabe_08052022,001,2022_Aug_05_1415,test_typingtask_norepeats,2020.2.10,60.009560846333535,
druze,druze,,,,,0,107,107,107,,,,,,,,739.3505525469955,None,"['d', 'r', 'u', 'z', 'e']",1,"[1.0937927970080636, 1.3178543170215562, 1.4778046400169842, 1.7977500159759074, 2.0217825879808515]",739.3505525469955,None,739.349932981524,739.4498827249918,,,,,,,,,,,,p09_gabe_08052022,001,2022_Aug_05_1415,test_typingtask_norepeats,2020.2.10,60.009560846333535,
heond,heond,,,,,0,108,108,108,,,,,,,,744.8502705149876,None,"['h', 'e', 'o', 'n', 'd']",1,"[1.042039202991873, 1.114070151001215, 1.2340339809888974, 1.4181047869496979, 1.498080088000279]",744.8502705149876,None,744.8499523104838,744.9499947540171,,,,,,,,,,,,p09_gabe_08052022,001,2022_Aug_05_1415,test_typingtask_norepeats,2020.2.10,60.009560846333535,
haole,haole,,,,,0,109,109,109,,,,,,,,750.350144503027,None,"['h', 'a', 'o', 'l', 'e']",1,"[0.9421680480008945, 1.0462312150048092, 1.1901568659814075, 1.3741570810088888, 1.4381552090053447]",750.350144503027,None,750.3501540215075,750.4499093360209,,,,,,,,,,,,p09_gabe_08052022,001,2022_Aug_05_1415,test_typingtask_norepeats,2020.2.10,60.009560846333535,
lucky,lucky,,,,,0,110,110,110,,,,,,,,755.8502952310082,None,"['l', 'u', 'c', 'k', 'y']",1,"[0.8820476779947057, 1.1060041729942895, 1.4500211899867281, 1.5301066639949568, 1.7140034890035167]",755.8502952310082,None,755.8502593994926,755.95008946702,,,,,,,,,,,,p09_gabe_08052022,001,2022_Aug_05_1415,test_typingtask_norepeats,2020.2.10,60.009560846333535,
druze,druze,,,,,0,111,111,111,,,,,,,,761.3502501240291,None,"['d', 'r', 'u', 'z', 'e']",1,"[0.8301022179657593, 1.02205229800893, 1.118059337954037, 1.4540635279845446, 1.6701050569536164]",761.3502501240291,None,761.3500789395039,761.4500368130102,,,,,,,,,,,,p09_gabe_08052022,001,2022_Aug_05_1415,test_typingtask_norepeats,2020.2.10,60.009560846333535,
think,think,,,,,0,112,112,112,,,,,,,,766.8504367029818,None,"['t', 'h', 'i', 'n', 'k']",1,"[0.7218741400283761, 0.7939276919933036, 0.9860513960011303, 1.1859157140133902, 1.3299305090331472]",766.8504367029818,None,766.850329285473,766.9500827780284,,,,,,,,,,,,p09_gabe_08052022,001,2022_Aug_05_1415,test_typingtask_norepeats,2020.2.10,60.009560846333535,
haole,haole,,,,,0,113,113,113,,,,,,,,772.3503472769808,None,"['h', 'a', 'o', 'l', 'e']",1,"[0.709983294014819, 0.8219585930346511, 0.9259645670535974, 1.1419734110240825, 1.181989873002749]",772.3503472769808,None,772.3501444954745,772.450227652007,,,,,,,,,,,,p09_gabe_08052022,001,2022_Aug_05_1415,test_typingtask_norepeats,2020.2.10,60.009560846333535,
there,there,,,,,0,114,114,114,,,,,,,,777.8502326049784,None,"['t', 'h', 'e', 'r', 'e']",1,"[0.698178694001399, 0.7861292100278661, 0.8661214879830368, 1.058066489000339, 1.210076246992685]",777.8502326049784,None,777.8501426424918,777.9501506350061,,,,,,,,,,,,p09_gabe_08052022,001,2022_Aug_05_1415,test_typingtask_norepeats,2020.2.10,60.009560846333535,
vodka,vodka,,,,,0,115,115,115,,,,,,,,783.350305045984,None,"['v', 'o', 'd', 'k', 's', 'a']",0,"[0.8700763650122099, 0.9820176259963773, 1.5980555230053142, 1.6860174640314654, 1.7820530770113692, 1.7899692250066437]",783.350305045984,None,783.3502061904728,783.4500437549723,,,,,,,,,,,,p09_gabe_08052022,001,2022_Aug_05_1415,test_typingtask_norepeats,2020.2.10,60.009560846333535,
haole,haole,,,,,0,116,116,116,,,,,,,,788.8504042449931,None,"['h', 'a', 'o', 'l', 'e']",1,"[0.7298756410018541, 0.7938763549900614, 0.9618288390338421, 1.1378406240255572, 1.2018959629931487]",788.8504042449931,None,788.8501439905231,788.9502565419825,,,,,,,,,,,,p09_gabe_08052022,001,2022_Aug_05_1415,test_typingtask_norepeats,2020.2.10,60.009560846333535,
there,there,,,,,0,117,117,117,,,,,,,,794.3501414609782,None,"['t', 'h', 'e', 'r', 'e']",1,"[0.7261799990083091, 0.798154003045056, 0.9181626950157806, 1.1662288040388376, 1.33415947802132]",794.3501414609782,None,794.3502989705157,794.4501221200044,,,,,,,,,,,,p09_gabe_08052022,001,2022_Aug_05_1415,test_typingtask_norepeats,2020.2.10,60.009560846333535,
champ,champ,,,,,0,118,118,118,,,,,,,,799.8504277339962,None,"['c', 'h', 'a', 'm', 'p']",1,"[0.8179235049756244, 0.9299357159761712, 1.041887569008395, 1.2019705859711394, 1.4579054010100663]",799.8504277339962,None,799.8500843554939,799.9501142020163,,,,,,,,,,,,p09_gabe_08052022,001,2022_Aug_05_1415,test_typingtask_norepeats,2020.2.10,60.009560846333535,
therm,therm,,,,,0,119,119,119,,,,,,,,805.3504865109862,None,"['t', 'h', 'e', 'r', 'm']",1,"[0.7738119999994524, 0.8458134579705074, 0.9818701240001246, 1.1818753340048715, 1.3338184069725685]",805.3504865109862,None,805.3500103734987,805.4501361919974,,,,,,,,,,,,p09_gabe_08052022,001,2022_Aug_05_1415,test_typingtask_norepeats,2020.2.10,60.009560846333535,
edthe,edthe,,,,,,,,,0,0,0,0,,,,,,,,,,,,,810.8502328740142,None,817.5580527999846,None,"['e', 'd', 't', 'h', 'e']",1,"[1.3103564879857004, 1.5342668590019457, 1.758300501969643, 1.846250482951291, 1.9103103709639981]",817.5580527999846,None,817.5502036905236,817.650266978977,p09_gabe_08052022,001,2022_Aug_05_1415,test_typingtask_norepeats,2020.2.10,60.009560846333535,
cooed,cooed,,,,,,,,,0,1,1,1,,,,,,,,,,,,,,,823.0674409520288,None,"['c', 'o', 'o', 'e', 'd']",1,"[0.8408573790220544, 0.9688988350098953, 1.1368618910200894, 1.1849537420202978, 1.3448981260298751]",823.0674409520288,None,823.0668097645248,823.1671108000155,p09_gabe_08052022,001,2022_Aug_05_1415,test_typingtask_norepeats,2020.2.10,60.009560846333535,
would,would,,,,,,,,,0,2,2,2,,,,,,,,,,,,,,,828.5669064019748,None,"['w', 'o', 'u', 'l', 'd']",1,"[0.7093973680166528, 0.8453954990254715, 1.0134482490248047, 1.4373920619837008, 1.5093995910137892]",828.5669064019748,None,828.5668412644736,828.6668043730024,p09_gabe_08052022,001,2022_Aug_05_1415,test_typingtask_norepeats,2020.2.10,60.009560846333535,
tithe,tithe,,,,,,,,,0,3,3,3,,,,,,,,,,,,,,,834.0670141760202,None,"['t', 'i', 't', 'h', 'e']",1,"[0.7773623650427908, 0.8972904570400715, 0.9932993490365334, 1.1052857910399325, 1.18534363002982]",834.0670141760202,None,834.0670723125077,834.1670935169968,p09_gabe_08052022,001,2022_Aug_05_1415,test_typingtask_norepeats,2020.2.10,60.009560846333535,
champ,champ,,,,,,,,,0,4,4,4,,,,,,,,,,,,,,,839.5670647609804,None,"['c', 'h', 'a', 'm', 'o']",0,"[0.7653094890411012, 0.8772980210487731, 0.9572398230084218, 1.141238723997958, 1.3412400410161354]",839.5670647609804,None,839.5669959385268,839.6667824660253,p09_gabe_08052022,001,2022_Aug_05_1415,test_typingtask_norepeats,2020.2.10,60.009560846333535,
puppy,puppy,,,,,,,,,0,5,5,5,,,,,,,,,,,,,,,845.0669574190106,None,"['p', 'u', 'p', 'p', 'y']",1,"[0.7693906290223822, 1.0014151940122247, 1.2893414939753711, 1.4654247930156998, 1.585391130996868]",845.0669574190106,None,845.0668912764959,845.166753803991,p09_gabe_08052022,001,2022_Aug_05_1415,test_typingtask_norepeats,2020.2.10,60.009560846333535,
think,think,,,,,,,,,0,6,6,6,,,,,,,,,,,,,,,850.566981763026,None,"['t', 'h', 'i', 'n', 'k']",1,"[0.6933162880013697, 0.741306281008292, 0.9333117480273359, 1.1093109560315497, 1.2453088120091707]",850.566981763026,None,850.5669510494772,850.6669453439827,p09_gabe_08052022,001,2022_Aug_05_1415,test_typingtask_norepeats,2020.2.10,60.009560846333535,
vodka,vodka,,,,,,,,,0,7,7,7,,,,,,,,,,,,,,,856.0670643709891,None,"['v', 'o', 'd', 'k', 'a']",1,"[0.8572370850015432, 0.9613203419721685, 1.3613720799912699, 1.5533157209865749, 1.6252382730017416]",856.0670643709891,None,856.0669762575271,856.167086950998,p09_gabe_08052022,001,2022_Aug_05_1415,test_typingtask_norepeats,2020.2.10,60.009560846333535,
druze,druze,,,,,,,,,0,8,8,8,,,,,,,,,,,,,,,861.5672528380237,None,"['d', 'r', 'u', 'z', 'e']",1,"[0.9651121210190468, 1.1651008010376245, 1.3730504889972508, 1.6770731949945912, 1.901055777037982]",861.5672528380237,None,861.5669375434954,861.6669346239942,p09_gabe_08052022,001,2022_Aug_05_1415,test_typingtask_norepeats,2020.2.10,60.009560846333535,
heond,heond,,,,,,,,,0,9,9,9,,,,,,,,,,,,,,,867.0669694170065,None,"['h', 'e', 'o', 'n', 'd']",1,"[0.8013344130013138, 0.8893251349800266, 0.9933344569872133, 1.2093299350235611, 1.2973447529948317]",867.0669694170065,None,867.0670878165256,867.1669418050151,p09_gabe_08052022,001,2022_Aug_05_1415,test_typingtask_norepeats,2020.2.10,60.009560846333535,
therm,therm,,,,,,,,,0,10,10,10,,,,,,,,,,,,,,,872.5667965450266,None,"['t', 'h', 'e', 'r', 'm']",1,"[0.773510534025263, 0.821497933997307, 0.9655462660011835, 1.1335660829790868, 1.2615968610043637]",872.5667965450266,None,872.5669594814972,872.6669074319943,p09_gabe_08052022,001,2022_Aug_05_1415,test_typingtask_norepeats,2020.2.10,60.009560846333535,
about,about,,,,,,,,,0,11,11,11,,,,,,,,,,,,,,,878.0669428020192,None,"['a', 'b', 'o', 'u', 't']",1,"[0.7053518290049396, 0.817363393958658, 1.0333581639570184, 1.3694329519639723, 1.4893858869909309]",878.0669428020192,None,878.0669993465272,878.1668079010269,p09_gabe_08052022,001,2022_Aug_05_1415,test_typingtask_norepeats,2020.2.10,60.009560846333535,
cooed,cooed,,,,,,,,,0,12,12,12,,,,,,,,,,,,,,,883.5671575980086,None,"['c', 'o', 'o', 'e', 'd']",1,"[0.7571414679987356, 0.9091501040384173, 1.077197459002491, 1.1411481510149315, 1.829153255035635]",883.5671575980086,None,883.566994721521,883.6668292049726,p09_gabe_08052022,001,2022_Aug_05_1415,test_typingtask_norepeats,2020.2.10,60.009560846333535,
kremp,kremp,,,,,,,,,0,13,13,13,,,,,,,,,,,,,,,889.0673861499818,None,"['k', 'r', 'e', 'm', 'p']",1,"[0.9369067890220322, 1.048959628038574, 1.2249038490117528, 1.4649704360053875, 1.720901357010007]",889.0673861499818,None,889.0669806885271,889.1668067049759,p09_gabe_08052022,001,2022_Aug_05_1415,test_typingtask_norepeats,2020.2.10,60.009560846333535,
haole,haole,,,,,,,,,0,14,14,14,,,,,,,,,,,,,,,894.5672340719902,None,"['h', 'a', 'o', 'l', 'e']",1,"[0.7170740349683911, 0.7891001359676011, 0.9330761629971676, 1.101088624971453, 1.1810653309803456]",894.5672340719902,None,894.566968149491,894.6670208479918,p09_gabe_08052022,001,2022_Aug_05_1415,test_typingtask_norepeats,2020.2.10,60.009560846333535,
buddy,buddy,,,,,,,,,0,15,15,15,,,,,,,,,,,,,,,900.067188452027,None,"['b', 'd', 'u', 'd', 'd', 'y']",0,"[0.7611966429976746, 1.0171307199634612, 2.001120403991081, 2.0971128179808147, 2.2491489189560525, 2.3051214029546827]",900.067188452027,None,900.0669993774936,900.1667968060065,p09_gabe_08052022,001,2022_Aug_05_1415,test_typingtask_norepeats,2020.2.10,60.009560846333535,
zibja,zibja,,,,,,,,,0,16,16,16,,,,,,,,,,,,,,,905.5837800680019,None,"['z', 'i', 'b', 'j', 'a']",1,"[1.2845525840530172, 1.3565228750230744, 1.5565256680129096, 1.9405241230269894, 1.9966204830561765]",905.5837800680019,None,905.5837001274776,905.683584784012,p09_gabe_08052022,001,2022_Aug_05_1415,test_typingtask_norepeats,2020.2.10,60.009560846333535,
cooed,cooed,,,,,,,,,0,17,17,17,,,,,,,,,,,,,,,911.0839676899777,None,"['c', 'o', 'o', 'e', 'd']",1,"[0.8003486259840429, 0.9043847889988683, 1.056363545008935, 1.1043266269844025, 1.2643256139708683]",911.0839676899777,None,911.083588074529,911.1837257080188,p09_gabe_08052022,001,2022_Aug_05_1415,test_typingtask_norepeats,2020.2.10,60.009560846333535,
haole,haole,,,,,,,,,0,18,18,18,,,,,,,,,,,,,,,916.5840966810065,None,"['h', 'a', 'o', 'l', 'e']",1,"[0.7322480230359361, 0.8122025030315854, 0.9561942589934915, 1.1322413430316374, 1.1962332940311171]",916.5840966810065,None,916.5837719134724,916.6837748479738,p09_gabe_08052022,001,2022_Aug_05_1415,test_typingtask_norepeats,2020.2.10,60.009560846333535,
vanru,vanru,,,,,,,,,0,19,19,19,,,,,,,,,,,,,,,922.0836065479962,None,"['v', 'a', 'n', 'r', 'u']",1,"[0.8406850980245508, 0.9367438059998676, 1.0406898889923468, 1.4167010840028524, 1.4726932700141333]",922.0836065479962,None,922.0836356564978,922.1838475149998,p09_gabe_08052022,001,2022_Aug_05_1415,test_typingtask_norepeats,2020.2.10,60.009560846333535,
cheer,cheer,,,,,,,,,0,20,20,20,,,,,,,,,,,,,,,927.583693189983,None,"['c', 'h', 'e', 'e', 'r']",1,"[0.7886059199809097, 0.9806317510083318, 1.0686176680028439, 1.2286176250199787, 1.4046035850187764]",927.583693189983,None,927.5836584024801,927.6838094099949,p09_gabe_08052022,001,2022_Aug_05_1415,test_typingtask_norepeats,2020.2.10,60.009560846333535,
faqir,faqir,,,,,,,,,0,21,21,21,,,,,,,,,,,,,,,933.0839103290054,None,"['f', 'a', 'q', 'i', 'r']",1,"[1.088392483012285, 1.184421640005894, 1.6804021680145524, 1.9444347260287032, 2.06438649300253]",933.0839103290054,None,933.083671915505,933.1836455210287,p09_gabe_08052022,001,2022_Aug_05_1415,test_typingtask_norepeats,2020.2.10,60.009560846333535,
think,think,,,,,,,,,0,22,22,22,,,,,,,,,,,,,,,938.5837647000153,None,"['t', 'h', 'i', 'n', 'k']",1,"[0.7085633929818869, 0.7805886029964313, 0.9725374400150031, 1.1966307969996706, 1.3805253310129046]",938.5837647000153,None,938.5838287534862,938.6837295830192,p09_gabe_08052022,001,2022_Aug_05_1415,test_typingtask_norepeats,2020.2.10,60.009560846333535,
puppy,puppy,,,,,,,,,0,23,23,23,,,,,,,,,,,,,,,944.0856961839891,None,"['p', 'u', 'p', 'p', 'y']",1,"[0.8146472279913723, 1.0706227929913439, 1.3265940659912303, 1.5025933690485545, 1.7026254599913955]",944.0856961839891,None,944.0837257564854,944.1836726829933,p09_gabe_08052022,001,2022_Aug_05_1415,test_typingtask_norepeats,2020.2.10,60.009560846333535,
edthe,edthe,,,,,,,,,0,24,24,24,,,,,,,,,,,,,,,949.6006343339977,None,"['e', 'd', 't', 'h', 'e']",1,"[0.7797151540289633, 1.0277168960310519, 1.267665465013124, 1.3476838570204563, 1.4197180190240033]",949.6006343339977,None,949.6005041855242,949.7002151679771,p09_gabe_08052022,001,2022_Aug_05_1415,test_typingtask_norepeats,2020.2.10,60.009560846333535,
lucky,lucky,,,,,,,,,0,25,25,25,,,,,,,,,,,,,,,955.1005672850006,None,"['l', 'u', 'c', 'k', 'y']",1,"[0.7757282499806024, 1.039717692998238, 1.4317987299873494, 1.7197765209712088, 2.263716448971536]",955.1005672850006,None,955.1004500434938,955.200767140981,p09_gabe_08052022,001,2022_Aug_05_1415,test_typingtask_norepeats,2020.2.10,60.009560846333535,
vanru,vanru,,,,,,,,,0,26,26,26,,,,,,,,,,,,,,,960.6006202210265,None,"['v', 'a', 'n', 'r', 'u']",1,"[0.8037119529908523, 0.8836786989704706, 0.987706879968755, 1.147675367014017, 1.2756838710047305]",960.6006202210265,None,960.6002950644906,960.7005117939843,p09_gabe_08052022,001,2022_Aug_05_1415,test_typingtask_norepeats,2020.2.10,60.009560846333535,
zibja,zibja,,,,,,,,,0,27,27,27,,,,,,,,,,,,,,,966.1006525630073,None,"['z', 'i', 'b', 'j', 'a']",1,"[1.1276904059923254, 1.5996847589849494, 1.7596573589835316, 1.9916392660234123, 2.0876381769776344]",966.1006525630073,None,966.1003957965149,966.2006601629837,p09_gabe_08052022,001,2022_Aug_05_1415,test_typingtask_norepeats,2020.2.10,60.009560846333535,
cooed,cooed,,,,,,,,,0,28,28,28,,,,,,,,,,,,,,,971.600930886023,None,"['c', 'o', 'o', 'e', 'd']",1,"[0.8593791489838623, 0.9473621220095083, 1.1154225419741124, 1.1633945509674959, 1.347373513970524]",971.600930886023,None,971.6004172264802,971.7005773309793,p09_gabe_08052022,001,2022_Aug_05_1415,test_typingtask_norepeats,2020.2.10,60.009560846333535,
vanru,vanru,,,,,,,,,0,29,29,29,,,,,,,,,,,,,,,977.1003394419968,None,"['v', 'a', 'n', 'r', 'u']",1,"[0.9599811630323529, 1.1520471250405535, 1.303979059041012, 1.6079620210221037, 1.7119943450088613]",977.1003394419968,None,977.1005761704728,977.2006256230234,p09_gabe_08052022,001,2022_Aug_05_1415,test_typingtask_norepeats,2020.2.10,60.009560846333535,
champ,champ,,,,,,,,,0,30,30,30,,,,,,,,,,,,,,,982.6005197150225,None,"['c', 'h', 'a', 'm', 'p']",1,"[0.8037863390054554, 0.9237810979830101, 1.0038708610227332, 1.1878137710154988, 1.6597915950114839]",982.6005197150225,None,982.6003210234776,982.700313526002,p09_gabe_08052022,001,2022_Aug_05_1415,test_typingtask_norepeats,2020.2.10,60.009560846333535,
pykka,pykka,,,,,,,,,0,31,31,31,,,,,,,,,,,,,,,988.1005473219848,None,"['p', 'y', 'k', 'k', 'a']",1,"[0.8638040879741311, 1.1437532170093618, 1.5278151279781014, 1.7037552979891188, 1.7757588159875013]",988.1005473219848,None,988.1002971735288,988.2005544450076,p09_gabe_08052022,001,2022_Aug_05_1415,test_typingtask_norepeats,2020.2.10,60.009560846333535,
buddy,buddy,,,,,,,,,0,32,32,32,,,,,,,,,,,,,,,993.6013976870163,None,"['b', 'u', 'd', 'd', 'y']",1,"[0.8029566149925813, 1.018957604013849, 1.266917711996939, 1.434948907000944, 1.5309839370311238]",993.6013976870163,None,993.6006154715287,993.7003429499746,p09_gabe_08052022,001,2022_Aug_05_1415,test_typingtask_norepeats,2020.2.10,60.009560846333535,
cooed,cooed,,,,,,,,,0,33,33,33,,,,,,,,,,,,,,,999.1196812020207,None,"['c', 'o', 'o', 'e', 'd']",1,"[0.9246218589833006, 1.036620998987928, 1.1806316509610042, 1.2446336459834129, 1.4127270989702083]",999.1196812020207,None,999.1180216744979,999.2169832280197,p09_gabe_08052022,001,2022_Aug_05_1415,test_typingtask_norepeats,2020.2.10,60.009560846333535,
theme,theme,,,,,,,,,0,34,34,34,,,,,,,,,,,,,,,1004.6172707979858,None,"['t', 'h', 'e', 'm', 'e']",1,"[0.779073059966322, 0.8511281439568847, 0.9710290199727751, 1.2510380069725215, 1.3150781400036067]",1004.6172707979858,None,1004.6172624705214,1004.7171006750141,p09_gabe_08052022,001,2022_Aug_05_1415,test_typingtask_norepeats,2020.2.10,60.009560846333535,
cheer,cheer,,,,,,,,,0,35,35,35,,,,,,,,,,,,,,,1010.1171646939765,None,"['c', 'h', 'e', 'e', 'r']",1,"[0.8231376650510356, 0.9031978010316379, 0.9991878370055929, 1.1591466120444238, 1.3351845390279777]",1010.1171646939765,None,1010.1171816204878,1010.2174168349884,p09_gabe_08052022,001,2022_Aug_05_1415,test_typingtask_norepeats,2020.2.10,60.009560846333535,
edthe,edthe,,,,,,,,,0,36,36,36,,,,,,,,,,,,,,,1015.6181763150089,None,"['e', 'd', 't', 'h', 'e']",1,"[0.7941651520086452, 0.9622241010074504, 1.1943201420363039, 1.2821802220423706, 1.3541275770403445]",1015.6181763150089,None,1015.6176058275014,1015.7170709020284,p09_gabe_08052022,001,2022_Aug_05_1415,test_typingtask_norepeats,2020.2.10,60.009560846333535,
lucky,lucky,,,,,,,,,0,37,37,37,,,,,,,,,,,,,,,1021.1340519800142,None,"['l', 'u', 'c', 'k', 'y']",1,"[0.9343097960227169, 1.1422553170123138, 1.454288696986623, 1.5343025629990734, 1.7902790100197308]",1021.1340519800142,None,1021.1337499184738,1021.2348284389882,p09_gabe_08052022,001,2022_Aug_05_1415,test_typingtask_norepeats,2020.2.10,60.009560846333535,
think,think,,,,,,,,,0,38,38,38,,,,,,,,,,,,,,,1026.6350577459962,None,"['t', 'h', 'i', 'n', 'k']",1,"[0.7372390709933825, 0.8012901890324429, 0.9932925759931095, 1.2092789020389318, 1.4492409600061364]",1026.6350577459962,None,1026.6339742414857,1026.733662232029,p09_gabe_08052022,001,2022_Aug_05_1415,test_typingtask_norepeats,2020.2.10,60.009560846333535,
lucky,lucky,,,,,,,,,0,39,39,39,,,,,,,,,,,,,,,1032.152866495977,None,"['l', 'u', 'c', 'k', 'u', 'y']",0,"[0.8594679519883357, 1.0595172989997081, 1.419435648014769, 1.491443815000821, 1.699528151017148, 2.9714501179987565]",1032.152866495977,None,1032.1511904424842,1032.2504815369903,p09_gabe_08052022,001,2022_Aug_05_1415,test_typingtask_norepeats,2020.2.10,60.009560846333535,
faqir,faqir,,,,,,,,,0,40,40,40,,,,,,,,,,,,,,,1037.6507915280235,None,"['f', 'a', 'q', 'i', 'r']",1,"[0.9616089549963363, 1.017525710980408, 1.4495414029806852, 1.6015585529967211, 1.7295588940032758]",1037.6507915280235,None,1037.6505362375028,1037.7503942660114,p09_gabe_08052022,001,2022_Aug_05_1415,test_typingtask_norepeats,2020.2.10,60.009560846333535,
belly,belly,,,,,,,,,0,41,41,41,,,,,,,,,,,,,,,1043.150679843995,None,"['b', 'e', 'l', 'l', 'y']",1,"[0.7416500520193949, 1.0936714420095086, 1.2697252120124176, 1.4056198420003057, 1.5256391059956513]",1043.150679843995,None,1043.1506001445086,1043.2505870809837,p09_gabe_08052022,001,2022_Aug_05_1415,test_typingtask_norepeats,2020.2.10,60.009560846333535,
there,there,,,,,,,,,0,42,42,42,,,,,,,,,,,,,,,1048.650665765017,None,"['t', 'h', 'e', 'r', 'e', 'f']",0,"[0.7376318809692748, 0.7777377409511246, 0.897635300992988, 1.113641399948392, 1.4177000609925017, 1.7936440089833923]",1048.650665765017,None,1048.6504409505142,1048.750456645008,p09_gabe_08052022,001,2022_Aug_05_1415,test_typingtask_norepeats,2020.2.10,60.009560846333535,
vodka,vodka,,,,,,,,,0,43,43,43,,,,,,,,,,,,,,,1054.1672410539759,None,"['v', 'o', 'd', 'k', 'a']",1,"[0.893070564023219, 1.005066636018455, 1.4611133529688232, 1.7971396070206538, 1.8531151859788224]",1054.1672410539759,None,1054.1673110814736,1054.2671122579777,p09_gabe_08052022,001,2022_Aug_05_1415,test_typingtask_norepeats,2020.2.10,60.009560846333535,
druze,druze,,,,,,,,,0,44,44,44,,,,,,,,,,,,,,,1059.6673900030146,None,"['d', 'r', 'u', 'z', 'e']",1,"[0.9611969059915282, 1.1289057270041667, 1.272910955012776, 1.5369593409704976, 1.7369687379687093]",1059.6673900030146,None,1059.667225396479,1059.7672188579745,p09_gabe_08052022,001,2022_Aug_05_1415,test_typingtask_norepeats,2020.2.10,60.009560846333535,
there,there,,,,,,,,,0,45,45,45,,,,,,,,,,,,,,,1065.1673321490234,None,"['t', 'h', 'e', 'r', 'e']",1,"[0.6850231880089268, 0.7729599809972569, 0.8769648420275189, 1.085009306028951, 1.276965030003339]",1065.1673321490234,None,1065.1672112354863,1065.2670818390034,p09_gabe_08052022,001,2022_Aug_05_1415,test_typingtask_norepeats,2020.2.10,60.009560846333535,
puppy,puppy,,,,,,,,,0,46,46,46,,,,,,,,,,,,,,,1070.6673966379894,None,"['p', 'u', 'p', 'p', 'y']",1,"[0.872903557959944, 1.1369176959851757, 1.504934283962939, 1.672904409992043, 1.8089072309667245]",1070.6673966379894,None,1070.6673259694799,1070.7671636559826,p09_gabe_08052022,001,2022_Aug_05_1415,test_typingtask_norepeats,2020.2.10,60.009560846333535,
would,would,,,,,,,,,0,47,47,47,,,,,,,,,,,,,,,1076.1675342680246,None,"['w', 'o', 'u', 'l', 'd']",1,"[0.7887659840052947, 0.9567669070092961, 1.1247927579679526, 1.4848169710021466, 1.5968220389913768]",1076.1675342680246,None,1076.1671071934834,1076.2671658260224,p09_gabe_08052022,001,2022_Aug_05_1415,test_typingtask_norepeats,2020.2.10,60.009560846333535,
therm,therm,,,,,,,,,0,48,48,48,,,,,,,,,,,,,,,1081.667477297975,None,"['t', 'h', 'e', 'r', 'm']",1,"[0.9368788569699973, 1.0168257719487883, 1.1368684949702583, 1.3048224179656245, 1.4489148509455845]",1081.667477297975,None,1081.6671634334925,1081.7671094190155,p09_gabe_08052022,001,2022_Aug_05_1415,test_typingtask_norepeats,2020.2.10,60.009560846333535,
there,there,,,,,,,,,0,49,49,49,,,,,,,,,,,,,,,1087.1672232969722,None,"['t', 'h', 'e', 'r', 'e']",1,"[0.7971767830313183, 0.8691286779940128, 0.9730864919838496, 1.1731102840276435, 1.3331335799884982]",1087.1672232969722,None,1087.1673429814837,1087.2670881109952,p09_gabe_08052022,001,2022_Aug_05_1415,test_typingtask_norepeats,2020.2.10,60.009560846333535,
about,about,,,,,,,,,0,50,50,50,,,,,,,,,,,,,,,1092.6845386729983,None,"['a', 'b', 'o', 'u', 't']",1,"[0.8397578780422918, 0.9518173020333052, 1.159783328010235, 1.6237693480215967, 1.711804356018547]",1092.6845386729983,None,1092.6844597515155,1092.7838377100124,p09_gabe_08052022,001,2022_Aug_05_1415,test_typingtask_norepeats,2020.2.10,60.009560846333535,
pykka,pykka,,,,,,,,,0,51,51,51,,,,,,,,,,,,,,,1098.1844222509826,None,"['p', 'y', 'k', 'k', 's', 'a']",0,"[1.083921283017844, 1.1638797880150378, 1.3398787149926648, 1.4839020170038566, 1.5718798270099796, 1.57993860199349]",1098.1844222509826,None,1098.1844147305092,1098.2840731100005,p09_gabe_08052022,001,2022_Aug_05_1415,test_typingtask_norepeats,2020.2.10,60.009560846333535,
therm,therm,,,,,,,,,0,52,52,52,,,,,,,,,,,,,,,1103.7007840390143,None,"['t', 'h', 'e', 'r', 'm']",1,"[0.7115742320311256, 0.8074963130056858, 0.8954985280288383, 1.063584448012989, 1.199609280040022]",1103.7007840390143,None,1103.7007483584894,1103.80048759302,p09_gabe_08052022,001,2022_Aug_05_1415,test_typingtask_norepeats,2020.2.10,60.009560846333535,
would,would,,,,,,,,,0,53,53,53,,,,,,,,,,,,,,,1109.200791929994,None,"['w', 'o', 'u', 'l', 'd']",1,"[0.7316073459805921, 0.9315555329667404, 1.1075066329794936, 1.4675136099685915, 1.563557643967215]",1109.200791929994,None,1109.2006509635103,1109.3007324619975,p09_gabe_08052022,001,2022_Aug_05_1415,test_typingtask_norepeats,2020.2.10,60.009560846333535,
belly,belly,,,,,,,,,0,54,54,54,,,,,,,,,,,,,,,1114.7008698099817,None,"['b', 'e', 'l', 'l', 'y']",1,"[0.663476983027067, 0.7274772680248134, 0.9195377569994889, 1.0635184069979005, 1.2634839399834163]",1114.7008698099817,None,1114.7005251134833,1114.8008250990242,p09_gabe_08052022,001,2022_Aug_05_1415,test_typingtask_norepeats,2020.2.10,60.009560846333535,
would,would,,,,,,,,,0,55,55,55,,,,,,,,,,,,,,,1120.201038128027,None,"['w', 'o', 'u', 'l', 'd']",1,"[0.6193394899601117, 0.7633046690025367, 1.0513161969720386, 1.483260196982883, 1.5633098969701678]",1120.201038128027,None,1120.2005273125105,1120.3005531080125,p09_gabe_08052022,001,2022_Aug_05_1415,test_typingtask_norepeats,2020.2.10,60.009560846333535,
about,about,,,,,,,,,0,56,56,56,,,,,,,,,,,,,,,1125.7006614089769,None,"['a', 'b', 'o', 'u', 't']",1,"[0.6236420199857093, 0.7277445350191556, 0.9516858279821463, 1.1996929839951918, 1.2876417210209183]",1125.7006614089769,None,1125.7006530145154,1125.800488695997,p09_gabe_08052022,001,2022_Aug_05_1415,test_typingtask_norepeats,2020.2.10,60.009560846333535,
would,would,,,,,,,,,0,57,57,57,,,,,,,,,,,,,,,1131.2008669909847,None,"['w', 'o', 'u', 'l', 'd']",1,"[0.6514920349582098, 0.7795291889924556, 1.0115424819523469, 1.3234613169915974, 1.4354901689803228]",1131.2008669909847,None,1131.2006388765149,1131.3007271340175,p09_gabe_08052022,001,2022_Aug_05_1415,test_typingtask_norepeats,2020.2.10,60.009560846333535,
faqir,faqir,,,,,,,,,0,58,58,58,,,,,,,,,,,,,,,1136.70083371902,None,"['f', 'a', 'q', 'i', 'r']",1,"[1.1035220139892772, 1.1834720459883101, 1.3754772499669343, 1.575474208977539, 1.71951112896204]",1136.70083371902,None,1136.7004933385033,1136.8005572670081,p09_gabe_08052022,001,2022_Aug_05_1415,test_typingtask_norepeats,2020.2.10,60.009560846333535,
haole,haole,,,,,,,,,0,59,59,59,,,,,,,,,,,,,,,1142.2009515239915,None,"['h', 'a', 'o', 'l', 'e']",1,"[0.7473510240088217, 0.8356318059959449, 1.0114167149877176, 1.1954035200178623, 1.2593618530081585]",1142.2009515239915,None,1142.2007568264817,1142.3007613109949,p09_gabe_08052022,001,2022_Aug_05_1415,test_typingtask_norepeats,2020.2.10,60.009560846333535,
about,about,,,,,,,,,0,60,60,60,,,,,,,,,,,,,,,1147.7008325999777,None,"['a', 'b', 'o', 'u', 't']",1,"[0.6635636439896189, 0.7915348350070417, 1.0315161080216058, 1.2714688970008865, 1.3834835200104862]",1147.7008325999777,None,1147.7006870275218,1147.8008168909873,p09_gabe_08052022,001,2022_Aug_05_1415,test_typingtask_norepeats,2020.2.10,60.009560846333535,
tithe,tithe,,,,,,,,,0,61,61,61,,,,,,,,,,,,,,,1153.2010507579835,None,"['t', 'i', 't', 'h', 'e']",1,"[0.7633215570240282, 0.8994415160268545, 0.9712728030281141, 1.1232856700080447, 1.1633074179990217]",1153.2010507579835,None,1153.200775102523,1153.3007102320262,p09_gabe_08052022,001,2022_Aug_05_1415,test_typingtask_norepeats,2020.2.10,60.009560846333535,
zibja,zibja,,,,,,,,,0,62,62,62,,,,,,,,,,,,,,,1158.7014109919837,None,"['z', 'i', 'b', 'j', 'a']",1,"[1.3109481919673271, 1.3909029719652608, 1.5749010340077803, 1.846878743963316, 1.9428984869737178]",1158.7014109919837,None,1158.700552782495,1158.8006188120053,p09_gabe_08052022,001,2022_Aug_05_1415,test_typingtask_norepeats,2020.2.10,60.009560846333535,
pykka,pykka,,,,,,,,,0,63,63,63,,,,,,,,,,,,,,,1164.2006602280017,None,"['p', 'y', 'k', 'k', 'a']",1,"[0.8516804350074381, 1.1636952169938013, 1.5476358499727212, 1.6916534699848853, 1.7797242879751138]",1164.2006602280017,None,1164.200649909486,1164.3006355950201,p09_gabe_08052022,001,2022_Aug_05_1415,test_typingtask_norepeats,2020.2.10,60.009560846333535,
buddy,buddy,,,,,,,,,0,64,64,64,,,,,,,,,,,,,,,1169.7008616029925,None,"['b', 'u', 'd', 'd', 'y']",1,"[0.7594444360001944, 0.9515903809806332, 1.1995642160181887, 1.3754424540093169, 1.4794708639965393]",1169.7008616029925,None,1169.7008194004738,1169.800662594993,p09_gabe_08052022,001,2022_Aug_05_1415,test_typingtask_norepeats,2020.2.10,60.009560846333535,
lucky,lucky,,,,,,,,,0,65,65,65,,,,,,,,,,,,,,,1175.2009392230248,None,"['l', 'u', 'c', 'k', 'y']",1,"[0.8514192529837601, 1.107362037000712, 1.443379662989173, 1.5553631330258213, 1.8514151130220853]",1175.2009392230248,None,1175.2008170185,1175.3006642550172,p09_gabe_08052022,001,2022_Aug_05_1415,test_typingtask_norepeats,2020.2.10,60.009560846333535,
kremp,kremp,,,,,,,,,0,66,66,66,,,,,,,,,,,,,,,1180.7010732639756,None,"['k', 'r', 'e', 'm', 'p']",1,"[0.903477412997745, 1.0152677209698595, 1.191247889015358, 1.3992761399713345, 1.8312742200214416]",1180.7010732639756,None,1180.7005920925149,1180.8007297650038,p09_gabe_08052022,001,2022_Aug_05_1415,test_typingtask_norepeats,2020.2.10,60.009560846333535,
lucky,lucky,,,,,,,,,0,67,67,67,,,,,,,,,,,,,,,1186.201094473974,None,"['l', 'u', 'c', 'k', 'y']",1,"[0.9232037490000948, 1.1472013280144893, 1.4912260179989971, 1.571233624999877, 1.9312266469933093]",1186.201094473974,None,1186.2006393854826,1186.300642481976,p09_gabe_08052022,001,2022_Aug_05_1415,test_typingtask_norepeats,2020.2.10,60.009560846333535,
kremp,kremp,,,,,,,,,0,68,68,68,,,,,,,,,,,,,,,1191.7009424880089,None,"['k', 'r', 'e', 'm', 'p']",1,"[0.8713899760041386, 0.975362351979129, 1.1514073539874516, 1.3114196870010346, 1.503411796002183]",1191.7009424880089,None,1191.7007638505165,1191.8007506529975,p09_gabe_08052022,001,2022_Aug_05_1415,test_typingtask_norepeats,2020.2.10,60.009560846333535,
belly,belly,,,,,,,,,0,69,69,69,,,,,,,,,,,,,,,1197.2014275709807,None,"['b', 'e', 'l', 'l', 'y']",1,"[1.0269323000102304, 1.1468707110034302, 1.2828792739892378, 1.4668839129735716, 1.6109399090055376]",1197.2014275709807,None,1197.2007304014842,1197.30048737998,p09_gabe_08052022,001,2022_Aug_05_1415,test_typingtask_norepeats,2020.2.10,60.009560846333535,
theme,theme,,,,,,,,,0,70,70,70,,,,,,,,,,,,,,,1202.7008665920293,None,"['t', 'h', 'e', 'm', 'e']",1,"[0.7194780310383067, 0.7995131350471638, 0.9114947720081545, 1.1914303700323217, 1.2634863480343483]",1202.7008665920293,None,1202.7008074074838,1202.8006452080153,p09_gabe_08052022,001,2022_Aug_05_1415,test_typingtask_norepeats,2020.2.10,60.009560846333535,
cheer,cheer,,,,,,,,,0,71,71,71,,,,,,,,,,,,,,,1208.200720178982,None,"['c', 'h', 'e', 'e', 'r']",1,"[0.7555786790326238, 0.8755891600158066, 0.9555751060252078, 1.1156176050426438, 1.2835831880220212]",1208.200720178982,None,1208.200889442509,1208.3008531439991,p09_gabe_08052022,001,2022_Aug_05_1415,test_typingtask_norepeats,2020.2.10,60.009560846333535,
heond,heond,,,,,,,,,0,72,72,72,,,,,,,,,,,,,,,1213.70089864303,None,"['h', 'o', 'e', 'o', 'n', 'd']",0,"[0.7274362819734961, 0.9354786910116673, 2.015425684978254, 2.1114529600017704, 2.2954040479962714, 2.3673871040227823]",1213.70089864303,None,1213.70069295149,1213.8007933200279,p09_gabe_08052022,001,2022_Aug_05_1415,test_typingtask_norepeats,2020.2.10,60.009560846333535,
faqir,faqir,,,,,,,,,0,73,73,73,,,,,,,,,,,,,,,1219.2175808939792,None,"['f', 'a', 'q', 'i', 'e']",0,"[0.9387195470044389, 1.0347256490495056, 1.4907177209970541, 1.594773326010909, 1.6987622320302762]",1219.2175808939792,None,1219.2175164394866,1219.3174011499796,p09_gabe_08052022,001,2022_Aug_05_1415,test_typingtask_norepeats,2020.2.10,60.009560846333535,
therm,therm,,,,,,,,,0,74,74,74,,,,,,,,,,,,,,,1224.7175373640202,None,"['t', 'h', 'e', 'r', 'm']",1,"[0.7667694669798948, 0.8227660899865441, 0.9188150329864584, 1.086812426976394, 1.3188109709881246]",1224.7175373640202,None,1224.7176346995257,1224.817247686995,p09_gabe_08052022,001,2022_Aug_05_1415,test_typingtask_norepeats,2020.2.10,60.009560846333535,
tithe,tithe,,,,,,,,,0,75,75,75,,,,,,,,,,,,,,,1230.2177856809867,None,"['t', 'i', 't', 'h', 'e']",1,"[0.9705229419632815, 1.0745154090109281, 1.1546456419746391, 1.2745089610107243, 1.3385259020142257]",1230.2177856809867,None,1230.2173271605134,1230.3171938390296,p09_gabe_08052022,001,2022_Aug_05_1415,test_typingtask_norepeats,2020.2.10,60.009560846333535,
zibja,zibja,,,,,,,,,0,76,76,76,,,,,,,,,,,,,,,1235.7175846200262,None,"['z', 'i', 'b', 'j', 'a']",1,"[1.054710216994863, 1.142725063022226, 1.342722697998397, 1.566721517010592, 1.6147225929889828]",1235.7175846200262,None,1235.7175279075018,1235.8173164560285,p09_gabe_08052022,001,2022_Aug_05_1415,test_typingtask_norepeats,2020.2.10,60.009560846333535,
kremp,kremp,,,,,,,,,0,77,77,77,,,,,,,,,,,,,,,1241.2176256800012,None,"['k', 'r', 'e', 'm', 'p']",1,"[1.0827216749894433, 1.162677625019569, 1.3147484119981527, 1.3948133160010912, 1.5386675259796903]",1241.2176256800012,None,1241.2173783965263,1241.3174376919924,p09_gabe_08052022,001,2022_Aug_05_1415,test_typingtask_norepeats,2020.2.10,60.009560846333535,
vodka,vodka,,,,,,,,,0,78,78,78,,,,,,,,,,,,,,,1246.7175561369804,None,"['v', 'o', 'd', 'k', 'a']",1,"[0.9987842789851129, 1.0787492839735933, 1.4948027819627896, 1.6467900690040551, 1.7267625239910558]",1246.7175561369804,None,1246.7173716244724,1246.8172995599743,p09_gabe_08052022,001,2022_Aug_05_1415,test_typingtask_norepeats,2020.2.10,60.009560846333535,
haole,haole,,,,,,,,,0,79,79,79,,,,,,,,,,,,,,,1252.234392208018,None,"['h', 'a', 'o', 'l', 'e']",1,"[0.6979448160273023, 0.7619021339924075, 0.8819579179980792, 1.0499243109952658, 1.178024496010039]",1252.234392208018,None,1252.2341756804817,1252.3341950109752,p09_gabe_08052022,001,2022_Aug_05_1415,test_typingtask_norepeats,2020.2.10,60.009560846333535,
champ,champ,,,,,,,,,0,80,80,80,,,,,,,,,,,,,,,1257.7344582830265,None,"['c', 'h', 'a', 'm', 'p', 'o']",0,"[0.845850404992234, 0.9338559750467539, 1.0458832110161893, 1.16595763200894, 1.3498656009905972, 1.3578892819932662]",1257.7344582830265,None,1257.734186223519,1257.8340970540012,p09_gabe_08052022,001,2022_Aug_05_1415,test_typingtask_norepeats,2020.2.10,60.009560846333535,
theme,theme,,,,,,,,,0,81,81,81,,,,,,,,,,,,,,,1263.2344636270136,None,"['t', 'h', 'e', 'm', 'e']",1,"[0.6978932339698076, 0.7779330729972571, 0.9138388970168307, 1.1858934289775789, 1.2578375759767368]",1263.2344636270136,None,1263.2342234685057,1263.334236117982,p09_gabe_08052022,001,2022_Aug_05_1415,test_typingtask_norepeats,2020.2.10,60.009560846333535,
therm,therm,,,,,,,,,0,82,82,82,,,,,,,,,,,,,,,1268.734123953007,None,"['t', 'h', 'e', 'r', 'm']",1,"[0.758173618989531, 0.8303230269812047, 0.9982542839716189, 1.2381721129640937, 1.3501794319599867]",1268.734123953007,None,1268.7341605864785,1268.8342012830253,p09_gabe_08052022,001,2022_Aug_05_1415,test_typingtask_norepeats,2020.2.10,60.009560846333535,
cheer,cheer,,,,,,,,,0,83,83,83,,,,,,,,,,,,,,,1274.2345575309882,None,"['c', 'h', 'e', 'e', 'r']",1,"[0.849747019005008, 0.9538093819865026, 1.0337446170160547, 1.2018389650038444, 1.3698481949977577]",1274.2345575309882,None,1274.2343519175047,1274.3342240130005,p09_gabe_08052022,001,2022_Aug_05_1415,test_typingtask_norepeats,2020.2.10,60.009560846333535,
belly,belly,,,,,,,,,0,84,84,84,,,,,,,,,,,,,,,1279.7345619920234,None,"['b', 'e', 'l', 'l', 'y']",1,"[0.7417473099776544, 0.8377354399999604, 0.9897380759939551, 1.1737395079690032, 1.2698336790199392]",1279.7345619920234,None,1279.7343444424769,1279.834020098002,p09_gabe_08052022,001,2022_Aug_05_1415,test_typingtask_norepeats,2020.2.10,60.009560846333535,
haole,haole,,,,,,,,,0,85,85,85,,,,,,,,,,,,,,,1285.234301421995,None,"['h', 'a', 'o', 'l', 'e']",1,"[0.7300358359934762, 0.8579829129739664, 1.0180317880003713, 1.2259920009528287, 1.2979948899592273]",1285.234301421995,None,1285.2341562145011,1285.3341662489984,p09_gabe_08052022,001,2022_Aug_05_1415,test_typingtask_norepeats,2020.2.10,60.009560846333535,
buddy,buddy,,,,,,,,,0,86,86,86,,,,,,,,,,,,,,,1290.7343450620247,None,"['b', 'u', 'd', 'd', 'y']",1,"[0.7820169649785385, 0.9660026599885896, 1.1899514429969713, 1.3499620700022206, 1.4459560479735956]",1290.7343450620247,None,1290.734144832517,1290.8341162689903,p09_gabe_08052022,001,2022_Aug_05_1415,test_typingtask_norepeats,2020.2.10,60.009560846333535,
faqir,faqir,,,,,,,,,0,87,87,87,,,,,,,,,,,,,,,1296.2345285159827,None,"['f', 'a', 'q', 'i', 'r']",1,"[1.137773233000189, 1.2818790189921856, 1.7938399689737707, 1.913796551991254, 2.2178239569766447]",1296.2345285159827,None,1296.2340779405058,1296.3341813540028,p09_gabe_08052022,001,2022_Aug_05_1415,test_typingtask_norepeats,2020.2.10,60.009560846333535,
kremp,kremp,,,,,,,,,0,88,88,88,,,,,,,,,,,,,,,1301.734336752008,None,"['k', 'r', 'e', 'm', 'p']",1,"[0.941975993977394, 1.0380299339885823, 1.1899628959945403, 1.3259713599691167, 1.630024723999668]",1301.734336752008,None,1301.7342748375231,1301.8340042479977,p09_gabe_08052022,001,2022_Aug_05_1415,test_typingtask_norepeats,2020.2.10,60.009560846333535,
druze,druze,,,,,,,,,0,89,89,89,,,,,,,,,,,,,,,1307.2342506500136,None,"['d', 'r', 'u', 'z', 'e']",1,"[0.9140559370280243, 1.1220755760441534, 1.4980583669967018, 1.602061229001265, 1.8340544490492903]",1307.2342506500136,None,1307.2342608515028,1307.3340653939813,p09_gabe_08052022,001,2022_Aug_05_1415,test_typingtask_norepeats,2020.2.10,60.009560846333535,
about,about,,,,,,,,,0,90,90,90,,,,,,,,,,,,,,,1312.7343696700118,None,"['a', 'b', 'o', 'u', 't']",1,"[0.7820331049733795, 0.8459923199843615, 1.061983119987417, 1.333935604954604, 1.4300320069887675]",1312.7343696700118,None,1312.7343073544762,1312.8341868570133,p09_gabe_08052022,001,2022_Aug_05_1415,test_typingtask_norepeats,2020.2.10,60.009560846333535,
zibja,zibja,,,,,,,,,0,91,91,91,,,,,,,,,,,,,,,1318.2343485490128,None,"['z', 'i', 'b', 'j', 'a']",1,"[1.3700451540062204, 1.4820147680002265, 1.6660042249714024, 2.049960286996793, 2.1539477889891714]",1318.2343485490128,None,1318.2342621065181,1318.334251829976,p09_gabe_08052022,001,2022_Aug_05_1415,test_typingtask_norepeats,2020.2.10,60.009560846333535,
druze,druze,,,,,,,,,0,92,92,92,,,,,,,,,,,,,,,1323.7344590139983,None,"['d', 'r', 'u', 'z', 'e']",1,"[1.1019249749951996, 1.293944176984951, 1.4539238129509613, 1.6538875479600392, 1.8859480939572677]",1323.7344590139983,None,1323.7344457144936,1323.8342374880158,p09_gabe_08052022,001,2022_Aug_05_1415,test_typingtask_norepeats,2020.2.10,60.009560846333535,
pykka,pykka,,,,,,,,,0,93,93,93,,,,,,,,,,,,,,,1329.2345453690214,None,"['p', 'y', 'k', 'k', 'a']",1,"[0.8977455330314115, 1.2257577200070955, 1.6257705260068178, 1.7778307760017924, 1.8737530140206218]",1329.2345453690214,None,1329.2343208644743,1329.334399777028,p09_gabe_08052022,001,2022_Aug_05_1415,test_typingtask_norepeats,2020.2.10,60.009560846333535,
heond,heond,,,,,,,,,0,94,94,94,,,,,,,,,,,,,,,1334.7342064350087,None,"['h', 'r', 'o', 'e', 'o', 'n', 'd']",0,"[0.7340666039963253, 0.8540672209928744, 0.942102751985658, 2.1100867959903553, 2.206072953005787, 2.35806371999206, 2.4460651089902967]",1334.7342064350087,None,1334.7343167865038,1334.8343759459967,p09_gabe_08052022,001,2022_Aug_05_1415,test_typingtask_norepeats,2020.2.10,60.009560846333535,
puppy,puppy,,,,,,,,,0,95,95,95,,,,,,,,,,,,,,,1340.2510698560218,None,"['p', 'u', 'p', 'p', 'y']",1,"[0.7532811790006235, 0.9932497759582475, 1.3932416239986196, 1.5533131179981865, 1.6252281949855387]",1340.2510698560218,None,1340.2508839334914,1340.3508942069893,p09_gabe_08052022,001,2022_Aug_05_1415,test_typingtask_norepeats,2020.2.10,60.009560846333535,
druze,druze,,,,,,,,,0,96,96,96,,,,,,,,,,,,,,,1345.7512151859992,None,"['d', 'r', 'u', 'z', 'e']",1,"[0.8611502930289134, 1.0531587890000083, 1.34109228302259, 1.4371478880057111, 1.661194617045112]",1345.7512151859992,None,1345.7508168995118,1345.8510523260047,p09_gabe_08052022,001,2022_Aug_05_1415,test_typingtask_norepeats,2020.2.10,60.009560846333535,
heond,heond,,,,,,,,,0,97,97,97,,,,,,,,,,,,,,,1351.2514786440006,None,"['h', 'e', 'o', 'n', 'd']",1,"[0.872820666001644, 1.0008939399849623, 1.0728275990113616, 1.2489362880005501, 1.3048264679964632]",1351.2514786440006,None,1351.251992722493,None,p09_gabe_08052022,001,2022_Aug_05_1415,test_typingtask_norepeats,2020.2.10,60.009560846333535,
theme,theme,,,,,,,,,0,98,98,98,,,,,,,,,,,,,,,1356.7509316940268,None,"['t', 'h', 'e', 'm', 'e']",1,"[0.77336358895991, 0.8534719979506917, 1.0293735769810155, 1.3413689939770848, 1.4213697519735433]",1356.7509316940268,None,1356.7509249034774,1356.8508300339745,p09_gabe_08052022,001,2022_Aug_05_1415,test_typingtask_norepeats,2020.2.10,60.009560846333535,
buddy,buddy,,,,,,,,,0,99,99,99,,,,,,,,,,,,,,,1362.251037111011,None,"['b', 'u', 'd', 'd', 'y']",1,"[0.7932825139723718, 0.98532769898884, 1.3293097449932247, 1.5133829800179228, 1.6012699279817753]",1362.251037111011,None,1362.2510934065067,1362.35110131299,p09_gabe_08052022,001,2022_Aug_05_1415,test_typingtask_norepeats,2020.2.10,60.009560846333535,
champ,champ,,,,,,,,,0,100,100,100,,,,,,,,,,,,,,,1367.751155955979,None,"['c', 'h', 'a', 'm', 'p']",1,"[0.9411796710337512, 1.093169988016598, 1.3411404030048288, 1.4931670060032047, 1.9171475120238028]",1367.751155955979,None,1367.750985446488,1367.8508243430115,p09_gabe_08052022,001,2022_Aug_05_1415,test_typingtask_norepeats,2020.2.10,60.009560846333535,
heond,heond,,,,,,,,,0,101,101,101,,,,,,,,,,,,,,,1373.2510908220138,None,"['h', 'e', 'o', 'n', 'd']",1,"[0.7772329000290483, 0.9132467400049791, 0.9932183380005881, 1.16926448099548, 1.2811971350456588]",1373.2510908220138,None,1373.2510933235026,1373.3508886359923,p09_gabe_08052022,001,2022_Aug_05_1415,test_typingtask_norepeats,2020.2.10,60.009560846333535,
there,there,,,,,,,,,0,102,102,102,,,,,,,,,,,,,,,1378.751110215002,None,"['t', 'h', 'e', 'r', 'e']",1,"[0.781222420046106, 0.8532870770432055, 0.9572187080048025, 1.1891787300119177, 1.5171886950265616]",1378.751110215002,None,1378.7510355844715,1378.8510578759888,p09_gabe_08052022,001,2022_Aug_05_1415,test_typingtask_norepeats,2020.2.10,60.009560846333535,
vodka,vodka,,,,,,,,,0,103,103,103,,,,,,,,,,,,,,,1384.2512627020187,None,"['v', 'o', 'd', 'k', 'a']",1,"[0.9850936730508693, 1.089044210035354, 1.3770448040449992, 1.8090462390100583, 1.8890587170026265]",1384.2512627020187,None,1384.2510414324788,1384.3510697469756,p09_gabe_08052022,001,2022_Aug_05_1415,test_typingtask_norepeats,2020.2.10,60.009560846333535,
vanru,vanru,,,,,,,,,0,104,104,104,,,,,,,,,,,,,,,1389.7514858959767,None,"['v', 'a', 'n', 'r', 'u']",1,"[0.9648600000073202, 1.1088101550121792, 1.2368549410020933, 1.3968012160039507, 1.4928160540293902]",1389.7514858959767,None,1389.750835552506,1389.851016693021,p09_gabe_08052022,001,2022_Aug_05_1415,test_typingtask_norepeats,2020.2.10,60.009560846333535,
think,think,,,,,,,,,0,105,105,105,,,,,,,,,,,,,,,1395.2510078259802,None,"['t', 'h', 'i', 'n', 'k']",1,"[0.6733197839930654, 0.7533367259893566, 0.9292869209893979, 1.1133236829773523, 1.281281249015592]",1395.2510078259802,None,1395.2510038635082,1395.351061842026,p09_gabe_08052022,001,2022_Aug_05_1415,test_typingtask_norepeats,2020.2.10,60.009560846333535,
champ,champ,,,,,,,,,0,106,106,106,,,,,,,,,,,,,,,1400.7509825830057,None,"['c', 'h', 'a', 'm', 'p']",1,"[0.7733158290502615, 0.9493632970261388, 1.0534143820405006, 1.2853748260531574, 1.5813099350198172]",1400.7509825830057,None,1400.7510711324721,1400.8510280460177,p09_gabe_08052022,001,2022_Aug_05_1415,test_typingtask_norepeats,2020.2.10,60.009560846333535,
theme,theme,,,,,,,,,0,107,107,107,,,,,,,,,,,,,,,1406.2511398109782,None,"['t', 'h', 'e', 'm', 'e']",1,"[0.6251891319989227, 0.6731591809657402, 0.7852172589628026, 0.9772054720087908, 1.017168265010696]",1406.2511398109782,None,1406.2511354705057,1406.3510918509855,p09_gabe_08052022,001,2022_Aug_05_1415,test_typingtask_norepeats,2020.2.10,60.009560846333535,
vodka,vodka,,,,,,,,,0,108,108,108,,,,,,,,,,,,,,,1411.751391275,None,"['v', 'o', 'd', 'k', 'a']",1,"[0.9329845479805954, 1.0529564230237156, 1.1249174749827944, 1.3729034059797414, 1.4849536779802293]",1411.751391275,None,1411.7509877125121,1411.850969600986,p09_gabe_08052022,001,2022_Aug_05_1415,test_typingtask_norepeats,2020.2.10,60.009560846333535,
edthe,edthe,,,,,,,,,0,109,109,109,,,,,,,,,,,,,,,1417.2511394699977,None,"['e', 'f', 't', 'h', 'e']",0,"[0.8012184380204417, 1.1132172620273195, 1.3132620640099049, 1.4011839990271255, 1.4731617820216343]",1417.2511394699977,None,1417.250978522512,1417.3510708569956,p09_gabe_08052022,001,2022_Aug_05_1415,test_typingtask_norepeats,2020.2.10,60.009560846333535,
tithe,tithe,,,,,,,,,0,110,110,110,,,,,,,,,,,,,,,1422.7678723039862,None,"['t', 'i', 't', 'h', 'e']",1,"[0.7164624989964068, 0.7884383620112203, 0.8924519440042786, 0.9724298110231757, 1.044494465983007]",1422.7678723039862,None,1422.7678342364816,1422.8676029229828,p09_gabe_08052022,001,2022_Aug_05_1415,test_typingtask_norepeats,2020.2.10,60.009560846333535,
there,there,,,,,,,,,0,111,111,111,,,,,,,,,,,,,,,1428.2679824930092,None,"['t', 'h', 'e', 'r', 'e']",1,"[0.6883047110168263, 0.7603074599755928, 0.8803257719846442, 1.0723020959994756, 1.2483521180110984]",1428.2679824930092,None,1428.2678501825285,1428.3677496469754,p09_gabe_08052022,001,2022_Aug_05_1415,test_typingtask_norepeats,2020.2.10,60.009560846333535,
vanru,vanru,,,,,,,,,0,112,112,112,,,,,,,,,,,,,,,1433.767961865029,None,"['v', 'a', 'n', 'r', 'u']",1,"[0.7643389229779132, 0.9163404619903304, 1.0763532469864003, 1.3083593889605254, 1.4123369589797221]",1433.767961865029,None,1433.7677280335192,1433.8677646899887,p09_gabe_08052022,001,2022_Aug_05_1415,test_typingtask_norepeats,2020.2.10,60.009560846333535,
belly,belly,,,,,,,,,0,113,113,113,,,,,,,,,,,,,,,1439.269212410989,None,"['b', 'e', 'l', 'l', 'y']",1,"[0.6311706620035693, 0.7191436149878427, 0.9030848539550789, 1.0870859369751997, 1.1671412540017627]",1439.269212410989,None,1439.2678622464737,1439.3676433969813,p09_gabe_08052022,001,2022_Aug_05_1415,test_typingtask_norepeats,2020.2.10,60.009560846333535,
cheer,cheer,,,,,,,,,0,114,114,114,,,,,,,,,,,,,,,1444.7845529659826,None,"['c', 'h', 'e', 'e', 'r']",1,"[1.2038092620205134, 1.2998142160358839, 1.3638671380467713, 1.531817225040868, 1.6997539370204322]",1444.7845529659826,None,1444.7845030494937,1444.8849081630178,p09_gabe_08052022,001,2022_Aug_05_1415,test_typingtask_norepeats,2020.2.10,60.009560846333535,
think,think,,,,,,,,,0,115,115,115,,,,,,,,,,,,,,,1450.2846611399727,None,"['h', 't', 'i', 'n', 'k']",0,"[0.8236379729933105, 1.2637498689582571, 1.4796895170002244, 1.6796707100002095, 1.8157004829845391]",1450.2846611399727,None,1450.2842748215044,1450.3848871980153,p09_gabe_08052022,001,2022_Aug_05_1415,test_typingtask_norepeats,2020.2.10,60.009560846333535,
edthe,edthe,,,,,,,,,0,116,116,116,,,,,,,,,,,,,,,1455.8012189420115,None,"['e', 'd', 't', 'h', 'e']",1,"[0.7870789099833928, 1.003136479004752, 1.3151863149832934, 1.3951486559817567, 1.4751147109782323]",1455.8012189420115,None,1455.8011587484943,1455.901314128976,p09_gabe_08052022,001,2022_Aug_05_1415,test_typingtask_norepeats,2020.2.10,60.009560846333535,
pykka,pykka,,,,,,,,,0,117,117,117,,,,,,,,,,,,,,,1461.3012020149908,None,"['p', 'y', 'k', 'k', 'a']",1,"[0.8151490100426599, 1.0871593580232002, 1.375119872041978, 1.5351411580340937, 1.6550928060314618]",1461.3012020149908,None,1461.3011572144896,1461.4013637900061,p09_gabe_08052022,001,2022_Aug_05_1415,test_typingtask_norepeats,2020.2.10,60.009560846333535,
tithe,tithe,,,,,,,,,0,118,118,118,,,,,,,,,,,,,,,1466.8012284179858,None,"['t', 'i', 't', 'h', 'e']",1,"[0.6670899799792096, 0.7790705710067414, 0.859078434004914, 1.0991176289971918, 1.2111563819926232]",1466.8012284179858,None,1466.8012014314736,1466.901669399027,p09_gabe_08052022,001,2022_Aug_05_1415,test_typingtask_norepeats,2020.2.10,60.009560846333535,
puppy,puppy,,,,,,,,,0,119,119,119,,,,,,,,,,,,,,,1472.301358605997,None,"['p', 'u', 'p', 'p', 'y']",1,"[0.9429510780028068, 1.2069857000024058, 1.5429423890309408, 1.6949601260130294, 1.863008729997091]",1472.301358605997,None,1472.301221749498,1472.4013769480225,p09_gabe_08052022,001,2022_Aug_05_1415,test_typingtask_norepeats,2020.2.10,60.009560846333535,
