string,corrAns,practice_trials.thisRepN,practice_trials.thisTrialN,practice_trials.thisN,practice_trials.thisIndex,trials_1.thisRepN,trials_1.thisTrialN,trials_1.thisN,trials_1.thisIndex,trials_2.thisRepN,trials_2.thisTrialN,trials_2.thisN,trials_2.thisIndex,key_resp_0.keys,key_resp_0.corr,key_resp_0.rt,text_1.started,text_1.stopped,key_resp_1.keys,key_resp_1.corr,key_resp_1.rt,key_resp_1.started,key_resp_1.stopped,sound_1A_1.started,sound_1A_1.stopped,break_time.started,break_time.stopped,text_2.started,text_2.stopped,key_resp_2.keys,key_resp_2.corr,key_resp_2.rt,key_resp_2.started,key_resp_2.stopped,sound_1A_2.started,sound_1A_2.stopped,participant,session,date,expName,psychopyVersion,frameRate,
fresh,fresh,0,0,0,0,,,,,,,,,"['f', 'r', 'e', 's', 'h', 'space']",0,"[1.0912057319656014, 1.2991702910512686, 1.3871723897755146, 1.7232524529099464, 1.907205038703978, 2.8592019178904593]",,,,,,,,,,,,,,,,,,,,,p11_serena_09072022,001,2022_Sep_07_1351,test_typingtask_norepeats,2020.2.10,60.63261226185407,
dream,dream,0,1,1,1,,,,,,,,,"['d', 'r', 'e', 'a', 'm']",1,"[1.1481207381002605, 1.4281417890451849, 1.5161196161061525, 1.7321214629337192, 1.9000744177028537]",,,,,,,,,,,,,,,,,,,,,p11_serena_09072022,001,2022_Sep_07_1351,test_typingtask_norepeats,2020.2.10,60.63261226185407,
slime,slime,0,2,2,2,,,,,,,,,"['s', 'l', 'i', 'm', 'e']",1,"[0.7354273260571063, 0.863455715123564, 1.063455511815846, 1.271386368200183, 1.479490103200078]",,,,,,,,,,,,,,,,,,,,,p11_serena_09072022,001,2022_Sep_07_1351,test_typingtask_norepeats,2020.2.10,60.63261226185407,
puppy,puppy,,,,,0,0,0,0,,,,,,,,1357.9964122693054,None,"['p', 'u', 'p', 'p', 'y', 'space']",0,"[1.0692864330485463, 1.3732649981975555, 1.62122933100909, 1.757246675901115, 2.02134972717613, 2.949204759206623]",1357.9964122693054,None,1357.9871486836114,1358.0870575332083,,,,,,,,,,,,p11_serena_09072022,001,2022_Sep_07_1351,test_typingtask_norepeats,2020.2.10,60.63261226185407,
cheer,cheer,,,,,0,1,1,1,,,,,,,,1363.5042901020497,None,"['c', 'h', 'e', 'e', 'r']",1,"[0.7853414439596236, 0.937355796340853, 1.137332968879491, 1.2892970629036427, 1.537296338006854]",1363.5042901020497,None,1363.5039755693638,1363.6039048922248,,,,,,,,,,,,p11_serena_09072022,001,2022_Sep_07_1351,test_typingtask_norepeats,2020.2.10,60.63261226185407,
edthe,edthe,,,,,0,2,2,2,,,,,,,,1369.0044208113104,None,"['e', 'd', 't', 'h', 'e']",1,"[0.9411917668767273, 1.181229209061712, 1.501273435074836, 1.6451971069909632, 1.8371930909343064]",1369.0044208113104,None,1369.0038821605035,1369.1039205170237,,,,,,,,,,,,p11_serena_09072022,001,2022_Sep_07_1351,test_typingtask_norepeats,2020.2.10,60.63261226185407,
heond,heond,,,,,0,3,3,3,,,,,,,,1374.5043574948795,None,"['h', 'e', 'o', 'n', 'd']",1,"[0.8812959799543023, 1.0732585517689586, 1.2412438890896738, 1.4812326678074896, 1.6493000499904156]",1374.5043574948795,None,1374.5042375592516,1374.6046132151969,,,,,,,,,,,,p11_serena_09072022,001,2022_Sep_07_1351,test_typingtask_norepeats,2020.2.10,60.63261226185407,
about,about,,,,,0,4,4,4,,,,,,,,1380.0062724491581,None,"['a', 'b', 'o', 'u', 't']",1,"[0.7793716401793063, 0.9313642610795796, 1.107329647988081, 1.2674169368110597, 1.4833782487548888]",1380.0062724491581,None,1380.0040856163018,1380.1040121959522,,,,,,,,,,,,p11_serena_09072022,001,2022_Sep_07_1351,test_typingtask_norepeats,2020.2.10,60.63261226185407,
druze,druze,,,,,0,5,5,5,,,,,,,,1385.5216396232136,None,"['d', 'r', 'u', 'z', 'e']",1,"[0.9600286954082549, 1.2799569740891457, 1.6799594820477068, 1.960022509098053, 2.2799616013653576]",1385.5216396232136,None,1385.520780894533,1385.620641687885,,,,,,,,,,,,p11_serena_09072022,001,2022_Sep_07_1351,test_typingtask_norepeats,2020.2.10,60.63261226185407,
buddy,buddy,,,,,0,6,6,6,,,,,,,,1391.0382460709661,None,"['b', 'u', 'd', 'd', 'y']",1,"[0.8993582250550389, 1.099381817970425, 1.5474033649079502, 1.739352690987289, 1.9154197280295193]",1391.0382460709661,None,1391.0374635994435,1391.1371188699268,,,,,,,,,,,,p11_serena_09072022,001,2022_Sep_07_1351,test_typingtask_norepeats,2020.2.10,60.63261226185407,
therm,therm,,,,,0,7,7,7,,,,,,,,1396.537885335274,None,"['t', 'h', 'e', 'r', 'm']",1,"[0.8396999267861247, 0.9757092860527337, 1.167747087776661, 1.2957496317103505, 1.5197943546809256]",1396.537885335274,None,1396.5377354064026,1396.6373418760486,,,,,,,,,,,,p11_serena_09072022,001,2022_Sep_07_1351,test_typingtask_norepeats,2020.2.10,60.63261226185407,
puppy,puppy,,,,,0,8,8,8,,,,,,,,1402.0377505910583,None,"['p', 'u', 'p', 'p', 'y']",1,"[0.7960006729699671, 1.1078506358899176, 1.3718519709073007, 1.499860209878534, 1.779936061706394]",1402.0377505910583,None,1402.0373608731666,1402.1373100960627,,,,,,,,,,,,p11_serena_09072022,001,2022_Sep_07_1351,test_typingtask_norepeats,2020.2.10,60.63261226185407,
haole,haole,,,,,0,9,9,9,,,,,,,,1407.5377295371145,None,"['h', 'a', 'o', 'l', 'e']",1,"[0.7679261961020529, 0.9918798338621855, 1.127976459916681, 1.3998790397308767, 1.5679222038015723]",1407.5377295371145,None,1407.5374127124437,1407.6372784501873,,,,,,,,,,,,p11_serena_09072022,001,2022_Sep_07_1351,test_typingtask_norepeats,2020.2.10,60.63261226185407,
there,there,,,,,0,10,10,10,,,,,,,,1413.0375671312213,None,"['t', 'h', 'e', 'r', 'e']",1,"[0.8280930412001908, 0.9720283253118396, 1.1000367952510715, 1.2200823202729225, 1.3481220360845327]",1413.0375671312213,None,1413.0376116443426,1413.1373234773055,,,,,,,,,,,,p11_serena_09072022,001,2022_Sep_07_1351,test_typingtask_norepeats,2020.2.10,60.63261226185407,
puppy,puppy,,,,,0,11,11,11,,,,,,,,1418.5382536300458,None,"['p', 'u', 'p', 'p', 'y']",1,"[0.8953901883214712, 1.2233436619862914, 1.4713467010296881, 1.615395211149007, 1.9274158300831914]",1418.5382536300458,None,1418.5374868112617,1418.6372603592463,,,,,,,,,,,,p11_serena_09072022,001,2022_Sep_07_1351,test_typingtask_norepeats,2020.2.10,60.63261226185407,
belly,belly,,,,,0,12,12,12,,,,,,,,1424.037623052951,None,"['b', 'e', 'l', 'l', 'y']",1,"[0.6520433076657355, 0.8759845979511738, 1.0839863307774067, 1.2680312050506473, 1.548031693790108]",1424.037623052951,None,1424.0374470102602,1424.1371308802627,,,,,,,,,,,,p11_serena_09072022,001,2022_Sep_07_1351,test_typingtask_norepeats,2020.2.10,60.63261226185407,
lucky,lucky,,,,,0,13,13,13,,,,,,,,1429.5382881378755,None,"['l', 'u', 'c', 'k', 'y']",1,"[0.6073071206919849, 0.9033061130903661, 1.1753537869080901, 1.2793845478445292, 1.5833016550168395]",1429.5382881378755,None,1429.5376015986317,1429.6372426790185,,,,,,,,,,,,p11_serena_09072022,001,2022_Sep_07_1351,test_typingtask_norepeats,2020.2.10,60.63261226185407,
tithe,tithe,,,,,0,14,14,14,,,,,,,,1435.0386975263245,None,"['t', 'i', 't', 'h', 'e']",1,"[1.0028860531747341, 1.1629314259625971, 1.3388868202455342, 1.4748970158398151, 1.6588948518037796]",1435.0386975263245,None,1435.0374898594805,1435.1375772100873,,,,,,,,,,,,p11_serena_09072022,001,2022_Sep_07_1351,test_typingtask_norepeats,2020.2.10,60.63261226185407,
vanru,vanru,,,,,0,15,15,15,,,,,,,,1440.5563851320185,None,"['v', 'a', 'n', 'r', 'u']",1,"[1.0132597610354424, 1.1492119561880827, 1.3012509858235717, 1.4772987710312009, 1.6612769882194698]",1440.5563851320185,None,1440.5544373785146,1440.6538576362655,,,,,,,,,,,,p11_serena_09072022,001,2022_Sep_07_1351,test_typingtask_norepeats,2020.2.10,60.63261226185407,
lucky,lucky,,,,,0,16,16,16,,,,,,,,1446.0711587350816,None,"['l', 'u', 'c', 'k', 'y']",1,"[0.6904433420859277, 1.0345068788155913, 1.250461050774902, 1.394509962759912, 1.7624920411035419]",1446.0711587350816,None,1446.0709081842565,1446.1706801620312,,,,,,,,,,,,p11_serena_09072022,001,2022_Sep_07_1351,test_typingtask_norepeats,2020.2.10,60.63261226185407,
champ,champ,,,,,0,17,17,17,,,,,,,,1451.5712760970928,None,"['c', 'h', 'a', 'm', 'p']",1,"[0.8543441710062325, 0.9824446300044656, 1.1583397258073092, 1.3104366869665682, 1.5663927369751036]",1451.5712760970928,None,1451.5711757895538,1451.6709423363209,,,,,,,,,,,,p11_serena_09072022,001,2022_Sep_07_1351,test_typingtask_norepeats,2020.2.10,60.63261226185407,
vanru,vanru,,,,,0,18,18,18,,,,,,,,1457.070745371282,None,"['v', 'a', 'n', 'r', 'u']",1,"[0.9228892270475626, 1.082907946780324, 1.250856142025441, 1.458878206089139, 1.6189215378835797]",1457.070745371282,None,1457.0718552233652,None,,,,,,,,,,,,p11_serena_09072022,001,2022_Sep_07_1351,test_typingtask_norepeats,2020.2.10,60.63261226185407,
cooed,cooed,,,,,0,19,19,19,,,,,,,,1462.5712156789377,None,"['c', 'o', 'o', 'e', 'd']",1,"[0.8223841292783618, 1.0783856213092804, 1.2864749981090426, 1.486467607319355, 1.638382343109697]",1462.5712156789377,None,1462.5709493063391,1462.6705610509962,,,,,,,,,,,,p11_serena_09072022,001,2022_Sep_07_1351,test_typingtask_norepeats,2020.2.10,60.63261226185407,
faqir,faqir,,,,,0,20,20,20,,,,,,,,1468.073020662181,None,"['f', 'a', 'q', 'i', 'r']",1,"[0.8645790941081941, 1.0245850621722639, 1.4966245740652084, 1.688572100829333, 1.8966227448545396]",1468.073020662181,None,1468.0710532582366,1468.1709015690722,,,,,,,,,,,,p11_serena_09072022,001,2022_Sep_07_1351,test_typingtask_norepeats,2020.2.10,60.63261226185407,
pykka,pykka,,,,,0,21,21,21,,,,,,,,1473.5875642942265,None,"['p', 'y', 'k', 'k', 'a']",1,"[0.8540351702831686, 1.230106275063008, 1.6620657099410892, 1.8220371468923986, 1.9900359390303493]",1473.5875642942265,None,1473.5875937865117,1473.6876633102074,,,,,,,,,,,,p11_serena_09072022,001,2022_Sep_07_1351,test_typingtask_norepeats,2020.2.10,60.63261226185407,
therm,therm,,,,,0,22,22,22,,,,,,,,1479.0875567779876,None,"['t', 'h', 'e', 'r', 'm']",1,"[0.7620482170023024, 0.9060546266846359, 1.0740465698763728, 1.154042697045952, 1.3461388288997114]",1479.0875567779876,None,1479.0877026134172,1479.187332617119,,,,,,,,,,,,p11_serena_09072022,001,2022_Sep_07_1351,test_typingtask_norepeats,2020.2.10,60.63261226185407,
tithe,tithe,,,,,0,23,23,23,,,,,,,,1484.587704049889,None,"['t', 'i', 't', 'h', 'e']",1,"[0.7739141331985593, 0.9258895623497665, 1.085926242172718, 1.1979672340676188, 1.3418925823643804]",1484.587704049889,None,1484.5877106525936,1484.6875029630028,,,,,,,,,,,,p11_serena_09072022,001,2022_Sep_07_1351,test_typingtask_norepeats,2020.2.10,60.63261226185407,
think,think,,,,,0,24,24,24,,,,,,,,1490.0879489090294,None,"['t', 'h', 'i', 'n', 'k']",1,"[0.809668845962733, 0.9456844087690115, 1.0416538179852068, 1.2657034490257502, 1.4817023877985775]",1490.0879489090294,None,1490.0875618551859,1490.1875633182935,,,,,,,,,,,,p11_serena_09072022,001,2022_Sep_07_1351,test_typingtask_norepeats,2020.2.10,60.63261226185407,
zibja,zibja,,,,,0,25,25,25,,,,,,,,1495.590148488991,None,"['z', 'i', 'b', 'j', 'a']",1,"[1.0594497518613935, 1.2435242431238294, 1.523445466067642, 1.715575478039682, 1.883494455832988]",1495.590148488991,None,1495.5876628273168,1495.6874644672498,,,,,,,,,,,,p11_serena_09072022,001,2022_Sep_07_1351,test_typingtask_norepeats,2020.2.10,60.63261226185407,
would,would,,,,,0,26,26,26,,,,,,,,1501.104381035082,None,"['w', 'o', 'u', 'l', 'd']",1,"[0.7853072611615062, 0.9212190378457308, 1.1052193152718246, 1.3452207152731717, 1.5132915610447526]",1501.104381035082,None,1501.1040904224851,1501.2038507619873,,,,,,,,,,,,p11_serena_09072022,001,2022_Sep_07_1351,test_typingtask_norepeats,2020.2.10,60.63261226185407,
vodka,vodka,,,,,0,27,27,27,,,,,,,,1506.6046353583224,None,"['v', 'o', 'd', 'k', 'a']",1,"[0.8209575000219047, 1.2130426648072898, 1.396962072700262, 1.5650548650883138, 1.7329710847698152]",1506.6046353583224,None,1506.6042485983112,1506.7040913291276,,,,,,,,,,,,p11_serena_09072022,001,2022_Sep_07_1351,test_typingtask_norepeats,2020.2.10,60.63261226185407,
therm,therm,,,,,0,28,28,28,,,,,,,,1512.1049232049845,None,"['t', 'h', 'e', 'r', 'm']",1,"[0.6886942381970584, 0.8327407333999872, 1.0006845192983747, 1.0887002442032099, 1.2886751242913306]",1512.1049232049845,None,1512.1044249852189,1512.2047540862113,,,,,,,,,,,,p11_serena_09072022,001,2022_Sep_07_1351,test_typingtask_norepeats,2020.2.10,60.63261226185407,
buddy,buddy,,,,,0,29,29,29,,,,,,,,1517.6051448062062,None,"['b', 'u', 'd', 'd', 'y']",1,"[0.6444538491778076, 0.8364644758403301, 1.0525146331638098, 1.2444536108523607, 1.3804479371756315]",1517.6051448062062,None,1517.6041355455295,1517.7040865449235,,,,,,,,,,,,p11_serena_09072022,001,2022_Sep_07_1351,test_typingtask_norepeats,2020.2.10,60.63261226185407,
vanru,vanru,,,,,0,30,30,30,,,,,,,,1523.1044283751398,None,"['v', 'a', 'n', 'r', 'u']",1,"[0.8331875181756914, 1.0012203389778733, 1.1692660301923752, 1.3291640253737569, 1.505261612124741]",1523.1044283751398,None,1523.1042285674253,1523.2040069079958,,,,,,,,,,,,p11_serena_09072022,001,2022_Sep_07_1351,test_typingtask_norepeats,2020.2.10,60.63261226185407,
theme,theme,,,,,0,31,31,31,,,,,,,,1528.6049155793153,None,"['t', 'h', 'e', 'm', 'e']",1,"[0.7007263549603522, 0.8366604540497065, 1.0046862699091434, 1.188660625834018, 1.316659839823842]",1528.6049155793153,None,1528.6043006191962,1528.7040708032437,,,,,,,,,,,,p11_serena_09072022,001,2022_Sep_07_1351,test_typingtask_norepeats,2020.2.10,60.63261226185407,
tithe,tithe,,,,,0,32,32,32,,,,,,,,1534.1043725139461,None,"['t', 'i', 't', 'h', 'e']",1,"[0.8972379569895566, 0.9932525609619915, 1.1292701573111117, 1.257238354999572, 1.417238631285727]",1534.1043725139461,None,1534.1044871156105,1534.204192541074,,,,,,,,,,,,p11_serena_09072022,001,2022_Sep_07_1351,test_typingtask_norepeats,2020.2.10,60.63261226185407,
belly,belly,,,,,0,33,33,33,,,,,,,,1539.6045249123126,None,"['b', 'e', 'l', 'l', 'y']",1,"[0.6851699529215693, 0.8131488640792668, 1.005106267053634, 1.1890822951681912, 1.5250737871974707]",1539.6045249123126,None,1539.604326637555,1539.7040877672844,,,,,,,,,,,,p11_serena_09072022,001,2022_Sep_07_1351,test_typingtask_norepeats,2020.2.10,60.63261226185407,
kremp,kremp,,,,,0,34,34,34,,,,,,,,1545.1046883789822,None,"['k', 'r', 'e', 'm', 'p']",1,"[1.008896957617253, 1.2009237818419933, 1.3129740846343338, 1.4569298466667533, 1.736890407744795]",1545.1046883789822,None,1545.1042178502307,1545.204179901164,,,,,,,,,,,,p11_serena_09072022,001,2022_Sep_07_1351,test_typingtask_norepeats,2020.2.10,60.63261226185407,
lucky,lucky,,,,,0,35,35,35,,,,,,,,1550.6053389143199,None,"['l', 'u', 'c', 'k', 'y']",1,"[1.0202885046601295, 1.3562580719590187, 1.5802585440687835, 1.708266943693161, 2.1082604117691517]",1550.6053389143199,None,1550.6043807213196,1550.7042194139212,,,,,,,,,,,,p11_serena_09072022,001,2022_Sep_07_1351,test_typingtask_norepeats,2020.2.10,60.63261226185407,
zibja,zibja,,,,,0,36,36,36,,,,,,,,1556.1214106520638,None,"['z', 'i', 'b', 'j', 'a']",1,"[1.5041899383068085, 1.648240585345775, 1.8962697889655828, 2.0964006311260164, 2.2561928713694215]",1556.1214106520638,None,1556.1211489933544,1556.2208591820672,,,,,,,,,,,,p11_serena_09072022,001,2022_Sep_07_1351,test_typingtask_norepeats,2020.2.10,60.63261226185407,
champ,champ,,,,,0,37,37,37,,,,,,,,1561.6217487710528,None,"['c', 'h', 'a', 'm', 'p']",1,"[0.8119286838918924, 0.9398500537499785, 1.1158534260466695, 1.2519052461721003, 1.4678608761169016]",1561.6217487710528,None,1561.6210268042983,1561.720787378028,,,,,,,,,,,,p11_serena_09072022,001,2022_Sep_07_1351,test_typingtask_norepeats,2020.2.10,60.63261226185407,
pykka,pykka,,,,,0,38,38,38,,,,,,,,1567.13786119828,None,"['p', 'y', 'k', 'k', 'a']",1,"[0.9837432838976383, 1.3997403657995164, 1.7998500377871096, 1.9757355656474829, 2.1598123558796942]",1567.13786119828,None,1567.1378909564578,1567.2374609131366,,,,,,,,,,,,p11_serena_09072022,001,2022_Sep_07_1351,test_typingtask_norepeats,2020.2.10,60.63261226185407,
druze,druze,,,,,0,39,39,39,,,,,,,,1572.6377785871737,None,"['s', 'u', 'z', 'e']",0,"[0.8838279978372157, 1.9558223108761013, 3.035881738178432, 3.3078187881037593]",1572.6377785871737,None,1572.6378833633848,1572.7376302969642,,,,,,,,,,,,p11_serena_09072022,001,2022_Sep_07_1351,test_typingtask_norepeats,2020.2.10,60.63261226185407,
cooed,cooed,,,,,0,40,40,40,,,,,,,,1578.1542532932945,None,"['c', 'o', 'o', 'e', 'd']",1,"[0.7273488538339734, 0.9593533999286592, 1.1034095562063158, 1.2393430238589644, 1.415393684990704]",1578.1542532932945,None,1578.154499549512,1578.2542696841992,,,,,,,,,,,,p11_serena_09072022,001,2022_Sep_07_1351,test_typingtask_norepeats,2020.2.10,60.63261226185407,
pykka,pykka,,,,,0,41,41,41,,,,,,,,1583.6545688421465,None,"['p', 'y', 'l', 'k', 'a']",0,"[0.8670331900939345, 1.2990875151008368, 1.6750317411497235, 2.619092355016619, 2.7870876099914312]",1583.6545688421465,None,1583.6544357716107,1583.7542127552442,,,,,,,,,,,,p11_serena_09072022,001,2022_Sep_07_1351,test_typingtask_norepeats,2020.2.10,60.63261226185407,
champ,champ,,,,,0,42,42,42,,,,,,,,1589.170896903146,None,"['c', 'h', 'a', 'm', 'p']",1,"[0.7587043549865484, 0.870699327904731, 1.0227402299642563, 1.1667184079997241, 1.342710661701858]",1589.170896903146,None,1589.1710896022619,1589.2709166491404,,,,,,,,,,,,p11_serena_09072022,001,2022_Sep_07_1351,test_typingtask_norepeats,2020.2.10,60.63261226185407,
vodka,vodka,,,,,0,43,43,43,,,,,,,,1594.6712272772565,None,"['v', 'o', 'd', 'k', 'a']",1,"[1.13033885974437, 1.2903258949518204, 1.5383391929790378, 1.6983768930658698, 1.858326782938093]",1594.6712272772565,None,1594.6710436545313,1594.7709086411633,,,,,,,,,,,,p11_serena_09072022,001,2022_Sep_07_1351,test_typingtask_norepeats,2020.2.10,60.63261226185407,
cheer,cheer,,,,,0,44,44,44,,,,,,,,1600.1710770973004,None,"['c', 'h', 'e', 'e', 'r']",1,"[0.8785388716496527, 1.0545396786183119, 1.2385179679840803, 1.4145413637161255, 1.6785224047489464]",1600.1710770973004,None,1600.1710519302637,1600.2707988242619,,,,,,,,,,,,p11_serena_09072022,001,2022_Sep_07_1351,test_typingtask_norepeats,2020.2.10,60.63261226185407,
think,think,,,,,0,45,45,45,,,,,,,,1605.67116382299,None,"['t', 'h', 'i', 'n', 'k']",1,"[0.8584393579512835, 1.0184957482852042, 1.1304356921464205, 1.3384405733086169, 1.5864950129762292]",1605.67116382299,None,1605.6712126732805,1605.7707885862328,,,,,,,,,,,,p11_serena_09072022,001,2022_Sep_07_1351,test_typingtask_norepeats,2020.2.10,60.63261226185407,
heond,heond,,,,,0,46,46,46,,,,,,,,1611.1711593871005,None,"['h', 'e', 'o', 'n', 'd']",1,"[0.7504432951100171, 0.9744687010534108, 1.1104924981482327, 1.4144391771405935, 1.614486251026392]",1611.1711593871005,None,1611.1712571131998,1611.2709881849587,,,,,,,,,,,,p11_serena_09072022,001,2022_Sep_07_1351,test_typingtask_norepeats,2020.2.10,60.63261226185407,
vodka,vodka,,,,,0,47,47,47,,,,,,,,1616.671099353116,None,"['v', 'o', 'd', 'k', 'a']",1,"[0.9545033290050924, 1.1865574750117958, 1.4025481268763542, 1.6105056959204376, 1.7064894959330559]",1616.671099353116,None,1616.6710371725262,1616.7709211031906,,,,,,,,,,,,p11_serena_09072022,001,2022_Sep_07_1351,test_typingtask_norepeats,2020.2.10,60.63261226185407,
buddy,buddy,,,,,0,48,48,48,,,,,,,,1622.1716907769442,None,"['b', 'u', 'd', 'd', 'y']",1,"[0.7179618389345706, 0.8939964128658175, 1.0859409859403968, 1.2698897831141949, 1.3979463931173086]",1622.1716907769442,None,1622.1710062395782,1622.2714452189393,,,,,,,,,,,,p11_serena_09072022,001,2022_Sep_07_1351,test_typingtask_norepeats,2020.2.10,60.63261226185407,
zibja,zibja,,,,,0,49,49,49,,,,,,,,1627.6714230980724,None,"['z', 'i', 'b', 'j', 'a']",1,"[1.3541674921289086, 1.5862278938293457, 1.8501752219162881, 2.0901711001060903, 2.266178513877094]",1627.6714230980724,None,1627.6712445096114,1627.7710106400773,,,,,,,,,,,,p11_serena_09072022,001,2022_Sep_07_1351,test_typingtask_norepeats,2020.2.10,60.63261226185407,
edthe,edthe,,,,,0,50,50,50,,,,,,,,1633.170984314289,None,"['e', 'd', 't', 'h', 'e']",1,"[0.8466833508573472, 1.0546131320297718, 1.3986649098806083, 1.542623495683074, 1.6946859150193632]",1633.170984314289,None,1633.171179240197,1633.270926174242,,,,,,,,,,,,p11_serena_09072022,001,2022_Sep_07_1351,test_typingtask_norepeats,2020.2.10,60.63261226185407,
belly,belly,,,,,0,51,51,51,,,,,,,,1638.6711804182269,None,"['b', 'e', 'l', 'l', 'y']",1,"[0.87441551592201, 1.0904138456098735, 1.2824625498615205, 1.4504216769710183, 1.7704085777513683]",1638.6711804182269,None,1638.671042750217,1638.7708470840007,,,,,,,,,,,,p11_serena_09072022,001,2022_Sep_07_1351,test_typingtask_norepeats,2020.2.10,60.63261226185407,
think,think,,,,,0,52,52,52,,,,,,,,1644.171418345999,None,"['t', 'h', 'i', 'n', 'k']",1,"[0.7341940272599459, 0.8942552111111581, 1.0061796712689102, 1.2302080602385104, 1.4061818500049412]",1644.171418345999,None,1644.1713105562144,1644.2708619521,,,,,,,,,,,,p11_serena_09072022,001,2022_Sep_07_1351,test_typingtask_norepeats,2020.2.10,60.63261226185407,
puppy,puppy,,,,,0,53,53,53,,,,,,,,1649.6718262569048,None,"['p', 'u', 'p', 'p', 'y']",1,"[0.7218033238314092, 1.0097643421031535, 1.2657906641252339, 1.401857091113925, 1.7057619048282504]",1649.6718262569048,None,1649.6716067782604,1649.7709275172092,,,,,,,,,,,,p11_serena_09072022,001,2022_Sep_07_1351,test_typingtask_norepeats,2020.2.10,60.63261226185407,
theme,theme,,,,,0,54,54,54,,,,,,,,1655.171143644955,None,"['t', 'h', 'e', 'm', 'e']",1,"[0.7424621102400124, 0.8704898650757968, 1.0624597989954054, 1.2704802150838077, 1.382513358257711]",1655.171143644955,None,1655.1712130742148,1655.2709760102443,,,,,,,,,,,,p11_serena_09072022,001,2022_Sep_07_1351,test_typingtask_norepeats,2020.2.10,60.63261226185407,
kremp,kremp,,,,,0,55,55,55,,,,,,,,1660.671349467244,None,"['k', 'r', 'e', 'm', 'p']",1,"[0.9622504110448062, 1.1782506820745766, 1.2823146432638168, 1.3862972161732614, 1.602296118158847]",1660.671349467244,None,1660.6710106875748,1660.7708921730518,,,,,,,,,,,,p11_serena_09072022,001,2022_Sep_07_1351,test_typingtask_norepeats,2020.2.10,60.63261226185407,
there,there,,,,,0,56,56,56,,,,,,,,1666.1710236119106,None,"['t', 'h', 'e', 'r', 'e']",1,"[0.7105807992629707, 0.8545720684342086, 0.9905749200843275, 1.0946395392529666, 1.2065773261711001]",1666.1710236119106,None,1666.1711047641934,1666.2709639631212,,,,,,,,,,,,p11_serena_09072022,001,2022_Sep_07_1351,test_typingtask_norepeats,2020.2.10,60.63261226185407,
about,about,,,,,0,57,57,57,,,,,,,,1671.6714621749707,None,"['a', 'b', 'o', 'u', 't']",1,"[0.6821843669749796, 0.850146247074008, 1.0181953310966492, 1.1702025108970702, 1.3141369870863855]",1671.6714621749707,None,1671.671333668381,1671.7710446449928,,,,,,,,,,,,p11_serena_09072022,001,2022_Sep_07_1351,test_typingtask_norepeats,2020.2.10,60.63261226185407,
therm,therm,,,,,0,58,58,58,,,,,,,,1677.1712312712334,None,"['t', 'h', 'e', 'r', 'm']",1,"[0.758364618755877, 0.8864826438948512, 1.0383676579222083, 1.1344655398279428, 1.33438253775239]",1677.1712312712334,None,1677.1711539375597,1677.2708385409787,,,,,,,,,,,,p11_serena_09072022,001,2022_Sep_07_1351,test_typingtask_norepeats,2020.2.10,60.63261226185407,
heond,heond,,,,,0,59,59,59,,,,,,,,1682.6714606792666,None,"['h', 'e', 'o', 'n', 'd']",1,"[0.7462019887752831, 0.9141778070479631, 1.0501464437693357, 1.2741380920633674, 1.442156224977225]",1682.6714606792666,None,1682.6710810974241,1682.7709780340083,,,,,,,,,,,,p11_serena_09072022,001,2022_Sep_07_1351,test_typingtask_norepeats,2020.2.10,60.63261226185407,
think,think,,,,,0,60,60,60,,,,,,,,1688.1713960622437,None,"['t', 'h', 'i', 'n', 'k']",1,"[0.7022403278388083, 0.83821742516011, 0.9101901259273291, 1.1101925331167877, 1.2702522380277514]",1688.1713960622437,None,1688.1712381472812,1688.2710995972157,,,,,,,,,,,,p11_serena_09072022,001,2022_Sep_07_1351,test_typingtask_norepeats,2020.2.10,60.63261226185407,
about,about,,,,,0,61,61,61,,,,,,,,1693.6721118879505,None,"['a', 'b', 'o', 'u', 't']",1,"[0.7054839981719851, 0.8414987912401557, 0.9935401370748878, 1.1457052421756089, 1.2975431340746582]",1693.6721118879505,None,1693.671266666241,1693.7712477231398,,,,,,,,,,,,p11_serena_09072022,001,2022_Sep_07_1351,test_typingtask_norepeats,2020.2.10,60.63261226185407,
haole,haole,,,,,0,62,62,62,,,,,,,,1699.187754505314,None,"['h', 'a', 'o', 'l', 'e']",1,"[0.6859446689486504, 0.8458545659668744, 0.925857228692621, 1.149905661586672, 1.285895744804293]",1699.187754505314,None,1699.1880667434075,1699.2876577889547,,,,,,,,,,,,p11_serena_09072022,001,2022_Sep_07_1351,test_typingtask_norepeats,2020.2.10,60.63261226185407,
tithe,tithe,,,,,0,63,63,63,,,,,,,,1704.6886757202446,None,"['t', 'i', 't', 'h', 'e']",1,"[0.808888919185847, 0.9129857593216002, 1.0809279382228851, 1.1689386861398816, 1.3289485732093453]",1704.6886757202446,None,1704.6879867865705,1704.7877711448818,,,,,,,,,,,,p11_serena_09072022,001,2022_Sep_07_1351,test_typingtask_norepeats,2020.2.10,60.63261226185407,
champ,champ,,,,,0,64,64,64,,,,,,,,1710.2047757962719,None,"['c', 'h', 'a', 'm', 'p']",1,"[0.7969239330850542, 0.964856160338968, 1.100863469298929, 1.276812027208507, 1.4608667809516191]",1710.2047757962719,None,1710.2047630335205,1710.3044385151006,,,,,,,,,,,,p11_serena_09072022,001,2022_Sep_07_1351,test_typingtask_norepeats,2020.2.10,60.63261226185407,
would,would,,,,,0,65,65,65,,,,,,,,1715.7046959633008,None,"['w', 'o', 'u', 'l', 'd']",1,"[0.7131129559129477, 0.832948419265449, 0.9689395930618048, 1.2329537300392985, 1.3609540942125022]",1715.7046959633008,None,1715.7045402164572,1715.8044503619894,,,,,,,,,,,,p11_serena_09072022,001,2022_Sep_07_1351,test_typingtask_norepeats,2020.2.10,60.63261226185407,
buddy,buddy,,,,,0,66,66,66,,,,,,,,1721.205530503299,None,"['b', 'u', 'd', 'd', 'y']",1,"[0.7160760089755058, 0.8841639719903469, 1.0760812787339091, 1.2360779298469424, 1.4122777017764747]",1721.205530503299,None,1721.2044669022785,1721.3043981632218,,,,,,,,,,,,p11_serena_09072022,001,2022_Sep_07_1351,test_typingtask_norepeats,2020.2.10,60.63261226185407,
think,think,,,,,0,67,67,67,,,,,,,,1726.7212720080279,None,"['t', 'h', 'i', 'n', 'k']",1,"[0.7603300977498293, 0.8723277766257524, 0.9443854037672281, 1.1203594617545605, 1.2723334138281643]",1726.7212720080279,None,1726.7211764153094,1726.8209575111978,,,,,,,,,,,,p11_serena_09072022,001,2022_Sep_07_1351,test_typingtask_norepeats,2020.2.10,60.63261226185407,
therm,therm,,,,,0,68,68,68,,,,,,,,1732.2223839950748,None,"['t', 'h', 'e', 'r', 'm']",1,"[0.7312845843844116, 0.8592086751013994, 0.9711999092251062, 1.05924855126068, 1.2352550621144474]",1732.2223839950748,None,1732.2214338691906,1732.3210576721467,,,,,,,,,,,,p11_serena_09072022,001,2022_Sep_07_1351,test_typingtask_norepeats,2020.2.10,60.63261226185407,
faqir,faqir,,,,,0,69,69,69,,,,,,,,1737.7383970762603,None,"['f', 'a', 'q', 'i', 'r']",1,"[1.0232387729920447, 1.1432504542171955, 1.7112529543228447, 1.8871921789832413, 2.0871997140347958]",1737.7383970762603,None,1737.7378949454055,1737.8376279100776,,,,,,,,,,,,p11_serena_09072022,001,2022_Sep_07_1351,test_typingtask_norepeats,2020.2.10,60.63261226185407,
heond,heond,,,,,0,70,70,70,,,,,,,,1743.237895354163,None,"['h', 'e', 'o', 'n', 'd']",1,"[0.7157486691139638, 0.8517034212127328, 0.9637054782360792, 1.1556842373684049, 1.307688863016665]",1743.237895354163,None,1743.2380195433275,1743.3376767700538,,,,,,,,,,,,p11_serena_09072022,001,2022_Sep_07_1351,test_typingtask_norepeats,2020.2.10,60.63261226185407,
belly,belly,,,,,0,71,71,71,,,,,,,,1748.7382311499678,None,"['b', 'e', 'l', 'l', 'y']",1,"[0.7274519368074834, 0.8953621829859912, 1.103374051861465, 1.2634062836878002, 1.551420671865344]",1748.7382311499678,None,1748.7383132205346,1748.837795207277,,,,,,,,,,,,p11_serena_09072022,001,2022_Sep_07_1351,test_typingtask_norepeats,2020.2.10,60.63261226185407,
cheer,cheer,,,,,0,72,72,72,,,,,,,,1754.238185711205,None,"['c', 'h', 'e', 'e', 'r']",1,"[0.8274943162687123, 0.9634455791674554, 1.0914235119707882, 1.2675114842131734, 1.4994617230258882]",1754.238185711205,None,1754.2380101881922,1754.3377596433274,,,,,,,,,,,,p11_serena_09072022,001,2022_Sep_07_1351,test_typingtask_norepeats,2020.2.10,60.63261226185407,
lucky,lucky,,,,,0,73,73,73,,,,,,,,1759.7385321399197,None,"['l', 'u', 'c', 'k', 'y']",1,"[0.655110090970993, 0.9271133067086339, 1.0791549626737833, 1.21516343485564, 1.4791822698898613]",1759.7385321399197,None,1759.737962047197,1759.8379082409665,,,,,,,,,,,,p11_serena_09072022,001,2022_Sep_07_1351,test_typingtask_norepeats,2020.2.10,60.63261226185407,
kremp,kremp,,,,,0,74,74,74,,,,,,,,1765.2381481691264,None,"['k', 'r', 'e', 'm', 'p']",1,"[0.9394502928480506, 1.1554567757993937, 1.2434673560783267, 1.3554554879665375, 1.5234890258871019]",1765.2381481691264,None,1765.2380079683849,1765.3378839963116,,,,,,,,,,,,p11_serena_09072022,001,2022_Sep_07_1351,test_typingtask_norepeats,2020.2.10,60.63261226185407,
would,would,,,,,0,75,75,75,,,,,,,,1770.7379422020167,None,"['w', 'o', 'u', 'l', 'd']",1,"[0.6476498357951641, 0.7676527318544686, 0.9436993640847504, 1.1756522757932544, 1.3357061510905623]",1770.7379422020167,None,1770.738029567618,1770.8378984192386,,,,,,,,,,,,p11_serena_09072022,001,2022_Sep_07_1351,test_typingtask_norepeats,2020.2.10,60.63261226185407,
vanru,vanru,,,,,0,76,76,76,,,,,,,,1776.2379528582096,None,"['v', 'a', 'n', 'r', 'u']",1,"[0.8277881839312613, 0.9236834752373397, 1.0916513921692967, 1.243668629322201, 1.4036479741334915]",1776.2379528582096,None,1776.2378678802402,1776.3376929652877,,,,,,,,,,,,p11_serena_09072022,001,2022_Sep_07_1351,test_typingtask_norepeats,2020.2.10,60.63261226185407,
druze,druze,,,,,0,77,77,77,,,,,,,,1781.7386578773148,None,"['d', 'r', 'u', 'z', 'e']",1,"[0.8069380149245262, 1.0389362387359142, 1.1429866650141776, 1.3909449819475412, 1.6389354378916323]",1781.7386578773148,None,1781.738042977266,1781.8377084252425,,,,,,,,,,,,p11_serena_09072022,001,2022_Sep_07_1351,test_typingtask_norepeats,2020.2.10,60.63261226185407,
faqir,faqir,,,,,0,78,78,78,,,,,,,,1787.2382422601804,None,"['f', 'a', 'q', 'i', 'r']",1,"[0.8753640940412879, 1.0034258412197232, 1.4673667000606656, 1.6274605700746179, 1.827418589964509]",1787.2382422601804,None,1787.238089819532,1787.337888656184,,,,,,,,,,,,p11_serena_09072022,001,2022_Sep_07_1351,test_typingtask_norepeats,2020.2.10,60.63261226185407,
vodka,vodka,,,,,0,79,79,79,,,,,,,,1792.738213433884,None,"['v', 'o', 'd', 'k', 'a']",1,"[0.8073893687687814, 0.9514383380301297, 1.1833833940327168, 1.359409002121538, 1.471383789088577]",1792.738213433884,None,1792.7381692795084,1792.837848097086,,,,,,,,,,,,p11_serena_09072022,001,2022_Sep_07_1351,test_typingtask_norepeats,2020.2.10,60.63261226185407,
edthe,edthe,,,,,0,80,80,80,,,,,,,,1798.2382303569466,None,"['e', 'd', 't', 'h', 'e']",1,"[0.7473665401339531, 0.9233659780584276, 1.2194262240082026, 1.3314061891287565, 1.4593931450508535]",1798.2382303569466,None,1798.237814994622,1798.337643445935,,,,,,,,,,,,p11_serena_09072022,001,2022_Sep_07_1351,test_typingtask_norepeats,2020.2.10,60.63261226185407,
faqir,faqir,,,,,0,81,81,81,,,,,,,,1803.7380520291626,None,"['f', 'a', 'q', 'i', 'r']",1,"[0.9356008819304407, 1.0797445578500628, 1.4155888576060534, 1.5835486347787082, 1.7755480846390128]",1803.7380520291626,None,1803.7379434114323,1803.8379388591275,,,,,,,,,,,,p11_serena_09072022,001,2022_Sep_07_1351,test_typingtask_norepeats,2020.2.10,60.63261226185407,
zibja,zibja,,,,,0,82,82,82,,,,,,,,1809.2382086790167,None,"['z', 'i', 'b', 'j', 'a']",1,"[1.107392850331962, 1.299446394201368, 1.5314422040246427, 1.7634940780699253, 1.9473919211886823]",1809.2382086790167,None,1809.2381477594377,1809.3378491122276,,,,,,,,,,,,p11_serena_09072022,001,2022_Sep_07_1351,test_typingtask_norepeats,2020.2.10,60.63261226185407,
belly,belly,,,,,0,83,83,83,,,,,,,,1814.7383951582015,None,"['b', 'e', 'l', 'l', 'y']",1,"[0.7112794863060117, 0.8552050553262234, 0.999256688170135, 1.159212897066027, 1.45521156815812]",1814.7383951582015,None,1814.7383036386223,1814.8378408020362,,,,,,,,,,,,p11_serena_09072022,001,2022_Sep_07_1351,test_typingtask_norepeats,2020.2.10,60.63261226185407,
cheer,cheer,,,,,0,84,84,84,,,,,,,,1820.2381425099447,None,"['c', 'h', 'e', 'e', 'r']",1,"[0.6834584982134402, 0.8594703362323344, 0.9954595798626542, 1.1795338750816882, 1.4034727648831904]",1820.2381425099447,None,1820.2381120543928,1820.337723087985,,,,,,,,,,,,p11_serena_09072022,001,2022_Sep_07_1351,test_typingtask_norepeats,2020.2.10,60.63261226185407,
there,there,,,,,0,85,85,85,,,,,,,,1825.7383365472779,None,"['t', 'h', 'e', 'r', 'e']",1,"[0.7193576218560338, 0.871270835865289, 0.967320691794157, 1.0712628248147666, 1.1832841830328107]",1825.7383365472779,None,1825.7380931462162,1825.8379046469927,,,,,,,,,,,,p11_serena_09072022,001,2022_Sep_07_1351,test_typingtask_norepeats,2020.2.10,60.63261226185407,
pykka,pykka,,,,,0,86,86,86,,,,,,,,1831.238262028899,None,"['p', 'y', 'k', 'k', 'a']",1,"[1.0753492852672935, 1.619446625933051, 1.8834380120970309, 2.051425416022539, 2.2193840979598463]",1831.238262028899,None,1831.238158886414,1831.338677897118,,,,,,,,,,,,p11_serena_09072022,001,2022_Sep_07_1351,test_typingtask_norepeats,2020.2.10,60.63261226185407,
haole,haole,,,,,0,87,87,87,,,,,,,,1836.738997665234,None,"['h', 'a', 'o', 'l', 'e']",1,"[0.6626594266854227, 0.8065990889444947, 0.9346391428261995, 1.1666157990694046, 1.2946332218125463]",1836.738997665234,None,1836.738348810561,1836.8380783540197,,,,,,,,,,,,p11_serena_09072022,001,2022_Sep_07_1351,test_typingtask_norepeats,2020.2.10,60.63261226185407,
edthe,edthe,,,,,0,88,88,88,,,,,,,,1842.2383862221614,None,"['e', 'd', 't', 'h', 'e']",1,"[0.6832197597250342, 0.8992668311111629, 1.1792690670117736, 1.3152539301663637, 1.4272247008047998]",1842.2383862221614,None,1842.2381690294483,1842.3378602820449,,,,,,,,,,,,p11_serena_09072022,001,2022_Sep_07_1351,test_typingtask_norepeats,2020.2.10,60.63261226185407,
cooed,cooed,,,,,0,89,89,89,,,,,,,,1847.7386185629293,None,"['c', 'o', 'o', 'e', 'd']",1,"[0.7270494089461863, 0.9430275447666645, 1.14299554284662, 1.3350457269698381, 1.5350682251155376]",1847.7386185629293,None,1847.7383604502306,1847.8379776999354,,,,,,,,,,,,p11_serena_09072022,001,2022_Sep_07_1351,test_typingtask_norepeats,2020.2.10,60.63261226185407,
theme,theme,,,,,0,90,90,90,,,,,,,,1853.238964583259,None,"['t', 'h', 'e', 'm', 'e']",1,"[0.8026843629777431, 0.9386562639847398, 1.0906539699062705, 1.3066625948995352, 1.434704277664423]",1853.238964583259,None,1853.238144785259,1853.337872931268,,,,,,,,,,,,p11_serena_09072022,001,2022_Sep_07_1351,test_typingtask_norepeats,2020.2.10,60.63261226185407,
druze,druze,,,,,0,91,91,91,,,,,,,,1858.7397475373,None,"['d', 'r', 'u', 'z', 'e']",1,"[0.8938449211418629, 1.1578533123247325, 1.3578608953393996, 1.5738549400120974, 1.8938527670688927]",1858.7397475373,None,1858.7384073204362,1858.8379034521058,,,,,,,,,,,,p11_serena_09072022,001,2022_Sep_07_1351,test_typingtask_norepeats,2020.2.10,60.63261226185407,
faqir,faqir,,,,,0,92,92,92,,,,,,,,1864.2564184619114,None,"['f', 'a', 'q', 'i', 'r']",1,"[0.8651723358780146, 0.9852210320532322, 1.417255968786776, 1.617227713111788, 1.8012195359915495]",1864.2564184619114,None,1864.2549769613893,1864.3546004691161,,,,,,,,,,,,p11_serena_09072022,001,2022_Sep_07_1351,test_typingtask_norepeats,2020.2.10,60.63261226185407,
theme,theme,,,,,0,93,93,93,,,,,,,,1869.7550517171621,None,"['t', 'h', 'e', 'm', 'e']",1,"[0.758541377261281, 0.8785438202321529, 1.0385443372651935, 1.2225374849513173, 1.3905412638559937]",1869.7550517171621,None,1869.7549095024356,1869.8544536801055,,,,,,,,,,,,p11_serena_09072022,001,2022_Sep_07_1351,test_typingtask_norepeats,2020.2.10,60.63261226185407,
cheer,cheer,,,,,0,94,94,94,,,,,,,,1875.2552867359482,None,"['c', 'h', 'e', 'e', 'r']",1,"[0.7223119968548417, 0.8984423009678721, 1.0583274350501597, 1.2103784726932645, 1.4263171679340303]",1875.2552867359482,None,1875.2549153315836,1875.3546400861815,,,,,,,,,,,,p11_serena_09072022,001,2022_Sep_07_1351,test_typingtask_norepeats,2020.2.10,60.63261226185407,
lucky,lucky,,,,,0,95,95,95,,,,,,,,1880.7550486922264,None,"['l', 'u', 'c', 'k', 'y']",1,"[0.6785483472049236, 0.9505564658902586, 1.134609348140657, 1.2946124621666968, 1.5905527877621353]",1880.7550486922264,None,1880.754947908316,1880.854780991096,,,,,,,,,,,,p11_serena_09072022,001,2022_Sep_07_1351,test_typingtask_norepeats,2020.2.10,60.63261226185407,
cooed,cooed,,,,,0,96,96,96,,,,,,,,1886.255234458018,None,"['c', 'o', 'o', 'e', 'd']",1,"[0.8184152049943805, 1.2024187939241529, 1.3543623317964375, 1.5303566297516227, 1.7703634197823703]",1886.255234458018,None,1886.2547729994171,1886.3547671609558,,,,,,,,,,,,p11_serena_09072022,001,2022_Sep_07_1351,test_typingtask_norepeats,2020.2.10,60.63261226185407,
about,about,,,,,0,97,97,97,,,,,,,,1891.7552670822479,None,"['a', 'b', 'o', 'u', 't']",1,"[0.7023921590298414, 0.8623993759974837, 1.0223357789218426, 1.1823911922983825, 1.3503398690372705]",1891.7552670822479,None,1891.7548216596247,1891.8546642041765,,,,,,,,,,,,p11_serena_09072022,001,2022_Sep_07_1351,test_typingtask_norepeats,2020.2.10,60.63261226185407,
there,there,,,,,0,98,98,98,,,,,,,,1897.2553724600002,None,"['t', 'h', 'e', 'r', 'e']",1,"[0.7542105531319976, 0.8902116771787405, 1.026223863940686, 1.1302079977467656, 1.2662318130023777]",1897.2553724600002,None,1897.2548532081769,1897.3547355523333,,,,,,,,,,,,p11_serena_09072022,001,2022_Sep_07_1351,test_typingtask_norepeats,2020.2.10,60.63261226185407,
kremp,kremp,,,,,0,99,99,99,,,,,,,,1902.754972829949,None,"['k', 'r', 'e', 'm', 'p']",1,"[0.8947128998115659, 1.1026628096587956, 1.190600118599832, 1.3026413107290864, 1.4706007107160985]",1902.754972829949,None,1902.7547881352716,1902.854570990894,,,,,,,,,,,,p11_serena_09072022,001,2022_Sep_07_1351,test_typingtask_norepeats,2020.2.10,60.63261226185407,
pykka,pykka,,,,,0,100,100,100,,,,,,,,1908.2549221129157,None,"['p', 'y', 'k', 'k', 'a']",1,"[0.83474210370332, 1.3546882858499885, 1.8266860316507518, 1.9627496050670743, 2.2426739619113505]",1908.2549221129157,None,1908.2547989944928,1908.3545391289517,,,,,,,,,,,,p11_serena_09072022,001,2022_Sep_07_1351,test_typingtask_norepeats,2020.2.10,60.63261226185407,
would,would,,,,,0,101,101,101,,,,,,,,1913.7550427969545,None,"['w', 'o', 'u', 'l', 'd']",1,"[0.6385548152029514, 0.766573220025748, 0.9425584822893143, 1.1745566832832992, 1.3585761091671884]",1913.7550427969545,None,1913.7549213302323,1913.8545618383214,,,,,,,,,,,,p11_serena_09072022,001,2022_Sep_07_1351,test_typingtask_norepeats,2020.2.10,60.63261226185407,
theme,theme,,,,,0,102,102,102,,,,,,,,1919.255120669026,None,"['t', 'h', 'e', 'm', 'e']",1,"[0.7385098990052938, 0.858493029139936, 1.010532835032791, 1.1945866239257157, 1.3304773992858827]",1919.255120669026,None,1919.2548633283936,1919.3546829349361,,,,,,,,,,,,p11_serena_09072022,001,2022_Sep_07_1351,test_typingtask_norepeats,2020.2.10,60.63261226185407,
cooed,cooed,,,,,0,103,103,103,,,,,,,,1924.7551459572278,None,"['c', 'o', 'o', 'e', 'd']",1,"[0.7744547436013818, 0.9985270136967301, 1.1504576937295496, 1.31051783869043, 1.4705186686478555]",1924.7551459572278,None,1924.75492478963,1924.8548512458801,,,,,,,,,,,,p11_serena_09072022,001,2022_Sep_07_1351,test_typingtask_norepeats,2020.2.10,60.63261226185407,
haole,haole,,,,,0,104,104,104,,,,,,,,1930.2562869531102,None,"['h', 'a', 'o', 'l', 'e']",1,"[0.7372908140532672, 0.8893082751892507, 1.001383536029607, 1.257303416263312, 1.3853488322347403]",1930.2562869531102,None,1930.2548746523448,1930.3546412819996,,,,,,,,,,,,p11_serena_09072022,001,2022_Sep_07_1351,test_typingtask_norepeats,2020.2.10,60.63261226185407,
edthe,edthe,,,,,0,105,105,105,,,,,,,,1935.7557806479745,None,"['e', 'd', 't', 'h', 'e']",1,"[0.7098640771582723, 0.8778099743649364, 1.1578174042515457, 1.2858693483285606, 1.405813974328339]",1935.7557806479745,None,1935.7555389493705,1935.854620126076,,,,,,,,,,,,p11_serena_09072022,001,2022_Sep_07_1351,test_typingtask_norepeats,2020.2.10,60.63261226185407,
would,would,,,,,0,106,106,106,,,,,,,,1941.2550917980261,None,"['w', 'o', 'u', 'l', 'd']",1,"[0.7065129713155329, 0.8265392822213471, 1.0025898572057486, 1.266540464013815, 1.4265386811457574]",1941.2550917980261,None,1941.255223945342,1941.3549732491374,,,,,,,,,,,,p11_serena_09072022,001,2022_Sep_07_1351,test_typingtask_norepeats,2020.2.10,60.63261226185407,
druze,druze,,,,,0,107,107,107,,,,,,,,1946.7559982822277,None,"['d', 'r', 'u', 'z', 'e']",1,"[0.9016980319283903, 1.1496080430224538, 1.2616697731427848, 1.4857003982178867, 1.7416063891723752]",1946.7559982822277,None,1946.7553110063077,1946.8546632099897,,,,,,,,,,,,p11_serena_09072022,001,2022_Sep_07_1351,test_typingtask_norepeats,2020.2.10,60.63261226185407,
vanru,vanru,,,,,0,108,108,108,,,,,,,,1952.2714608102106,None,"['v', 'a', 'n', 'r', 'u']",1,"[0.7061307555995882, 0.8261539908125997, 0.9782472257502377, 1.0901335338130593, 1.2261361805722117]",1952.2714608102106,None,1952.271573954355,1952.3715544971637,,,,,,,,,,,,p11_serena_09072022,001,2022_Sep_07_1351,test_typingtask_norepeats,2020.2.10,60.63261226185407,
about,about,,,,,0,109,109,109,,,,,,,,1957.7716101212427,None,"['a', 'b', 'o', 'u', 't']",1,"[0.6939984988421202, 0.838089584838599, 0.9660468129441142, 1.1019951128400862, 1.2620305637829006]",1957.7716101212427,None,1957.7715228512884,1957.871316616889,,,,,,,,,,,,p11_serena_09072022,001,2022_Sep_07_1351,test_typingtask_norepeats,2020.2.10,60.63261226185407,
there,there,,,,,0,110,110,110,,,,,,,,1963.2718825372867,None,"['t', 'h', 'e', 'r', 'e']",1,"[0.841701865196228, 0.9857542742975056, 1.113700716290623, 1.1937360712327063, 1.3056863131932914]",1963.2718825372867,None,1963.271649594512,1963.3714517261833,,,,,,,,,,,,p11_serena_09072022,001,2022_Sep_07_1351,test_typingtask_norepeats,2020.2.10,60.63261226185407,
tithe,tithe,,,,,0,111,111,111,,,,,,,,1968.7721873801202,None,"['t', 'i', 't', 'h', 'e']",1,"[0.7654293552041054, 0.8694641720503569, 0.9974222132004797, 1.101426845882088, 1.2294626510702074]",1968.7721873801202,None,1968.77164361123,1968.8714942620136,,,,,,,,,,,,p11_serena_09072022,001,2022_Sep_07_1351,test_typingtask_norepeats,2020.2.10,60.63261226185407,
heond,heond,,,,,0,112,112,112,,,,,,,,1974.2716275788844,None,"['h', 'e', 'o', 'n', 'd']",1,"[0.7139974543824792, 0.8499808390624821, 0.9379730550572276, 1.1459781201556325, 1.322007437236607]",1974.2716275788844,None,1974.2715318562464,1974.3714135461487,,,,,,,,,,,,p11_serena_09072022,001,2022_Sep_07_1351,test_typingtask_norepeats,2020.2.10,60.63261226185407,
champ,champ,,,,,0,113,113,113,,,,,,,,1979.7717378330417,None,"['c', 'h', 'a', 'm', 'p']",1,"[0.7179357162676752, 0.845875449012965, 1.005864738021046, 1.1418669600971043, 1.3178828940726817]",1979.7717378330417,None,1979.7713731192985,1979.8712499802932,,,,,,,,,,,,p11_serena_09072022,001,2022_Sep_07_1351,test_typingtask_norepeats,2020.2.10,60.63261226185407,
haole,haole,,,,,0,114,114,114,,,,,,,,1985.2716565909795,None,"['h', 'a', 'o', 'l', 'e']",1,"[0.8419408248737454, 0.9860003967769444, 1.0980072589591146, 1.353940543718636, 1.465984723996371]",1985.2716565909795,None,1985.2715220703744,1985.3715580981225,,,,,,,,,,,,p11_serena_09072022,001,2022_Sep_07_1351,test_typingtask_norepeats,2020.2.10,60.63261226185407,
puppy,puppy,,,,,0,115,115,115,,,,,,,,1990.7713764682412,None,"['p', 'u', 'p', 'p', 'y']",1,"[0.8622506130486727, 1.158220169134438, 1.4222219022922218, 1.5663343300111592, 1.838224156294018]",1990.7713764682412,None,1990.7715730435216,1990.871338591911,,,,,,,,,,,,p11_serena_09072022,001,2022_Sep_07_1351,test_typingtask_norepeats,2020.2.10,60.63261226185407,
kremp,kremp,,,,,0,116,116,116,,,,,,,,1996.2714704270475,None,"['k', 'r', 'e', 'm', 'p']",1,"[0.9701882558874786, 1.4421316380612552, 1.5461986497975886, 1.7061395579949021, 1.8821851089596748]",1996.2714704270475,None,1996.2717520725914,1996.3715260089375,,,,,,,,,,,,p11_serena_09072022,001,2022_Sep_07_1351,test_typingtask_norepeats,2020.2.10,60.63261226185407,
vodka,vodka,,,,,0,117,117,117,,,,,,,,2001.7717165471986,None,"['v', 'o', 'd', 'k', 'a']",1,"[0.9098982769064605, 1.1258920896798372, 1.3418800737708807, 1.5019307699985802, 1.6299281837418675]",2001.7717165471986,None,2001.7716925065965,2001.871359365061,,,,,,,,,,,,p11_serena_09072022,001,2022_Sep_07_1351,test_typingtask_norepeats,2020.2.10,60.63261226185407,
buddy,buddy,,,,,0,118,118,118,,,,,,,,2007.271969303023,None,"['b', 'u', 'd', 'd', 'y']",1,"[0.7376289111562073, 0.9536371841095388, 1.121660786215216, 1.3056317130103707, 1.425638038199395]",2007.271969303023,None,2007.271655412484,2007.371455248911,,,,,,,,,,,,p11_serena_09072022,001,2022_Sep_07_1351,test_typingtask_norepeats,2020.2.10,60.63261226185407,
zibja,zibja,,,,,0,119,119,119,,,,,,,,2012.7718458762392,None,"['z', 'i', 'b', 'j', 'a']",1,"[0.9737711143679917, 1.1977501031942666, 1.6457577352412045, 1.8617840614169836, 2.005752862431109]",2012.7718458762392,None,2012.7716860874557,2012.8716404330917,,,,,,,,,,,,p11_serena_09072022,001,2022_Sep_07_1351,test_typingtask_norepeats,2020.2.10,60.63261226185407,
haole,haole,,,,,,,,,0,0,0,0,,,,,,,,,,,,,2018.2720369421877,None,2026.7481823069975,None,"['h', 'a', 'o', 'l', 'e']",1,"[0.8854339872486889, 1.0375380422919989, 1.141440023202449, 1.3733983961865306, 1.5174590479582548]",2026.7481823069975,None,2026.7385647456163,2026.8383274730295,p11_serena_09072022,001,2022_Sep_07_1351,test_typingtask_norepeats,2020.2.10,60.63261226185407,
there,there,,,,,,,,,0,1,1,1,,,,,,,,,,,,,,,2032.2548716003075,None,"['t', 'h', 'e', 'r', 'e']",1,"[0.7707289210520685, 0.8667857716791332, 1.3707525157369673, 1.4667304456233978, 1.5787315526977181]",2032.2548716003075,None,2032.2550846902654,2032.3548290962353,p11_serena_09072022,001,2022_Sep_07_1351,test_typingtask_norepeats,2020.2.10,60.63261226185407,
faqir,faqir,,,,,,,,,0,2,2,2,,,,,,,,,,,,,,,2037.755158029031,None,"['f', 'a', 'q', 'i', 'r']",1,"[0.8224458280019462, 0.9344976469874382, 1.1984986802563071, 1.3584483582526445, 1.5184962032362819]",2037.755158029031,None,2037.7552346532234,2037.8549174610525,p11_serena_09072022,001,2022_Sep_07_1351,test_typingtask_norepeats,2020.2.10,60.63261226185407,
cheer,cheer,,,,,,,,,0,3,3,3,,,,,,,,,,,,,,,2043.2551768082194,None,"['c', 'h', 'e', 'e', 'r']",1,"[0.7944805938750505, 1.0184782408177853, 1.1544232028536499, 1.3304224670864642, 1.5624678749591112]",2043.2551768082194,None,2043.2548170924188,2043.3547820230015,p11_serena_09072022,001,2022_Sep_07_1351,test_typingtask_norepeats,2020.2.10,60.63261226185407,
think,think,,,,,,,,,0,4,4,4,,,,,,,,,,,,,,,2048.75495118415,None,"['t', 'h', 'i', 'n', 'k']",1,"[0.7027019178494811, 0.8707443070597947, 0.9426571847870946, 1.1586495898663998, 1.2947364230640233]",2048.75495118415,None,2048.754942072183,2048.8549233782105,p11_serena_09072022,001,2022_Sep_07_1351,test_typingtask_norepeats,2020.2.10,60.63261226185407,
heond,heond,,,,,,,,,0,5,5,5,,,,,,,,,,,,,,,2054.2552001331933,None,"['h', 'e', 'o', 'n', 'd']",1,"[0.8504223609343171, 0.9944835547357798, 1.1304109268821776, 1.3703954298980534, 1.5063981809653342]",2054.2552001331933,None,2054.2551326352173,2054.354909147136,p11_serena_09072022,001,2022_Sep_07_1351,test_typingtask_norepeats,2020.2.10,60.63261226185407,
vanru,vanru,,,,,,,,,0,6,6,6,,,,,,,,,,,,,,,2059.756588750053,None,"['v', 'a', 'n', 'r', 'u']",1,"[0.8210061611607671, 0.9810966062359512, 1.1570102032274008, 1.3170675332657993, 1.469020392280072]",2059.756588750053,None,2059.7558406704106,2059.8549207332544,p11_serena_09072022,001,2022_Sep_07_1351,test_typingtask_norepeats,2020.2.10,60.63261226185407,
puppy,puppy,,,,,,,,,0,7,7,7,,,,,,,,,,,,,,,2065.27227273304,None,"['p', 'u', 'p', 'p', 'y']",1,"[0.7453320249915123, 1.0333338379859924, 1.2973590423353016, 1.4014748400077224, 1.7373457201756537]",2065.27227273304,None,2065.272261849232,2065.3717487561516,p11_serena_09072022,001,2022_Sep_07_1351,test_typingtask_norepeats,2020.2.10,60.63261226185407,
there,there,,,,,,,,,0,8,8,8,,,,,,,,,,,,,,,2070.7726028473116,None,"['t', 'h', 'e', 'r', 'e']",1,"[0.7489985399879515, 0.8930942248553038, 1.0370345930568874, 1.1249790117144585, 1.2369876969605684]",2070.7726028473116,None,2070.7715733475984,2070.8714891811833,p11_serena_09072022,001,2022_Sep_07_1351,test_typingtask_norepeats,2020.2.10,60.63261226185407,
druze,druze,,,,,,,,,0,9,9,9,,,,,,,,,,,,,,,2076.2723584072664,None,"['d', 'r', 'u', 'z', 'e']",1,"[0.8732451191172004, 1.1692951531149447, 1.3452926608733833, 1.6252351710572839, 1.9612825731746852]",2076.2723584072664,None,2076.2717538514175,2076.3714552093297,p11_serena_09072022,001,2022_Sep_07_1351,test_typingtask_norepeats,2020.2.10,60.63261226185407,
buddy,buddy,,,,,,,,,0,10,10,10,,,,,,,,,,,,,,,2081.7729484410957,None,"['b', 'u', 'd', 'd', 'y']",1,"[0.7326644803397357, 0.9886764022521675, 1.188677302096039, 1.3646962163038552, 1.5006680339574814]",2081.7729484410957,None,2081.772121063527,2081.8716113809496,p11_serena_09072022,001,2022_Sep_07_1351,test_typingtask_norepeats,2020.2.10,60.63261226185407,
haole,haole,,,,,,,,,0,11,11,11,,,,,,,,,,,,,,,2087.2722080070525,None,"['h', 'a', 'o', 'l', 'e']",1,"[0.7213868657127023, 0.8733980567194521, 1.0734114786610007, 1.3135018199682236, 1.4894099929369986]",2087.2722080070525,None,2087.272174384538,2087.3719791159965,p11_serena_09072022,001,2022_Sep_07_1351,test_typingtask_norepeats,2020.2.10,60.63261226185407,
heond,heond,,,,,,,,,0,12,12,12,,,,,,,,,,,,,,,2092.7719167373143,None,"['h', 'e', 'o', 'n', 'd']",1,"[0.7737147519364953, 0.9416830358095467, 1.0936846528202295, 1.5096890861168504, 1.6777462330646813]",2092.7719167373143,None,2092.771739969589,2092.8714579222724,p11_serena_09072022,001,2022_Sep_07_1351,test_typingtask_norepeats,2020.2.10,60.63261226185407,
lucky,lucky,,,,,,,,,0,13,13,13,,,,,,,,,,,,,,,2098.272515039891,None,"['l', 'u', 'c', 'k', 'y']",1,"[0.7291562240570784, 1.0091053391806781, 1.2410866389982402, 1.3531013042666018, 1.6491108504123986]",2098.272515039891,None,2098.2716228445993,2098.371681733057,p11_serena_09072022,001,2022_Sep_07_1351,test_typingtask_norepeats,2020.2.10,60.63261226185407,
faqir,faqir,,,,,,,,,0,14,14,14,,,,,,,,,,,,,,,2103.7718053800054,None,"['f', 'a', 'q', 'i', 'r']",1,"[0.9098318959586322, 1.0298420609906316, 1.3257973538711667, 1.5897947796620429, 1.8298800899647176]",2103.7718053800054,None,2103.7719055452385,2103.8715771292336,p11_serena_09072022,001,2022_Sep_07_1351,test_typingtask_norepeats,2020.2.10,60.63261226185407,
pykka,pykka,,,,,,,,,0,15,15,15,,,,,,,,,,,,,,,2109.2718819300644,None,"['p', 'y', 'k', 'a']",0,"[0.809738858602941, 1.1297718337737024, 1.7377136289142072, 2.057710618712008]",2109.2718819300644,None,2109.271770175174,2109.37169466028,p11_serena_09072022,001,2022_Sep_07_1351,test_typingtask_norepeats,2020.2.10,60.63261226185407,
vodka,vodka,,,,,,,,,0,16,16,16,,,,,,,,,,,,,,,2114.7888386189006,None,"['v', 'o', 'd', 'k', 'a']",1,"[0.8608295889571309, 1.0208055158145726, 1.204810162074864, 1.4047657968476415, 1.5327660031616688]",2114.7888386189006,None,2114.7888991405257,2114.8884768909775,p11_serena_09072022,001,2022_Sep_07_1351,test_typingtask_norepeats,2020.2.10,60.63261226185407,
pykka,pykka,,,,,,,,,0,17,17,17,,,,,,,,,,,,,,,2120.3050337033346,None,"['p', 'y', 'k', 'k', 'a']",1,"[0.9846773226745427, 1.3125772615894675, 1.7125674500130117, 1.888568879570812, 2.0645665558986366]",2120.3050337033346,None,2120.3051941484214,2120.404913058039,p11_serena_09072022,001,2022_Sep_07_1351,test_typingtask_norepeats,2020.2.10,60.63261226185407,
edthe,edthe,,,,,,,,,0,18,18,18,,,,,,,,,,,,,,,2125.805211636238,None,"['e', 'd', 't', 'h', 'e']",1,"[0.8364444547332823, 1.0604437650181353, 1.3563900189474225, 1.4844058901071548, 1.6283931736834347]",2125.805211636238,None,2125.8051722353325,2125.9049815800972,p11_serena_09072022,001,2022_Sep_07_1351,test_typingtask_norepeats,2020.2.10,60.63261226185407,
theme,theme,,,,,,,,,0,19,19,19,,,,,,,,,,,,,,,2131.305495216977,None,"['t', 'h', 'e', 'm', 'e']",1,"[0.7522131642326713, 0.8721057502552867, 1.040125235915184, 1.1921257241629064, 1.3201988651417196]",2131.305495216977,None,2131.3052531584167,2131.4049794580787,p11_serena_09072022,001,2022_Sep_07_1351,test_typingtask_norepeats,2020.2.10,60.63261226185407,
champ,champ,,,,,,,,,0,20,20,20,,,,,,,,,,,,,,,2136.805732446257,None,"['c', 'h', 'a', 'm', 'p']",1,"[0.7398561830632389, 0.89186185086146, 1.0119098122231662, 1.1718692388385534, 1.379858253058046]",2136.805732446257,None,2136.8056717446075,2136.9055134761147,p11_serena_09072022,001,2022_Sep_07_1351,test_typingtask_norepeats,2020.2.10,60.63261226185407,
theme,theme,,,,,,,,,0,21,21,21,,,,,,,,,,,,,,,2142.305415404029,None,"['t', 'h', 'e', 'm', 'e']",1,"[0.7602310897782445, 0.8562098839320242, 1.016202021855861, 1.152714863885194, 1.2561803637072444]",2142.305415404029,None,2142.305140903313,2142.4049994810484,p11_serena_09072022,001,2022_Sep_07_1351,test_typingtask_norepeats,2020.2.10,60.63261226185407,
tithe,tithe,,,,,,,,,0,22,22,22,,,,,,,,,,,,,,,2147.805362497922,None,"['t', 'i', 't', 'h', 'e']",1,"[0.7242693989537656, 0.8282544729299843, 0.9642778616398573, 1.0842448086477816, 1.2202956876717508]",2147.805362497922,None,2147.805228961259,2147.904965064954,p11_serena_09072022,001,2022_Sep_07_1351,test_typingtask_norepeats,2020.2.10,60.63261226185407,
cheer,cheer,,,,,,,,,0,23,23,23,,,,,,,,,,,,,,,2153.3052499769256,None,"['c', 'h', 'e', 'e', 'r']",1,"[0.8324361620470881, 0.9843714963644743, 1.15239969920367, 1.2964317733421922, 1.5603697150945663]",2153.3052499769256,None,2153.3051908594557,2153.404999001883,p11_serena_09072022,001,2022_Sep_07_1351,test_typingtask_norepeats,2020.2.10,60.63261226185407,
belly,belly,,,,,,,,,0,24,24,24,,,,,,,,,,,,,,,2158.805866461247,None,"['b', 'e', 'l', 'l', 'y']",1,"[0.7397681167349219, 0.8597363270819187, 0.9957876997068524, 1.1797441327944398, 1.427735841833055]",2158.805866461247,None,2158.80524583729,2158.9048797721043,p11_serena_09072022,001,2022_Sep_07_1351,test_typingtask_norepeats,2020.2.10,60.63261226185407,
edthe,edthe,,,,,,,,,0,25,25,25,,,,,,,,,,,,,,,2164.321711892262,None,"['e', 'd', 't', 'h', 'e']",1,"[0.7519700541161001, 0.9519220851361752, 1.2159391310997307, 1.3598971888422966, 1.4879055400379002]",2164.321711892262,None,2164.3218099894934,2164.4215611410327,p11_serena_09072022,001,2022_Sep_07_1351,test_typingtask_norepeats,2020.2.10,60.63261226185407,
cheer,cheer,,,,,,,,,0,26,26,26,,,,,,,,,,,,,,,2169.822481578216,None,"['c', 'h', 'e', 'e', 'r']",1,"[0.7631324138492346, 0.9631163980811834, 1.0831281999126077, 1.2671726420521736, 1.475132660008967]",2169.822481578216,None,2169.8218733743765,2169.9216957762837,p11_serena_09072022,001,2022_Sep_07_1351,test_typingtask_norepeats,2020.2.10,60.63261226185407,
lucky,lucky,,,,,,,,,0,27,27,27,,,,,,,,,,,,,,,2175.3226630710997,None,"['l', 'u', 'c', 'k', 'y']",1,"[0.622941663954407, 0.8869396038353443, 1.0469793109223247, 1.1829453418031335, 1.4310066681355238]",2175.3226630710997,None,2175.3220029162244,2175.4216882069595,p11_serena_09072022,001,2022_Sep_07_1351,test_typingtask_norepeats,2020.2.10,60.63261226185407,
belly,belly,,,,,,,,,0,28,28,28,,,,,,,,,,,,,,,2180.839462148957,None,"['b', 'e', 'l', 'l', 'y']",1,"[0.7781382813118398, 0.9221320613287389, 1.0421467390842736, 1.2101972289383411, 1.522134252358228]",2180.839462148957,None,2180.8386541265995,2180.938300507143,p11_serena_09072022,001,2022_Sep_07_1351,test_typingtask_norepeats,2020.2.10,60.63261226185407,
heond,heond,,,,,,,,,0,29,29,29,,,,,,,,,,,,,,,2186.3387850602157,None,"['h', 'e', 'o', 'n', 'd']",1,"[0.7029219982214272, 0.8388346629217267, 0.934910761192441, 1.1189415222033858, 1.286889080889523]",2186.3387850602157,None,2186.339118543174,2186.4387449109927,p11_serena_09072022,001,2022_Sep_07_1351,test_typingtask_norepeats,2020.2.10,60.63261226185407,
belly,belly,,,,,,,,,0,30,30,30,,,,,,,,,,,,,,,2191.8392890421674,None,"['b', 'e', 'l', 'l', 'y']",1,"[0.6663180128671229, 0.8263595388270915, 0.9463566499762237, 1.1143626840785146, 1.3463397771120071]",2191.8392890421674,None,2191.8386717113667,2191.9382165269926,p11_serena_09072022,001,2022_Sep_07_1351,test_typingtask_norepeats,2020.2.10,60.63261226185407,
tithe,tithe,,,,,,,,,0,31,31,31,,,,,,,,,,,,,,,2197.3387982849963,None,"['t', 'i', 't', 'h', 'e']",1,"[0.7988394061103463, 0.9108575424179435, 1.0468371342867613, 1.134890018031001, 1.2788031171076]",2197.3387982849963,None,2197.3385975245387,2197.438540226314,p11_serena_09072022,001,2022_Sep_07_1351,test_typingtask_norepeats,2020.2.10,60.63261226185407,
therm,therm,,,,,,,,,0,32,32,32,,,,,,,,,,,,,,,2202.8387718601152,None,"['t', 'h', 'e', 'r', 'm']",1,"[0.7548321168869734, 0.8508419198915362, 1.002896755002439, 1.1068401378579438, 1.2828879510052502]",2202.8387718601152,None,2202.8387331674808,2202.938628267031,p11_serena_09072022,001,2022_Sep_07_1351,test_typingtask_norepeats,2020.2.10,60.63261226185407,
buddy,buddy,,,,,,,,,0,33,33,33,,,,,,,,,,,,,,,2208.3387666712515,None,"['b', 'u', 'd', 'd', 'y']",1,"[0.7588451378978789, 0.9268847298808396, 1.150839767884463, 1.3268805290572345, 1.4388347738422453]",2208.3387666712515,None,2208.3385670335033,2208.4383262251504,p11_serena_09072022,001,2022_Sep_07_1351,test_typingtask_norepeats,2020.2.10,60.63261226185407,
theme,theme,,,,,,,,,0,34,34,34,,,,,,,,,,,,,,,2213.838868757244,None,"['t', 'h', 'e', 'm', 'e']",1,"[0.7227381658740342, 0.8267750418744981, 0.9868384767323732, 1.1468013981357217, 1.2747445120476186]",2213.838868757244,None,2213.838529111445,2213.9383748872206,p11_serena_09072022,001,2022_Sep_07_1351,test_typingtask_norepeats,2020.2.10,60.63261226185407,
haole,haole,,,,,,,,,0,35,35,35,,,,,,,,,,,,,,,2219.339033518918,None,"['h', 'a', 'o', 'l', 'e']",1,"[0.726579308975488, 0.8706700908951461, 0.9905734956264496, 1.2385798166505992, 1.3986152177676558]",2219.339033518918,None,2219.338752205577,2219.4388257958926,p11_serena_09072022,001,2022_Sep_07_1351,test_typingtask_norepeats,2020.2.10,60.63261226185407,
kremp,kremp,,,,,,,,,0,36,36,36,,,,,,,,,,,,,,,2224.838398380205,None,"['k', 'r', 'e', 'm', 'p']",1,"[1.371204752009362, 1.5712019228376448, 1.6992571060545743, 1.803321021143347, 2.0272439010441303]",2224.838398380205,None,2224.8386447123253,2224.938374056015,p11_serena_09072022,001,2022_Sep_07_1351,test_typingtask_norepeats,2020.2.10,60.63261226185407,
cheer,cheer,,,,,,,,,0,37,37,37,,,,,,,,,,,,,,,2230.3392373910174,None,"['c', 'h', 'e', 'e', 'r']",1,"[0.7743767476640642, 0.9184076078236103, 1.062456974759698, 1.238355207722634, 1.4783603795804083]",2230.3392373910174,None,2230.3384678076022,2230.438264930155,p11_serena_09072022,001,2022_Sep_07_1351,test_typingtask_norepeats,2020.2.10,60.63261226185407,
faqir,faqir,,,,,,,,,0,38,38,38,,,,,,,,,,,,,,,2235.8395920721814,None,"['f', 'a', 'q', 'i', 'r']",1,"[0.8500036327168345, 0.9780519930645823, 1.3059966256842017, 1.474018832668662, 1.6260040416382253]",2235.8395920721814,None,2235.8387419912965,2235.9385485462844,p11_serena_09072022,001,2022_Sep_07_1351,test_typingtask_norepeats,2020.2.10,60.63261226185407,
zibja,zibja,,,,,,,,,0,39,39,39,,,,,,,,,,,,,,,2241.355496371165,None,"['z', 'i', 'b', 'j', 'a']",1,"[0.9261239552870393, 1.0540996962226927, 1.2942022630013525, 1.4701949800364673, 1.6541280071251094]",2241.355496371165,None,2241.355337255262,2241.4550719982944,p11_serena_09072022,001,2022_Sep_07_1351,test_typingtask_norepeats,2020.2.10,60.63261226185407,
think,think,,,,,,,,,0,40,40,40,,,,,,,,,,,,,,,2246.8557183742523,None,"['t', 'h', 'i', 'n', 'k']",1,"[0.921822524163872, 1.0498284078203142, 1.0898218979127705, 1.2818981208838522, 1.4098313869908452]",2246.8557183742523,None,2246.8554048571737,2246.9550489662215,p11_serena_09072022,001,2022_Sep_07_1351,test_typingtask_norepeats,2020.2.10,60.63261226185407,
there,there,,,,,,,,,0,41,41,41,,,,,,,,,,,,,,,2252.3555226181634,None,"['t', 'h', 'e', 'r', 'e']",1,"[1.0060679679736495, 1.1420709327794611, 1.2941904971376061, 1.3900710339657962, 1.4861262338235974]",2252.3555226181634,None,2252.355283973366,2252.4552696929313,p11_serena_09072022,001,2022_Sep_07_1351,test_typingtask_norepeats,2020.2.10,60.63261226185407,
vodka,vodka,,,,,,,,,0,42,42,42,,,,,,,,,,,,,,,2257.855678479187,None,"['v', 'o', 'd', 'k', 'a']",1,"[0.937919101677835, 1.065975567791611, 1.2339299260638654, 1.4499215600080788, 1.5780504196882248]",2257.855678479187,None,2257.855226145219,2257.955247573089,p11_serena_09072022,001,2022_Sep_07_1351,test_typingtask_norepeats,2020.2.10,60.63261226185407,
would,would,,,,,,,,,0,43,43,43,,,,,,,,,,,,,,,2263.3556229160167,None,"['w', 'o', 'u', 'l', 'd']",1,"[0.7499733660370111, 0.8860316979698837, 1.0299980058334768, 1.2860343176871538, 1.4460145686753094]",2263.3556229160167,None,2263.3553705533036,2263.4550994778983,p11_serena_09072022,001,2022_Sep_07_1351,test_typingtask_norepeats,2020.2.10,60.63261226185407,
pykka,pykka,,,,,,,,,0,44,44,44,,,,,,,,,,,,,,,2268.8553637550212,None,"['p', 'y', 'k', 'k', 'k', 'a']",0,"[1.3222707910463214, 1.690268386155367, 2.114236878231168, 2.2502394253388047, 2.650239596143365, 2.81024431809783]",2268.8553637550212,None,2268.85537020918,2268.9551600841805,p11_serena_09072022,001,2022_Sep_07_1351,test_typingtask_norepeats,2020.2.10,60.63261226185407,
belly,belly,,,,,,,,,0,45,45,45,,,,,,,,,,,,,,,2274.355273928959,None,"['b', 'e', 'l', 'l', 'y']",1,"[0.69441521121189, 0.8303831820376217, 0.9823838211596012, 1.1263394257985055, 1.4063492268323898]",2274.355273928959,None,2274.3553188323044,2274.455267732963,p11_serena_09072022,001,2022_Sep_07_1351,test_typingtask_norepeats,2020.2.10,60.63261226185407,
would,would,,,,,,,,,0,46,46,46,,,,,,,,,,,,,,,2279.8554096152075,None,"['w', 'o', 'u', 'l', 'd']",1,"[0.7141817710362375, 0.8901871894486248, 1.050182480365038, 1.29018424032256, 1.4501918964087963]",2279.8554096152075,None,2279.855331925303,2279.9550824752077,p11_serena_09072022,001,2022_Sep_07_1351,test_typingtask_norepeats,2020.2.10,60.63261226185407,
about,about,,,,,,,,,0,47,47,47,,,,,,,,,,,,,,,2285.3556165881455,None,"['a', 'b', 'o', 'u', 't']",1,"[0.6940662949346006, 0.8379762112163007, 0.9660638072527945, 1.1339847072958946, 1.309982500039041]",2285.3556165881455,None,2285.3552885675804,2285.4550724863075,p11_serena_09072022,001,2022_Sep_07_1351,test_typingtask_norepeats,2020.2.10,60.63261226185407,
therm,therm,,,,,,,,,0,48,48,48,,,,,,,,,,,,,,,2290.855781637132,None,"['t', 'h', 'e', 'r', 'm']",1,"[0.689816705416888, 0.8258240222930908, 0.953931869007647, 1.0178771461360157, 1.1859093783423305]",2290.855781637132,None,2290.8552887585015,2290.955209570937,p11_serena_09072022,001,2022_Sep_07_1351,test_typingtask_norepeats,2020.2.10,60.63261226185407,
vanru,vanru,,,,,,,,,0,49,49,49,,,,,,,,,,,,,,,2296.355665206909,None,"['v', 'a', 'n', 'r', 'u']",1,"[0.8059388031251729, 0.9019843121059239, 1.0619707531295717, 1.2139534731395543, 1.389933585189283]",2296.355665206909,None,2296.3553928044626,2296.4551336402074,p11_serena_09072022,001,2022_Sep_07_1351,test_typingtask_norepeats,2020.2.10,60.63261226185407,
haole,haole,,,,,,,,,0,50,50,50,,,,,,,,,,,,,,,2301.8559850160964,None,"['h', 'a', 'o', 'l', 'e']",1,"[0.7056329757906497, 0.8576302519068122, 0.9857340659946203, 1.249622916802764, 1.385720441583544]",2301.8559850160964,None,2301.8555930756033,2301.9556247591972,p11_serena_09072022,001,2022_Sep_07_1351,test_typingtask_norepeats,2020.2.10,60.63261226185407,
think,think,,,,,,,,,0,51,51,51,,,,,,,,,,,,,,,2307.3554519233294,None,"['t', 'h', 'i', 'n', 'k']",1,"[0.7981976787559688, 0.9101681937463582, 0.9821985620073974, 1.1981978509575129, 1.3581697796471417]",2307.3554519233294,None,2307.355394878518,2307.455218493007,p11_serena_09072022,001,2022_Sep_07_1351,test_typingtask_norepeats,2020.2.10,60.63261226185407,
about,about,,,,,,,,,0,52,52,52,,,,,,,,,,,,,,,2312.855370640289,None,"['a', 'b', 'o', 'u', 't']",1,"[0.6742285736836493, 0.8102542646229267, 0.9542877939529717, 1.114231907762587, 1.2902294020168483]",2312.855370640289,None,2312.8555384013803,2312.955247956328,p11_serena_09072022,001,2022_Sep_07_1351,test_typingtask_norepeats,2020.2.10,60.63261226185407,
cooed,cooed,,,,,,,,,0,53,53,53,,,,,,,,,,,,,,,2318.355453832075,None,"['c', 'o', 'o', 'e', 'd']",1,"[0.7741488413885236, 1.1581743699498475, 1.3101870412938297, 1.4701965972781181, 1.7022411869838834]",2318.355453832075,None,2318.3556749393233,2318.4551491392776,p11_serena_09072022,001,2022_Sep_07_1351,test_typingtask_norepeats,2020.2.10,60.63261226185407,
therm,therm,,,,,,,,,0,54,54,54,,,,,,,,,,,,,,,2323.8555141519755,None,"['t', 'h', 'e', 'r', 'm']",1,"[0.7941333949565887, 0.922099735122174, 1.058103347197175, 1.1301342411898077, 1.3060784628614783]",2323.8555141519755,None,2323.8553283262067,2323.9551685019396,p11_serena_09072022,001,2022_Sep_07_1351,test_typingtask_norepeats,2020.2.10,60.63261226185407,
kremp,kremp,,,,,,,,,0,55,55,55,,,,,,,,,,,,,,,2329.35551644722,None,"['k', 'r', 'e', 'm', 'p']",1,"[0.902210065163672, 1.0541772907599807, 1.1740812649950385, 1.3420854299329221, 1.558100312948227]",2329.35551644722,None,2329.355491697416,2329.4553650622256,p11_serena_09072022,001,2022_Sep_07_1351,test_typingtask_norepeats,2020.2.10,60.63261226185407,
zibja,zibja,,,,,,,,,0,56,56,56,,,,,,,,,,,,,,,2334.8559604273178,None,"['z', 'i', 'b', 'j', 'a']",1,"[1.1056414069607854, 1.273640912026167, 1.497725890018046, 1.6816910929046571, 1.8416519579477608]",2334.8559604273178,None,2334.855560199451,2334.955453048926,p11_serena_09072022,001,2022_Sep_07_1351,test_typingtask_norepeats,2020.2.10,60.63261226185407,
druze,druze,,,,,,,,,0,57,57,57,,,,,,,,,,,,,,,2340.355342355091,None,"['d', 'r', 'u', 'z', 'e']",1,"[0.9422515276819468, 1.2542366748675704, 1.4382370519451797, 1.6382397478446364, 1.8942870358005166]",2340.355342355091,None,2340.355357914325,2340.4551939112134,p11_serena_09072022,001,2022_Sep_07_1351,test_typingtask_norepeats,2020.2.10,60.63261226185407,
zibja,zibja,,,,,,,,,0,58,58,58,,,,,,,,,,,,,,,2345.855548283085,None,"['z', 'i', 'b', 'j', 'a']",1,"[0.8340491140261292, 0.9781828313134611, 1.1941121462732553, 1.370108617004007, 1.5220382208935916]",2345.855548283085,None,2345.855451384187,2345.955158109311,p11_serena_09072022,001,2022_Sep_07_1351,test_typingtask_norepeats,2020.2.10,60.63261226185407,
heond,heond,,,,,,,,,0,59,59,59,,,,,,,,,,,,,,,2351.355321952142,None,"['h', 'e', 'o', 'n', 'd']",1,"[0.726280823815614, 0.8622838668525219, 0.9902927540242672, 1.230325941927731, 1.4303434020839632]",2351.355321952142,None,2351.3555753064343,2351.455225785263,p11_serena_09072022,001,2022_Sep_07_1351,test_typingtask_norepeats,2020.2.10,60.63261226185407,
buddy,buddy,,,,,,,,,0,60,60,60,,,,,,,,,,,,,,,2356.8567806840874,None,"['b', 'u', 'd', 'd', 'y']",1,"[0.7608245532028377, 0.9448687830008566, 1.16888020420447, 1.3368173162452877, 1.4568226030096412]",2356.8567806840874,None,2356.855632388592,2356.9553127842955,p11_serena_09072022,001,2022_Sep_07_1351,test_typingtask_norepeats,2020.2.10,60.63261226185407,
zibja,zibja,,,,,,,,,0,61,61,61,,,,,,,,,,,,,,,2362.372479584068,None,"['z', 'i', 'b', 'j', 'a']",1,"[0.8531758831813931, 1.0211190450936556, 1.213173400145024, 1.4211246520280838, 1.5811703400686383]",2362.372479584068,None,2362.3722258043476,2362.4719412089325,p11_serena_09072022,001,2022_Sep_07_1351,test_typingtask_norepeats,2020.2.10,60.63261226185407,
think,think,,,,,,,,,0,62,62,62,,,,,,,,,,,,,,,2367.8722720001824,None,"['t', 'h', 'i', 'n', 'k']",1,"[0.7534158490598202, 0.9453473757021129, 1.0013828426599503, 1.2093386929482222, 1.385387018788606]",2367.8722720001824,None,2367.8722327352502,2367.9719025869854,p11_serena_09072022,001,2022_Sep_07_1351,test_typingtask_norepeats,2020.2.10,60.63261226185407,
cooed,cooed,,,,,,,,,0,63,63,63,,,,,,,,,,,,,,,2373.3724923762493,None,"['c', 'o', 'o', 'e', 'd']",1,"[0.9011192349717021, 1.1811147606931627, 1.3251403947360814, 1.5331747089512646, 1.7171299518086016]",2373.3724923762493,None,2373.3726024703124,2373.472351727076,p11_serena_09072022,001,2022_Sep_07_1351,test_typingtask_norepeats,2020.2.10,60.63261226185407,
edthe,edthe,,,,,,,,,0,64,64,64,,,,,,,,,,,,,,,2378.872161512263,None,"['e', 'd', 't', 'h', 'e']",1,"[0.7294871779158711, 0.9534864430315793, 1.2174504371359944, 1.3774901870638132, 1.4894367400556803]",2378.872161512263,None,2378.872081759479,2378.97197182104,p11_serena_09072022,001,2022_Sep_07_1351,test_typingtask_norepeats,2020.2.10,60.63261226185407,
druze,druze,,,,,,,,,0,65,65,65,,,,,,,,,,,,,,,2384.3726238342933,None,"['d', 'r', 'u', 'z', 'e']",1,"[0.8210084438323975, 1.077041036915034, 1.2531022331677377, 1.444987516850233, 1.6850559171289206]",2384.3726238342933,None,2384.3726264216007,2384.4721472249366,p11_serena_09072022,001,2022_Sep_07_1351,test_typingtask_norepeats,2020.2.10,60.63261226185407,
vanru,vanru,,,,,,,,,0,66,66,66,,,,,,,,,,,,,,,2389.8726162249222,None,"['v', 'a', 'n', 'r', 'u']",1,"[0.9049898199737072, 1.1530268117785454, 1.288978235796094, 1.520976681727916, 1.7130781929008663]",2389.8726162249222,None,2389.871981101204,2389.972617709078,p11_serena_09072022,001,2022_Sep_07_1351,test_typingtask_norepeats,2020.2.10,60.63261226185407,
would,would,,,,,,,,,0,67,67,67,,,,,,,,,,,,,,,2395.372467934154,None,"['w', 'o', 'u', 'l', 'd']",1,"[0.6211349577642977, 0.773132671136409, 0.9011840657331049, 1.1331360707990825, 1.2532322979532182]",2395.372467934154,None,2395.372153411247,2395.471937543247,p11_serena_09072022,001,2022_Sep_07_1351,test_typingtask_norepeats,2020.2.10,60.63261226185407,
champ,champ,,,,,,,,,0,68,68,68,,,,,,,,,,,,,,,2400.873083611019,None,"['c', 'h', 'a', 'm', 'p']",1,"[0.8325245711021125, 1.0165120428428054, 1.192526995204389, 1.424519143998623, 1.5925240172073245]",2400.873083611019,None,2400.872229969222,2400.9719787919894,p11_serena_09072022,001,2022_Sep_07_1351,test_typingtask_norepeats,2020.2.10,60.63261226185407,
cooed,cooed,,,,,,,,,0,69,69,69,,,,,,,,,,,,,,,2406.389340838883,None,"['c', 'o', 'o', 'e', 'd']",1,"[0.7402763105928898, 0.9082493558526039, 1.1002399045974016, 1.3082616669125855, 1.5002401559613645]",2406.389340838883,None,2406.3888132135385,2406.4887436730787,p11_serena_09072022,001,2022_Sep_07_1351,test_typingtask_norepeats,2020.2.10,60.63261226185407,
about,about,,,,,,,,,0,70,70,70,,,,,,,,,,,,,,,2411.8897865200415,None,"['a', 'b', 'o', 'u', 't']",1,"[0.5359155549667776, 0.7278043976984918, 0.8718014936894178, 1.0318914158269763, 1.2078108950518072]",2411.8897865200415,None,2411.888863615319,2411.988745164126,p11_serena_09072022,001,2022_Sep_07_1351,test_typingtask_norepeats,2020.2.10,60.63261226185407,
there,there,,,,,,,,,0,71,71,71,,,,,,,,,,,,,,,2417.405701777898,None,"['t', 'h', 'e', 'r', 'e']",1,"[0.7078792178072035, 0.8918983447365463, 1.019926871638745, 1.1319335717707872, 1.2439745450392365]",2417.405701777898,None,2417.405539689213,2417.505466897972,p11_serena_09072022,001,2022_Sep_07_1351,test_typingtask_norepeats,2020.2.10,60.63261226185407,
tithe,tithe,,,,,,,,,0,72,72,72,,,,,,,,,,,,,,,2422.906269837171,None,"['t', 'i', 't', 'h', 'e']",1,"[0.8953869361430407, 1.327435502782464, 1.5593502027913928, 1.6713748550973833, 1.8313836702145636]",2422.906269837171,None,2422.905640261341,2423.005517594982,p11_serena_09072022,001,2022_Sep_07_1351,test_typingtask_norepeats,2020.2.10,60.63261226185407,
would,would,,,,,,,,,0,73,73,73,,,,,,,,,,,,,,,2428.423345248215,None,"['w', 'o', 'u', 'l', 'd']",1,"[0.6503085801377892, 0.7862578141503036, 0.9623102121986449, 1.226317741908133, 1.3783152368851006]",2428.423345248215,None,2428.4222451225855,2428.5221373382956,p11_serena_09072022,001,2022_Sep_07_1351,test_typingtask_norepeats,2020.2.10,60.63261226185407,
puppy,puppy,,,,,,,,,0,74,74,74,,,,,,,,,,,,,,,2433.93875650689,None,"['p', 'u', 'p', 'p', 'y']",1,"[0.6869120011106133, 0.9428443741053343, 1.1828999812714756, 1.3188873222097754, 1.558876024093479]",2433.93875650689,None,2433.938954428397,2434.0387356532738,p11_serena_09072022,001,2022_Sep_07_1351,test_typingtask_norepeats,2020.2.10,60.63261226185407,
lucky,lucky,,,,,,,,,0,75,75,75,,,,,,,,,,,,,,,2439.4391330471262,None,"['l', 'u', 'c', 'k', 'y']",1,"[0.7465663538314402, 1.0104672107845545, 1.2025860180146992, 1.3144677737727761, 1.6825559088028967]",2439.4391330471262,None,2439.4391229642556,2439.5386366932653,p11_serena_09072022,001,2022_Sep_07_1351,test_typingtask_norepeats,2020.2.10,60.63261226185407,
theme,theme,,,,,,,,,0,76,76,76,,,,,,,,,,,,,,,2444.9394665351138,None,"['t', 'h', 'e', 'm', 'e']",1,"[0.6221579452976584, 0.7581715611740947, 0.9261683272197843, 1.1022463040426373, 1.2141473679803312]",2444.9394665351138,None,2444.939029418491,2445.0392089039087,p11_serena_09072022,001,2022_Sep_07_1351,test_typingtask_norepeats,2020.2.10,60.63261226185407,
lucky,lucky,,,,,,,,,0,77,77,77,,,,,,,,,,,,,,,2450.439585470129,None,"['l', 'u', 'c', 'k', 'y']",1,"[0.5780746126547456, 0.8500208710320294, 1.0100850448943675, 1.130009550601244, 1.4820704786106944]",2450.439585470129,None,2450.439167178329,2450.5387503518723,p11_serena_09072022,001,2022_Sep_07_1351,test_typingtask_norepeats,2020.2.10,60.63261226185407,
heond,heond,,,,,,,,,0,78,78,78,,,,,,,,,,,,,,,2455.9393008281477,None,"['h', 'e', 'o', 'n', 'd']",1,"[0.68638103781268, 0.7983320388011634, 0.9103229991160333, 1.094355242792517, 1.246332534123212]",2455.9393008281477,None,2455.9389053104446,2456.03894338198,p11_serena_09072022,001,2022_Sep_07_1351,test_typingtask_norepeats,2020.2.10,60.63261226185407,
edthe,edthe,,,,,,,,,0,79,79,79,,,,,,,,,,,,,,,2461.439437100198,None,"['e', 'd', 't', 'h', 'e']",1,"[0.6661924929358065, 0.8581554163247347, 1.122152416035533, 1.2822174630127847, 1.418218961916864]",2461.439437100198,None,2461.4393957044,2461.5388629022054,p11_serena_09072022,001,2022_Sep_07_1351,test_typingtask_norepeats,2020.2.10,60.63261226185407,
druze,druze,,,,,,,,,0,80,80,80,,,,,,,,,,,,,,,2466.938990584109,None,"['d', 'r', 'u', 'z', 'e']",1,"[0.7506105317734182, 0.9906168598681688, 1.1106223468668759, 1.318657319061458, 1.670603266917169]",2466.938990584109,None,2466.938798442576,2467.038742054254,p11_serena_09072022,001,2022_Sep_07_1351,test_typingtask_norepeats,2020.2.10,60.63261226185407,
therm,therm,,,,,,,,,0,81,81,81,,,,,,,,,,,,,,,2472.4397928379476,None,"['t', 'h', 'e', 'r', 'm']",1,"[0.7057991572655737, 0.8258063793182373, 0.9778596190735698, 1.0818412760272622, 1.257789981085807]",2472.4397928379476,None,2472.4393603523263,2472.538887807168,p11_serena_09072022,001,2022_Sep_07_1351,test_typingtask_norepeats,2020.2.10,60.63261226185407,
lucky,lucky,,,,,,,,,0,82,82,82,,,,,,,,,,,,,,,2477.9390554162674,None,"['l', 'u', 'c', 'k', 'y']",1,"[0.782639161683619, 1.0625897296704352, 1.1986244088038802, 1.3265470080077648, 1.6465871538966894]",2477.9390554162674,None,2477.9390067733825,2478.0388067429885,p11_serena_09072022,001,2022_Sep_07_1351,test_typingtask_norepeats,2020.2.10,60.63261226185407,
pykka,pykka,,,,,,,,,0,83,83,83,,,,,,,,,,,,,,,2483.4401187682524,None,"['p', 'y', 'k', 'k', 'a']",1,"[0.7455726871266961, 1.2975266249850392, 1.7374716540798545, 1.8894780948758125, 2.081529614981264]",2483.4401187682524,None,2483.4394410951995,2483.5389171033166,p11_serena_09072022,001,2022_Sep_07_1351,test_typingtask_norepeats,2020.2.10,60.63261226185407,
kremp,kremp,,,,,,,,,0,84,84,84,,,,,,,,,,,,,,,2488.9555899170227,None,"['k', 'r', 'e', 'm', 'p']",1,"[0.9100085501559079, 1.0700737023726106, 1.1900081452913582, 1.2701096651144326, 1.438003390096128]",2488.9555899170227,None,2488.9557360714302,2489.0566905611195,p11_serena_09072022,001,2022_Sep_07_1351,test_typingtask_norepeats,2020.2.10,60.63261226185407,
therm,therm,,,,,,,,,0,85,85,85,,,,,,,,,,,,,,,2494.4558117212728,None,"['t', 'h', 'e', 'r', 'm']",1,"[0.7458341042511165, 0.8818180640228093, 1.0337753682397306, 1.1217843280173838, 1.2898115571588278]",2494.4558117212728,None,2494.4557156922297,2494.5554757281207,p11_serena_09072022,001,2022_Sep_07_1351,test_typingtask_norepeats,2020.2.10,60.63261226185407,
faqir,faqir,,,,,,,,,0,86,86,86,,,,,,,,,,,,,,,2499.9580425280146,None,"['f', 'a', 'q', 'i', 'r']",1,"[0.8676748829893768, 0.9796091867610812, 1.2836479931138456, 1.4756310018710792, 1.9075772338546813]",2499.9580425280146,None,2499.9557996374556,2500.055610700045,p11_serena_09072022,001,2022_Sep_07_1351,test_typingtask_norepeats,2020.2.10,60.63261226185407,
there,there,,,,,,,,,0,87,87,87,,,,,,,,,,,,,,,2505.472313979175,None,"['t', 'h', 'e', 'r', 'e']",1,"[0.7613398949615657, 0.8812806308269501, 1.0252843988128006, 1.105317180044949, 1.2252847240306437]",2505.472313979175,None,2505.4722626051866,2505.5720748919994,p11_serena_09072022,001,2022_Sep_07_1351,test_typingtask_norepeats,2020.2.10,60.63261226185407,
vodka,vodka,,,,,,,,,0,88,88,88,,,,,,,,,,,,,,,2510.9732922469266,None,"['v', 'o', 'd', 'k', 'a']",1,"[0.8042919412255287, 0.924294981174171, 1.0683970428071916, 1.2604115740396082, 1.3802911560051143]",2510.9732922469266,None,2510.972820181493,2511.072642645333,p11_serena_09072022,001,2022_Sep_07_1351,test_typingtask_norepeats,2020.2.10,60.63261226185407,
belly,belly,,,,,,,,,0,89,89,89,,,,,,,,,,,,,,,2516.473352480214,None,"['b', 'e', 'l', 'l', 'y']",1,"[0.7523290198296309, 0.9202736997976899, 1.064294337760657, 1.2322681210935116, 1.5123023800551891]",2516.473352480214,None,2516.4726835061797,2516.5725037869997,p11_serena_09072022,001,2022_Sep_07_1351,test_typingtask_norepeats,2020.2.10,60.63261226185407,
edthe,edthe,,,,,,,,,0,90,90,90,,,,,,,,,,,,,,,2521.989008724224,None,"['e', 'd', 't', 'h', 'e']",1,"[0.6765905828215182, 0.8366376510821283, 1.1165830469690263, 1.236630983185023, 1.3486260091885924]",2521.989008724224,None,2521.9889393612743,2522.0888116681017,p11_serena_09072022,001,2022_Sep_07_1351,test_typingtask_norepeats,2020.2.10,60.63261226185407,
buddy,buddy,,,,,,,,,0,91,91,91,,,,,,,,,,,,,,,2527.489540762268,None,"['b', 'u', 'd', 'd', 'y']",1,"[0.70406648889184, 0.8640611069276929, 1.0400596847757697, 1.2240594867616892, 1.3361148056574166]",2527.489540762268,None,2527.489152324479,2527.5888629960828,p11_serena_09072022,001,2022_Sep_07_1351,test_typingtask_norepeats,2020.2.10,60.63261226185407,
tithe,tithe,,,,,,,,,0,92,92,92,,,,,,,,,,,,,,,2532.9895059340633,None,"['t', 'i', 't', 'h', 'e']",1,"[0.8121552029624581, 0.9241290427744389, 1.0681480299681425, 1.1961429407820106, 1.3080934481695294]",2532.9895059340633,None,2532.9891231163406,2533.0887816851027,p11_serena_09072022,001,2022_Sep_07_1351,test_typingtask_norepeats,2020.2.10,60.63261226185407,
buddy,buddy,,,,,,,,,0,93,93,93,,,,,,,,,,,,,,,2538.48951369524,None,"['b', 'u', 'd', 'd', 'y']",1,"[0.9120896579697728, 1.0560784619301558, 1.2481241510249674, 1.4000835521146655, 1.5201395200565457]",2538.48951369524,None,2538.488963675313,2538.5888757091016,p11_serena_09072022,001,2022_Sep_07_1351,test_typingtask_norepeats,2020.2.10,60.63261226185407,
cooed,cooed,,,,,,,,,0,94,94,94,,,,,,,,,,,,,,,2543.9896931801923,None,"['c', 'v', 'o', 'o', 'e', 'd']",0,"[0.763886306900531, 0.763886306900531, 1.1558903879486024, 1.3319333060644567, 1.4839395792223513, 1.6119977431371808]",2543.9896931801923,None,2543.9890603475274,2544.089008284267,p11_serena_09072022,001,2022_Sep_07_1351,test_typingtask_norepeats,2020.2.10,60.63261226185407,
faqir,faqir,,,,,,,,,0,95,95,95,,,,,,,,,,,,,,,2549.489986876957,None,"['f', 'a', 'q', 'i', 'r']",1,"[0.7197254900820553, 0.8636514330282807, 1.5517156710848212, 1.6716417339630425, 1.8957172418013215]",2549.489986876957,None,2549.489432912413,2549.589621997904,p11_serena_09072022,001,2022_Sep_07_1351,test_typingtask_norepeats,2020.2.10,60.63261226185407,
druze,druze,,,,,,,,,0,96,96,96,,,,,,,,,,,,,,,2555.0060498802923,None,"['d', 'r', 'u', 'z', 'e']",1,"[0.8115512994118035, 1.14754816936329, 1.3475497202016413, 1.5635548974387348, 1.8515963754616678]",2555.0060498802923,None,2555.005725254398,2555.1054577152245,p11_serena_09072022,001,2022_Sep_07_1351,test_typingtask_norepeats,2020.2.10,60.63261226185407,
vodka,vodka,,,,,,,,,0,97,97,97,,,,,,,,,,,,,,,2560.506294033956,None,"['v', 'o', 'd', 'k', 'a']",1,"[1.0393015388399363, 1.1913036098703742, 1.343373365700245, 1.5513492370955646, 1.679355583153665]",2560.506294033956,None,2560.5057700635866,2560.605684841983,p11_serena_09072022,001,2022_Sep_07_1351,test_typingtask_norepeats,2020.2.10,60.63261226185407,
pykka,pykka,,,,,,,,,0,98,98,98,,,,,,,,,,,,,,,2566.0059396512806,None,"['p', 'y', 'k', 'k', 'a']",1,"[0.8277214579284191, 1.667708053253591, 2.0596651192754507, 2.2596745872870088, 2.4036551602184772]",2566.0059396512806,None,2566.0055193943904,2566.1053969082423,p11_serena_09072022,001,2022_Sep_07_1351,test_typingtask_norepeats,2020.2.10,60.63261226185407,
vodka,vodka,,,,,,,,,0,99,99,99,,,,,,,,,,,,,,,2571.5067725311965,None,"['v', 'o', 'd', 'k', 'a']",1,"[0.8148807799443603, 0.9669071119278669, 1.1189216217026114, 1.3428260078653693, 1.4948246809653938]",2571.5067725311965,None,2571.505595642235,2571.6055373609997,p11_serena_09072022,001,2022_Sep_07_1351,test_typingtask_norepeats,2020.2.10,60.63261226185407,
puppy,puppy,,,,,,,,,0,100,100,100,,,,,,,,,,,,,,,2577.0226440140978,None,"['p', 'u', 'p', 'p', 'y']",1,"[0.7069512181915343, 1.0190068501979113, 1.322956123854965, 1.4510104302316904, 1.7469924930483103]",2577.0226440140978,None,2577.02233770825,2577.122273796238,p11_serena_09072022,001,2022_Sep_07_1351,test_typingtask_norepeats,2020.2.10,60.63261226185407,
kremp,kremp,,,,,,,,,0,101,101,101,,,,,,,,,,,,,,,2582.522618856281,None,"['k', 'r', 'e', 'm', 'o']",0,"[1.0069771818816662, 1.1749928100034595, 1.311046008951962, 1.4470272450707853, 1.5990830310620368]",2582.522618856281,None,2582.5225220952184,2582.6223768079653,p11_serena_09072022,001,2022_Sep_07_1351,test_typingtask_norepeats,2020.2.10,60.63261226185407,
cooed,cooed,,,,,,,,,0,102,102,102,,,,,,,,,,,,,,,2588.0229908581823,None,"['v', 'o', 'o', 'e', 'd']",0,"[0.7225869260728359, 1.3545839921571314, 1.5306291058659554, 1.6505887568928301, 1.7705998560413718]",2588.0229908581823,None,2588.0228855694645,2588.122912337072,p11_serena_09072022,001,2022_Sep_07_1351,test_typingtask_norepeats,2020.2.10,60.63261226185407,
champ,champ,,,,,,,,,0,103,103,103,,,,,,,,,,,,,,,2593.5227465783246,None,"['c', 'h', 'a', 'm', 'p']",1,"[0.82285544462502, 0.9989082147367299, 1.1189059265889227, 1.3268602308817208, 1.5348609229549766]",2593.5227465783246,None,2593.5224695504644,2593.622119222302,p11_serena_09072022,001,2022_Sep_07_1351,test_typingtask_norepeats,2020.2.10,60.63261226185407,
haole,haole,,,,,,,,,0,104,104,104,,,,,,,,,,,,,,,2599.022438910324,None,"['h', 'a', 'o', 'l', 'e']",1,"[0.763224677182734, 0.8992376471869648, 1.1231564520858228, 1.4271836578845978, 1.587158674839884]",2599.022438910324,None,2599.022499204241,2599.1222829283215,p11_serena_09072022,001,2022_Sep_07_1351,test_typingtask_norepeats,2020.2.10,60.63261226185407,
theme,theme,,,,,,,,,0,105,105,105,,,,,,,,,,,,,,,2604.5236453930847,None,"['t', 'h', 'e', 'm', 'e']",1,"[0.7419634028337896, 0.8620069897733629, 1.0699552041478455, 1.2219556090421975, 1.3739531128667295]",2604.5236453930847,None,2604.5225687623956,2604.6229946552776,p11_serena_09072022,001,2022_Sep_07_1351,test_typingtask_norepeats,2020.2.10,60.63261226185407,
champ,champ,,,,,,,,,0,106,106,106,,,,,,,,,,,,,,,2610.039268103894,None,"['c', 'h', 'a', 'm', 'p']",1,"[0.8423356069251895, 1.1543328296393156, 1.314365861006081, 1.5223735896870494, 1.730330549646169]",2610.039268103894,None,2610.039143121429,2610.139062209986,p11_serena_09072022,001,2022_Sep_07_1351,test_typingtask_norepeats,2020.2.10,60.63261226185407,
vanru,vanru,,,,,,,,,0,107,107,107,,,,,,,,,,,,,,,2615.540196655318,None,"['v', 'a', 'n', 'r', 'u']",1,"[0.8054345338605344, 0.9654181436635554, 1.133495426736772, 1.309410059824586, 1.509410835802555]",2615.540196655318,None,2615.539324410353,2615.6389749879017,p11_serena_09072022,001,2022_Sep_07_1351,test_typingtask_norepeats,2020.2.10,60.63261226185407,
champ,champ,,,,,,,,,0,108,108,108,,,,,,,,,,,,,,,2621.0565798003227,None,"['c', 'h', 'a', 'm', 'p']",1,"[0.6970229279249907, 0.8810557322576642, 1.001066843047738, 1.1930250241421163, 1.3851041439920664]",2621.0565798003227,None,2621.055872769188,2621.1557615119964,p11_serena_09072022,001,2022_Sep_07_1351,test_typingtask_norepeats,2020.2.10,60.63261226185407,
puppy,puppy,,,,,,,,,0,109,109,109,,,,,,,,,,,,,,,2626.556166667957,None,"['p', 'u', 'p', 'p', 'y']",1,"[0.6775412610732019, 0.9254479156807065, 1.165498297661543, 1.2855122378095984, 1.5414303559809923]",2626.556166667957,None,2626.555947484542,2626.6557262511924,p11_serena_09072022,001,2022_Sep_07_1351,test_typingtask_norepeats,2020.2.10,60.63261226185407,
cheer,cheer,,,,,,,,,0,110,110,110,,,,,,,,,,,,,,,2632.0565712121315,None,"['c', 'h', 'e', 'e', 'r']",1,"[0.6410524728707969, 0.801059546880424, 0.9611816229298711, 1.1291266428306699, 1.3530944217927754]",2632.0565712121315,None,2632.056068198383,2632.156128330156,p11_serena_09072022,001,2022_Sep_07_1351,test_typingtask_norepeats,2020.2.10,60.63261226185407,
about,about,,,,,,,,,0,111,111,111,,,,,,,,,,,,,,,2637.5567371952347,None,"['a', 'b', 'o', 'u', 't']",1,"[0.6928562340326607, 1.0289107551798224, 1.2289225682616234, 1.4128600512631238, 1.6128649241290987]",2637.5567371952347,None,2637.5558971134947,2637.6556595200673,p11_serena_09072022,001,2022_Sep_07_1351,test_typingtask_norepeats,2020.2.10,60.63261226185407,
puppy,puppy,,,,,,,,,0,112,112,112,,,,,,,,,,,,,,,2643.0734508601017,None,"['p', 'u', 'p', 'p', 'y']",1,"[0.7602100768126547, 1.0482198530808091, 1.3041471997275949, 1.4482318181544542, 1.7281499677337706]",2643.0734508601017,None,2643.073630634323,None,p11_serena_09072022,001,2022_Sep_07_1351,test_typingtask_norepeats,2020.2.10,60.63261226185407,
vanru,vanru,,,,,,,,,0,113,113,113,,,,,,,,,,,,,,,2648.5726764262654,None,"['v', 'a', 'n', 'r', 'u']",1,"[1.1409267773851752, 1.269002799410373, 1.4369490123353899, 1.5969237643294036, 1.7089235722087324]",2648.5726764262654,None,2648.572441577539,2648.672453525942,p11_serena_09072022,001,2022_Sep_07_1351,test_typingtask_norepeats,2020.2.10,60.63261226185407,
about,about,,,,,,,,,0,114,114,114,,,,,,,,,,,,,,,2654.0725635830313,None,"['a', 'b', 'o', 'u', 't']",1,"[0.6810450488701463, 0.8410389218479395, 1.0010430817492306, 1.1371300970204175, 1.305039415601641]",2654.0725635830313,None,2654.072770620324,2654.1723106340505,p11_serena_09072022,001,2022_Sep_07_1351,test_typingtask_norepeats,2020.2.10,60.63261226185407,
would,would,,,,,,,,,0,115,115,115,,,,,,,,,,,,,,,2659.5727631142363,None,"['w', 'o', 'u', 'l', 'd']",1,"[0.6768388291820884, 0.804840600118041, 0.9408326200209558, 1.1728604580275714, 1.2848598212003708]",2659.5727631142363,None,2659.572585752327,2659.672372382134,p11_serena_09072022,001,2022_Sep_07_1351,test_typingtask_norepeats,2020.2.10,60.63261226185407,
think,think,,,,,,,,,0,116,116,116,,,,,,,,,,,,,,,2665.0732827680185,None,"['t', 'h', 'i', 'n', 'k']",1,"[0.7364219222217798, 0.8723297850228846, 0.9604086149483919, 1.1444198219105601, 1.2803315771743655]",2665.0732827680185,None,2665.073096852377,2665.1728957202286,p11_serena_09072022,001,2022_Sep_07_1351,test_typingtask_norepeats,2020.2.10,60.63261226185407,
zibja,zibja,,,,,,,,,0,117,117,117,,,,,,,,,,,,,,,2670.573598012328,None,"['z', 'i', 'b', 'j', 'a']",1,"[1.1000470290891826, 1.2920099031180143, 1.5640506311319768, 1.75599260115996, 1.907998476177454]",2670.573598012328,None,2670.5725024143235,2670.672523749061,p11_serena_09072022,001,2022_Sep_07_1351,test_typingtask_norepeats,2020.2.10,60.63261226185407,
kremp,kremp,,,,,,,,,0,118,118,118,,,,,,,,,,,,,,,2676.089489318896,None,"['k', 'r', 'e', 'm', 'p']",1,"[0.8401074428111315, 1.0322031858377159, 1.1362019088119268, 1.2961615417152643, 1.4881063955835998]",2676.089489318896,None,2676.0893713474275,2676.1890187240206,p11_serena_09072022,001,2022_Sep_07_1351,test_typingtask_norepeats,2020.2.10,60.63261226185407,
tithe,tithe,,,,,,,,,0,119,119,119,,,,,,,,,,,,,,,2681.5892127272673,None,"['t', 'i', 't', 'h', 'e']",1,"[0.7563901697285473, 0.8923868788406253, 1.0284043159335852, 1.148431268054992, 1.268459531944245]",2681.5892127272673,None,2681.5892409962603,2681.6892610280775,p11_serena_09072022,001,2022_Sep_07_1351,test_typingtask_norepeats,2020.2.10,60.63261226185407,
