string,corrAns,practice_trials.thisRepN,practice_trials.thisTrialN,practice_trials.thisN,practice_trials.thisIndex,trials_1.thisRepN,trials_1.thisTrialN,trials_1.thisN,trials_1.thisIndex,trials_2.thisRepN,trials_2.thisTrialN,trials_2.thisN,trials_2.thisIndex,key_resp_0.keys,key_resp_0.corr,key_resp_0.rt,text_1.started,text_1.stopped,key_resp_1.keys,key_resp_1.corr,key_resp_1.rt,key_resp_1.started,key_resp_1.stopped,sound_1A_1.started,sound_1A_1.stopped,break_time.started,break_time.stopped,text_2.started,text_2.stopped,key_resp_2.keys,key_resp_2.corr,key_resp_2.rt,key_resp_2.started,key_resp_2.stopped,sound_1A_2.started,sound_1A_2.stopped,participant,session,date,expName,psychopyVersion,frameRate,
fresh,fresh,0,0,0,0,,,,,,,,,"['f', 'r', 'e', 's', 'h']",1,"[0.8186846800090279, 1.0267535349994432, 1.1067742440209258, 1.1626826639985666, 1.3067330160120036]",,,,,,,,,,,,,,,,,,,,,p01_pat_03042022,001,2022_Mar_04_1519,test_typingtask_norepeats,2020.2.10,116.60979277559161,
dream,dream,0,1,1,1,,,,,,,,,"['d', 'r', 'e', 'a', 'm']",1,"[0.8078257220040541, 1.0878937439993024, 1.167792524996912, 1.2238384649972431, 1.3357975720136892]",,,,,,,,,,,,,,,,,,,,,p01_pat_03042022,001,2022_Mar_04_1519,test_typingtask_norepeats,2020.2.10,116.60979277559161,
slime,slime,0,2,2,2,,,,,,,,,"['l', 'backspace', 's', 'l', 'i', 'm', 'e']",0,"[0.695055614982266, 1.1671119479869958, 1.431123115005903, 1.511058101983508, 1.6871084469894413, 1.7510465579980519, 1.8151205939939246]",,,,,,,,,,,,,,,,,,,,,p01_pat_03042022,001,2022_Mar_04_1519,test_typingtask_norepeats,2020.2.10,116.60979277559161,
kremp,kremp,,,,,0,0,0,0,,,,,,,,125.85261517501203,None,"['k', 'r', 'e', 'm', 'p']",1,"[0.9966423769947141, 1.1166563270089682, 1.1566162810195237, 1.372525447019143, 1.548582345014438]",125.85261517501203,None,125.8479452164087,125.94797004299471,,,,,,,,,,,,p01_pat_03042022,001,2022_Mar_04_1519,test_typingtask_norepeats,2020.2.10,116.60979277559161,
cheer,cheer,,,,,0,1,1,1,,,,,,,,131.35341702899314,None,"['c', 'h', 'e', 'e', 'r']",1,"[0.6718120760051534, 0.8557266390125733, 0.919855489017209, 1.0878465710266028, 1.1677531310124323]",131.35341702899314,None,131.35091554570243,131.45041166400188,,,,,,,,,,,,p01_pat_03042022,001,2022_Mar_04_1519,test_typingtask_norepeats,2020.2.10,116.60979277559161,
tithe,tithe,,,,,0,2,2,2,,,,,,,,136.8586447960115,None,"['t', 'i', 't', 'h', 'e']",1,"[0.7585382300021593, 0.9186026719980873, 0.9666178110055625, 1.2225680850096978, 1.2465555189992301]",136.8586447960115,None,136.8548042327049,None,,,,,,,,,,,,p01_pat_03042022,001,2022_Mar_04_1519,test_typingtask_norepeats,2020.2.10,116.60979277559161,
puppy,puppy,,,,,0,3,3,3,,,,,,,,142.36135517401271,None,"['p', 'u', 'p', 'p', 't']",0,"[0.6157846969726961, 0.7678697389783338, 0.8878593879926484, 1.0079133849940263, 1.1437877179996576]",142.36135517401271,None,142.3572953207069,None,,,,,,,,,,,,p01_pat_03042022,001,2022_Mar_04_1519,test_typingtask_norepeats,2020.2.10,116.60979277559161,
about,about,,,,,0,4,4,4,,,,,,,,147.86365688600927,None,"['a', 'b', 'o', 'u', 't']",1,"[0.6015633099887054, 0.7855717340135016, 0.8975891029986087, 0.9695317790028639, 1.02546789200278]",147.86365688600927,None,147.85745268570025,147.95777165700565,,,,,,,,,,,,p01_pat_03042022,001,2022_Mar_04_1519,test_typingtask_norepeats,2020.2.10,116.60979277559161,
isvar,isvar,,,,,0,5,5,5,,,,,,,,153.3697581870074,None,"['i', 's', 'v', 'a', 'r']",1,"[0.7274669950129464, 0.8234709020180162, 1.0555012880067807, 1.1754844920069445, 1.27938580699265]",153.3697581870074,None,153.3647278027085,153.46579307800857,,,,,,,,,,,,p01_pat_03042022,001,2022_Mar_04_1519,test_typingtask_norepeats,2020.2.10,116.60979277559161,
think,think,,,,,0,6,6,6,,,,,,,,158.86681534399395,None,"['t', 'h', 'i', 'n', 'k']",1,"[0.6463922869879752, 0.7104297539917752, 0.7904118679871317, 0.9023622990061995, 0.9983237499836832]",158.86681534399395,None,158.86186948269022,None,,,,,,,,,,,,p01_pat_03042022,001,2022_Mar_04_1519,test_typingtask_norepeats,2020.2.10,116.60979277559161,
cooed,cooed,,,,,0,7,7,7,,,,,,,,164.38446111499798,None,"['c', 'o', 'o', 'e', 'd']",1,"[0.6167743300029542, 0.7527796510257758, 0.9367765770002734, 1.024729823024245, 1.1927542530174833]",164.38446111499798,None,164.37957933369324,None,,,,,,,,,,,,p01_pat_03042022,001,2022_Mar_04_1519,test_typingtask_norepeats,2020.2.10,116.60979277559161,
cheer,cheer,,,,,0,8,8,8,,,,,,,,169.8834465050022,None,"['c', 'h', 'e', 'e', 'r']",1,"[0.5977827429887839, 0.6936898679996375, 0.7978001529991161, 1.0057343980006408, 1.037787812994793]",169.8834465050022,None,169.87953236869652,None,,,,,,,,,,,,p01_pat_03042022,001,2022_Mar_04_1519,test_typingtask_norepeats,2020.2.10,116.60979277559161,
champ,champ,,,,,0,9,9,9,,,,,,,,175.3924181360053,None,"['c', 'h', 'a', 'm', 'p']",1,"[0.6808108410041314, 0.8008465210150462, 0.93684352299897, 1.0487173290166538, 1.1208518450148404]",175.3924181360053,None,175.3880033437046,None,,,,,,,,,,,,p01_pat_03042022,001,2022_Mar_04_1519,test_typingtask_norepeats,2020.2.10,116.60979277559161,
vodka,vodka,,,,,0,10,10,10,,,,,,,,180.89182811099454,None,"['v', 'o', 'd', 'k', 'a']",1,"[0.7013784479931928, 0.8534140279807616, 0.9813819149858318, 1.2693874909891747, 1.3654043739952613]",180.89182811099454,None,180.88767561370622,None,,,,,,,,,,,,p01_pat_03042022,001,2022_Mar_04_1519,test_typingtask_norepeats,2020.2.10,116.60979277559161,
champ,champ,,,,,0,11,11,11,,,,,,,,186.392366117012,None,"['c', 'h', 'a', 'm', 'p']",1,"[0.6088360830035526, 0.744861568993656, 0.8648943379812408, 0.9928309969836846, 1.0888626709929667]",186.392366117012,None,186.3878444527101,None,,,,,,,,,,,,p01_pat_03042022,001,2022_Mar_04_1519,test_typingtask_norepeats,2020.2.10,116.60979277559161,
about,about,,,,,0,12,12,12,,,,,,,,191.90306979499292,None,"['a', 'b', 'o', 'u', 't']",1,"[0.554195284988964, 0.6901306050131097, 0.8020751450094394, 0.9060698089888319, 0.9541859150049277]",191.90306979499292,None,191.8986160247179,None,,,,,,,,,,,,p01_pat_03042022,001,2022_Mar_04_1519,test_typingtask_norepeats,2020.2.10,116.60979277559161,
faqir,faqir,,,,,0,13,13,13,,,,,,,,197.40942830601125,None,"['f', 'a', 'i', 'r']",0,"[0.8718058259983081, 0.9197466199984774, 1.3678343979991041, 1.4397219370002858]",197.40942830601125,None,197.40304592570754,197.50342242399347,,,,,,,,,,,,p01_pat_03042022,001,2022_Mar_04_1519,test_typingtask_norepeats,2020.2.10,116.60979277559161,
isvar,isvar,,,,,0,14,14,14,,,,,,,,202.9077224410139,None,"['i', 's', 'v', 'a', 'r']",1,"[0.6695233560167253, 0.7494824020250235, 0.9254998340038583, 1.013548406015616, 1.1335313170275185]",202.9077224410139,None,202.90276851169182,203.00201398099307,,,,,,,,,,,,p01_pat_03042022,001,2022_Mar_04_1519,test_typingtask_norepeats,2020.2.10,116.60979277559161,
vodka,vodka,,,,,0,15,15,15,,,,,,,,208.4034914530057,None,"['v', 'o', 'd', 'k', 'a']",1,"[0.5977295850170776, 0.7576659400074277, 0.8617796110047493, 1.1417426550178789, 1.2297219830215909]",208.4034914530057,None,208.40049626671242,None,,,,,,,,,,,,p01_pat_03042022,001,2022_Mar_04_1519,test_typingtask_norepeats,2020.2.10,116.60979277559161,
druze,druze,,,,,0,16,16,16,,,,,,,,213.91645417700056,None,"['d', 'r', 'u', 'z', 'e']",1,"[0.6366937819984742, 0.8846981559763663, 1.0368025169882458, 1.1887552169791888, 1.2847428909735754]",213.91645417700056,None,213.91088270671315,214.0111407939985,,,,,,,,,,,,p01_pat_03042022,001,2022_Mar_04_1519,test_typingtask_norepeats,2020.2.10,116.60979277559161,
would,would,,,,,0,17,17,17,,,,,,,,219.4173139120103,None,"['w', 'o', 'u', 'l', 'd']",1,"[0.6238544619991444, 0.7359309480234515, 0.9759735300031025, 1.1198114739963785, 1.2799383060191758]",219.4173139120103,None,219.41307751370476,None,,,,,,,,,,,,p01_pat_03042022,001,2022_Mar_04_1519,test_typingtask_norepeats,2020.2.10,116.60979277559161,
buddy,buddy,,,,,0,18,18,18,,,,,,,,224.9239077590173,None,"['b', 'u', 'd', 'd', 'y']",1,"[0.6212323810032103, 0.7733161500073038, 0.8373389260086697, 0.9813783880090341, 1.1892352759896312]",224.9239077590173,None,224.91897206871653,225.01846579799894,,,,,,,,,,,,p01_pat_03042022,001,2022_Mar_04_1519,test_typingtask_norepeats,2020.2.10,116.60979277559161,
kremp,kremp,,,,,0,19,19,19,,,,,,,,230.433557929995,None,"['k', 'r', 'e', 'm', 'p']",1,"[0.6796701079874765, 0.8155620839970652, 0.855679186002817, 0.9995893409941345, 1.0796537209826056]",230.433557929995,None,230.4297708787082,None,,,,,,,,,,,,p01_pat_03042022,001,2022_Mar_04_1519,test_typingtask_norepeats,2020.2.10,116.60979277559161,
cooed,cooed,,,,,0,20,20,20,,,,,,,,235.9343129589979,None,"['c', 'o', 'o', 'e', 'd']",1,"[0.6189111749990843, 0.7548839999944903, 0.9149091680010315, 1.0989088799979072, 1.2668514480174053]",235.9343129589979,None,235.93007711570243,None,,,,,,,,,,,,p01_pat_03042022,001,2022_Mar_04_1519,test_typingtask_norepeats,2020.2.10,116.60979277559161,
champ,champ,,,,,0,21,21,21,,,,,,,,241.4414225750079,None,"['c', 'h', 'a', 'm', 'p']",1,"[0.5997702580061741, 0.7517326149973087, 0.8798525629972573, 0.9917257699999027, 1.0317095729988068]",241.4414225750079,None,241.4364101166895,None,,,,,,,,,,,,p01_pat_03042022,001,2022_Mar_04_1519,test_typingtask_norepeats,2020.2.10,116.60979277559161,
haole,haole,,,,,0,22,22,22,,,,,,,,246.93950569201843,None,"['h', 'a', 'o', 'l', 'e']",1,"[0.7176558059873059, 0.9015987369930372, 1.1976371759956237, 1.413619551982265, 1.5097132340015378]",246.93950569201843,None,246.93612412071087,None,,,,,,,,,,,,p01_pat_03042022,001,2022_Mar_04_1519,test_typingtask_norepeats,2020.2.10,116.60979277559161,
think,think,,,,,0,23,23,23,,,,,,,,252.45424678799463,None,"['t', 'h', 'i', 'n', 'k']",1,"[0.6349612000049092, 0.6908434290089644, 0.8028310569934547, 0.9148910559888463, 1.0189040229888633]",252.45424678799463,None,252.45126346369506,None,,,,,,,,,,,,p01_pat_03042022,001,2022_Mar_04_1519,test_typingtask_norepeats,2020.2.10,116.60979277559161,
about,about,,,,,0,24,24,24,,,,,,,,257.9573659489979,None,"['a', 'b', 'o', 'u', 't']",1,"[0.5478968620009255, 0.7158976810169406, 0.8038346050016116, 0.8918353510089219, 1.0118967019952834]",257.9573659489979,None,257.95180437869857,None,,,,,,,,,,,,p01_pat_03042022,001,2022_Mar_04_1519,test_typingtask_norepeats,2020.2.10,116.60979277559161,
faqir,faqir,,,,,0,25,25,25,,,,,,,,263.46449680201476,None,"['f', 'a', 'q', 'i', 'r']",1,"[0.8167249640100636, 0.8727485999988858, 1.080640008993214, 1.5126612760068383, 1.5927824630052783]",263.46449680201476,None,263.45986554371774,263.5600628530083,,,,,,,,,,,,p01_pat_03042022,001,2022_Mar_04_1519,test_typingtask_norepeats,2020.2.10,116.60979277559161,
puppy,puppy,,,,,0,26,26,26,,,,,,,,268.97485946901725,None,"['p', 'u', 'p', 'p', 'y']",1,"[0.6422973630251363, 0.8343825199990533, 0.9222753920184914, 1.066325299005257, 1.162390885001514]",268.97485946901725,None,268.9699726776918,269.0687466500094,,,,,,,,,,,,p01_pat_03042022,001,2022_Mar_04_1519,test_typingtask_norepeats,2020.2.10,116.60979277559161,
lucky,lucky,,,,,0,27,27,27,,,,,,,,274.47511255799327,None,"['l', 'u', 'c', 'k', 'y']",1,"[0.6461281870142557, 0.8221569480083417, 0.9500373680202756, 1.0380444020265713, 1.2780886859982274]",274.47511255799327,None,274.47009994370745,274.56895074099884,,,,,,,,,,,,p01_pat_03042022,001,2022_Mar_04_1519,test_typingtask_norepeats,2020.2.10,116.60979277559161,
buddy,buddy,,,,,0,28,28,28,,,,,,,,279.9786372510134,None,"['b', 'u', 'd', 'd', 'y']",1,"[0.6465388840006199, 0.7745689060247969, 0.838627595017897, 0.9985717399977148, 1.1905472470098175]",279.9786372510134,None,279.97325435369856,280.0744567119982,,,,,,,,,,,,p01_pat_03042022,001,2022_Mar_04_1519,test_typingtask_norepeats,2020.2.10,116.60979277559161,
therm,therm,,,,,0,29,29,29,,,,,,,,285.4851411379932,None,"['t', 'h', 'e', 'r', 'm']",1,"[0.6521104340208694, 0.7719902860117145, 0.8600819350103848, 0.9320880580053199, 1.052111524011707]",285.4851411379932,None,285.4803869117051,None,,,,,,,,,,,,p01_pat_03042022,001,2022_Mar_04_1519,test_typingtask_norepeats,2020.2.10,116.60979277559161,
would,would,,,,,0,30,30,30,,,,,,,,290.9847620759974,None,"['w', 'o', 'u', 'l', 'd']",1,"[0.5844797909958288, 0.6644253199920058, 0.7285229619883467, 0.8883985459979158, 0.9524516519741155]",290.9847620759974,None,290.98042686069965,291.0799685270176,,,,,,,,,,,,p01_pat_03042022,001,2022_Mar_04_1519,test_typingtask_norepeats,2020.2.10,116.60979277559161,
theme,theme,,,,,0,31,31,31,,,,,,,,296.4898777079943,None,"['t', 'h', 'e', 'm', 'e']",1,"[0.6233673919923604, 0.7192760049947537, 0.7913484949967824, 0.9353675799793564, 0.9913480159884784]",296.4898777079943,None,296.48483698470517,296.58363365000696,,,,,,,,,,,,p01_pat_03042022,001,2022_Mar_04_1519,test_typingtask_norepeats,2020.2.10,116.60979277559161,
pykka,pykka,,,,,0,32,32,32,,,,,,,,301.9904929860204,None,"['p', 'y', 'k', 'k', 'a']",1,"[0.6828464779828209, 1.186773296998581, 1.3467524469888303, 1.5227530630072579, 1.6107696859980933]",301.9904929860204,None,301.9865268976893,None,,,,,,,,,,,,p01_pat_03042022,001,2022_Mar_04_1519,test_typingtask_norepeats,2020.2.10,116.60979277559161,
puppy,puppy,,,,,0,33,33,33,,,,,,,,307.49301745701814,None,"['p', 'u', 'p', 'p', 'y']",1,"[0.652207669976633, 0.8682083519815933, 1.0442209279863164, 1.2282477959815878, 1.3961193489958532]",307.49301745701814,None,307.48898552269674,None,,,,,,,,,,,,p01_pat_03042022,001,2022_Mar_04_1519,test_typingtask_norepeats,2020.2.10,116.60979277559161,
haole,haole,,,,,0,34,34,34,,,,,,,,313.0042203190096,None,"['h', 'a', 'o', 'l', 'e']",1,"[0.6690279699978419, 0.8050395449972712, 0.9250017940066755, 1.1170318869990297, 1.2289956640161108]",313.0042203190096,None,313.002013738692,None,,,,,,,,,,,,p01_pat_03042022,001,2022_Mar_04_1519,test_typingtask_norepeats,2020.2.10,116.60979277559161,
puppy,puppy,,,,,0,35,35,35,,,,,,,,318.5106332199939,None,"['p', 'u', 'p', 'p', 'y']",1,"[0.5626020479830913, 0.7065134199801832, 0.8106334740004968, 1.0986345899873413, 1.2505603799945675]",318.5106332199939,None,318.50629574970225,None,,,,,,,,,,,,p01_pat_03042022,001,2022_Mar_04_1519,test_typingtask_norepeats,2020.2.10,116.60979277559161,
there,there,,,,,0,36,36,36,,,,,,,,324.01048274702043,None,"['t', 'h', 'e', 'r', 'e']",1,"[0.6387491550121922, 0.7347675480123144, 0.7986570580105763, 0.9187918360112235, 1.014674425998237]",324.01048274702043,None,324.00692493970854,None,,,,,,,,,,,,p01_pat_03042022,001,2022_Mar_04_1519,test_typingtask_norepeats,2020.2.10,116.60979277559161,
puppy,puppy,,,,,0,37,37,37,,,,,,,,329.51329082099255,None,"['p', 'u', 'p', 'p', 'y']",1,"[0.5598599970107898, 0.751933691004524, 0.8639030510094017, 0.9919316910090856, 1.183901693992084]",329.51329082099255,None,329.50922092770924,329.60884421199444,,,,,,,,,,,,p01_pat_03042022,001,2022_Mar_04_1519,test_typingtask_norepeats,2020.2.10,116.60979277559161,
vodka,vodka,,,,,0,38,38,38,,,,,,,,335.0094360499934,None,"['v', 'o', 'd', 'k', 'a']",1,"[0.6478811760025565, 0.7437902390083764, 0.8397784770058934, 1.0797813370008953, 1.1678260600019712]",335.0094360499934,None,335.0055485697114,None,,,,,,,,,,,,p01_pat_03042022,001,2022_Mar_04_1519,test_typingtask_norepeats,2020.2.10,116.60979277559161,
lucky,lucky,,,,,0,39,39,39,,,,,,,,340.5115750640107,None,"['l', 'u', 'k', 'c', 'y']",0,"[0.6257021039782558, 0.8336937169951852, 1.0336916619853582, 1.1536627470050007, 1.4655781719775405]",340.5115750640107,None,340.50739479069597,None,,,,,,,,,,,,p01_pat_03042022,001,2022_Mar_04_1519,test_typingtask_norepeats,2020.2.10,116.60979277559161,
tithe,tithe,,,,,0,40,40,40,,,,,,,,346.020752048993,None,"['t', 'i', 't', 'h', 'e']",1,"[0.7883764060097747, 0.9004595339938533, 0.9884935029840562, 1.2364899019885343, 1.3083855519944336]",346.020752048993,None,346.0179270616965,None,,,,,,,,,,,,p01_pat_03042022,001,2022_Mar_04_1519,test_typingtask_norepeats,2020.2.10,116.60979277559161,
champ,champ,,,,,0,41,41,41,,,,,,,,351.5199992679991,None,"['c', 'h', 'a', 'm', 'p']",1,"[0.6331972070038319, 0.7452008109830786, 0.8572668209963012, 0.9771668339963071, 1.033202224993147]",351.5199992679991,None,351.5151232207019,351.6148219110037,,,,,,,,,,,,p01_pat_03042022,001,2022_Mar_04_1519,test_typingtask_norepeats,2020.2.10,116.60979277559161,
heond,heond,,,,,0,42,42,42,,,,,,,,357.0200024539954,None,"['h', 'e', 'o', 'n', 'd']",1,"[0.6371339570032433, 0.7572648960049264, 0.8611586379993241, 1.1731820779968984, 1.2932619079947472]",357.0200024539954,None,357.01737644871463,None,,,,,,,,,,,,p01_pat_03042022,001,2022_Mar_04_1519,test_typingtask_norepeats,2020.2.10,116.60979277559161,
belly,belly,,,,,0,43,43,43,,,,,,,,362.5399876770098,None,"['b', 'e', 'l', 'l', 'y']",1,"[0.6691789629985578, 0.8132393060077447, 0.9251618330017664, 1.0771545720053837, 1.2211551900254562]",362.5399876770098,None,362.5343344606983,362.6343636950187,,,,,,,,,,,,p01_pat_03042022,001,2022_Mar_04_1519,test_typingtask_norepeats,2020.2.10,116.60979277559161,
buddy,buddy,,,,,0,44,44,44,,,,,,,,368.0326907080016,None,"['b', 'u', 'd', 'd', 'y']",1,"[0.6485178279981483, 0.7845279180037323, 0.8725247450056486, 1.0085732880106661, 1.2006020770058967]",368.0326907080016,None,368.0286405476974,None,,,,,,,,,,,,p01_pat_03042022,001,2022_Mar_04_1519,test_typingtask_norepeats,2020.2.10,116.60979277559161,
theme,theme,,,,,0,45,45,45,,,,,,,,373.53748983499827,None,"['t', 'h', 'e', 'm', 'e']",1,"[0.6556930049846414, 0.7357566989958286, 0.8477464269963093, 0.9677065779978875, 1.0317034649779089]",373.53748983499827,None,373.53463782671605,None,,,,,,,,,,,,p01_pat_03042022,001,2022_Mar_04_1519,test_typingtask_norepeats,2020.2.10,116.60979277559161,
haole,haole,,,,,0,46,46,46,,,,,,,,379.04408462301944,None,"['h', 'a', 'o', 'l', 'e']",1,"[0.7171035540231969, 0.877062517014565, 1.0211485880136024, 1.2211525769962464, 1.3091276780178305]",379.04408462301944,None,379.0398238226946,None,,,,,,,,,,,,p01_pat_03042022,001,2022_Mar_04_1519,test_typingtask_norepeats,2020.2.10,116.60979277559161,
buddy,buddy,,,,,0,47,47,47,,,,,,,,384.55263815200306,None,"['b', 'u', 'd', 'd', 'y']",1,"[0.6565968290087767, 0.7606086599989794, 0.8405039979843423, 1.0006249559810385, 1.1925096979830414]",384.55263815200306,None,384.5484310217027,384.6485000520188,,,,,,,,,,,,p01_pat_03042022,001,2022_Mar_04_1519,test_typingtask_norepeats,2020.2.10,116.60979277559161,
haole,haole,,,,,0,48,48,48,,,,,,,,390.056659237016,None,"['h', 'a', 'o', 'l', 'e']",1,"[0.7365961920004338, 0.8565766569809057, 1.080579345987644, 1.2727246609865688, 1.3364716100040823]",390.056659237016,None,390.05261914669535,None,,,,,,,,,,,,p01_pat_03042022,001,2022_Mar_04_1519,test_typingtask_norepeats,2020.2.10,116.60979277559161,
edthe,edthe,,,,,0,49,49,49,,,,,,,,395.564126295998,None,"['e', 'd', 't', 'h', 'e']",1,"[0.644982683006674, 0.8370167590037454, 1.0850622160069179, 1.19706251801108, 1.3091180470073596]",395.564126295998,None,395.5611723977083,None,,,,,,,,,,,,p01_pat_03042022,001,2022_Mar_04_1519,test_typingtask_norepeats,2020.2.10,116.60979277559161,
pykka,pykka,,,,,0,50,50,50,,,,,,,,401.06686956001795,None,"['p', 'y', 'k', 'k', 'a']",1,"[0.6863537530007306, 0.9263561179977842, 1.070285779016558, 1.2223842430103105, 1.286324456013972]",401.06686956001795,None,401.0620981716958,None,,,,,,,,,,,,p01_pat_03042022,001,2022_Mar_04_1519,test_typingtask_norepeats,2020.2.10,116.60979277559161,
theme,theme,,,,,0,51,51,51,,,,,,,,406.5755085290002,None,"['t', 'h', 'e', 'm', 'e']",1,"[0.6176968410145491, 0.6976271719904616, 0.7777511790045537, 0.9217066729906946, 0.9857087609998416]",406.5755085290002,None,406.5704180046916,406.6688812340144,,,,,,,,,,,,p01_pat_03042022,001,2022_Mar_04_1519,test_typingtask_norepeats,2020.2.10,116.60979277559161,
cheer,cheer,,,,,0,52,52,52,,,,,,,,412.08325366600184,None,"['c', 'h', 'e', 'e', 'r']",1,"[0.5899362879863475, 0.7260000289825257, 0.8138642189733218, 0.9819557069859002, 1.037927358993329]",412.08325366600184,None,412.07908641670946,None,,,,,,,,,,,,p01_pat_03042022,001,2022_Mar_04_1519,test_typingtask_norepeats,2020.2.10,116.60979277559161,
tithe,tithe,,,,,0,53,53,53,,,,,,,,417.5787421929999,None,"['t', 'i', 't', 'h', 'e']",1,"[0.7585047800093889, 0.9264362730027642, 0.9984939749992918, 1.2384698409878183, 1.350519408006221]",417.5787421929999,None,417.57422752269775,None,,,,,,,,,,,,p01_pat_03042022,001,2022_Mar_04_1519,test_typingtask_norepeats,2020.2.10,116.60979277559161,
therm,therm,,,,,0,54,54,54,,,,,,,,423.0830667419941,None,"['t', 'h', 'e', 'r', 'm']",1,"[0.6782005080021918, 0.8061903229972813, 0.9101975469966419, 0.9821534010116011, 1.0781207040126901]",423.0830667419941,None,423.07939845770596,None,,,,,,,,,,,,p01_pat_03042022,001,2022_Mar_04_1519,test_typingtask_norepeats,2020.2.10,116.60979277559161,
about,about,,,,,0,55,55,55,,,,,,,,428.58682698901976,None,"['a', 'b', 'o', 'u', 't']",1,"[0.4943206280004233, 0.6464599120081402, 0.7344420790032018, 0.7904221160279121, 0.8784012010146398]",428.58682698901976,None,428.5817513087124,428.6823940030008,,,,,,,,,,,,p01_pat_03042022,001,2022_Mar_04_1519,test_typingtask_norepeats,2020.2.10,116.60979277559161,
would,would,,,,,0,56,56,56,,,,,,,,434.0947589300049,None,"['w', 'o', 'u', 'l', 'd']",1,"[0.6184954369964544, 0.6905035719973966, 0.7464879789913539, 0.91446209300193, 0.9943976259964984]",434.0947589300049,None,434.0903389107145,434.1912986969983,,,,,,,,,,,,p01_pat_03042022,001,2022_Mar_04_1519,test_typingtask_norepeats,2020.2.10,116.60979277559161,
heond,heond,,,,,0,57,57,57,,,,,,,,439.59601370600285,None,"['h', 'e', 'o', 'd', 'n']",0,"[0.7171509879990481, 0.82923117899918, 0.965220573998522, 1.2291174279816914, 1.3331942429940682]",439.59601370600285,None,439.59197885169414,None,,,,,,,,,,,,p01_pat_03042022,001,2022_Mar_04_1519,test_typingtask_norepeats,2020.2.10,116.60979277559161,
champ,champ,,,,,0,58,58,58,,,,,,,,445.1048213360191,None,"['c', 'h', 'a', 'm', 'p']",1,"[0.6883997869736049, 0.7843082949984819, 0.9044518629962113, 1.0164103009738028, 1.064443103998201]",445.1048213360191,None,445.10154990769223,445.20058982699993,,,,,,,,,,,,p01_pat_03042022,001,2022_Mar_04_1519,test_typingtask_norepeats,2020.2.10,116.60979277559161,
zibja,zibja,,,,,0,59,59,59,,,,,,,,450.60976249800297,None,"['z', 'i', 'b', 'j', 'a']",1,"[0.695480927999597, 0.8474031850055326, 1.0074394099938218, 1.1913871970027685, 1.3035667990043294]",450.60976249800297,None,450.60439152769976,450.7042737349984,,,,,,,,,,,,p01_pat_03042022,001,2022_Mar_04_1519,test_typingtask_norepeats,2020.2.10,116.60979277559161,
would,would,,,,,0,60,60,60,,,,,,,,456.11395594401984,None,"['w', 'o', 'u', 'l', 'd']",1,"[0.607287393999286, 0.6872792990179732, 0.7511791800206993, 0.903282921994105, 0.9992806590162218]",456.11395594401984,None,456.1091495737084,456.20877561400994,,,,,,,,,,,,p01_pat_03042022,001,2022_Mar_04_1519,test_typingtask_norepeats,2020.2.10,116.60979277559161,
haole,haole,,,,,0,61,61,61,,,,,,,,461.6238344820158,None,"['h', 'a', 'o', 'l', 'e']",1,"[0.6893080940062646, 0.7772977669956163, 0.9134225720190443, 1.1213090460223611, 1.2093803920142818]",461.6238344820158,None,461.6195501957147,None,,,,,,,,,,,,p01_pat_03042022,001,2022_Mar_04_1519,test_typingtask_norepeats,2020.2.10,116.60979277559161,
druze,druze,,,,,0,62,62,62,,,,,,,,467.1246240430046,None,"['d', 'r', 'u', 'z', 'e']",1,"[0.6525211889820639, 1.0206001719925553, 1.1566158820060082, 1.3806265000021085, 1.5085182570037432]",467.1246240430046,None,467.11968100570374,467.21877826499986,,,,,,,,,,,,p01_pat_03042022,001,2022_Mar_04_1519,test_typingtask_norepeats,2020.2.10,116.60979277559161,
pykka,pykka,,,,,0,63,63,63,,,,,,,,472.62977302400395,None,"['p', 'y', 'k', 'k', 'a']",1,"[0.6115293740003835, 0.8193564440007322, 0.947367128013866, 1.0754918590246234, 1.1713967210089322]",472.62977302400395,None,472.62631565171176,None,,,,,,,,,,,,p01_pat_03042022,001,2022_Mar_04_1519,test_typingtask_norepeats,2020.2.10,116.60979277559161,
cheer,cheer,,,,,0,64,64,64,,,,,,,,478.13400123201427,None,"['c', 'h', 'e', 'e', 'r']",1,"[0.6271735109912697, 0.7472444089944474, 0.851254651992349, 1.0192927210009657, 1.067191581998486]",478.13400123201427,None,478.1303233936953,None,,,,,,,,,,,,p01_pat_03042022,001,2022_Mar_04_1519,test_typingtask_norepeats,2020.2.10,116.60979277559161,
isvar,isvar,,,,,0,65,65,65,,,,,,,,483.6354653290182,None,"['i', 's', 'v', 'a', 'r']",1,"[0.6297495820035692, 0.6857618479989469, 0.8777971949893981, 0.9817496329778805, 1.1097079869941808]",483.6354653290182,None,483.62937926770536,483.7300835289934,,,,,,,,,,,,p01_pat_03042022,001,2022_Mar_04_1519,test_typingtask_norepeats,2020.2.10,116.60979277559161,
there,there,,,,,0,66,66,66,,,,,,,,489.14015766300145,None,"['t', 'h', 'e', 'r', 'e']",1,"[0.5810898269992322, 0.677016089000972, 0.7250845749804284, 0.8611211449897382, 0.9330910290009342]",489.14015766300145,None,489.13564402271294,None,,,,,,,,,,,,p01_pat_03042022,001,2022_Mar_04_1519,test_typingtask_norepeats,2020.2.10,116.60979277559161,
heond,heond,,,,,0,67,67,67,,,,,,,,494.64229083200917,None,"['h', 'e', 'o', 'n', 'd']",1,"[0.6869606449909043, 0.7749543009849731, 0.9108990110107698, 1.0069156319950707, 1.102982806012733]",494.64229083200917,None,494.63864535269676,None,,,,,,,,,,,,p01_pat_03042022,001,2022_Mar_04_1519,test_typingtask_norepeats,2020.2.10,116.60979277559161,
cooed,cooed,,,,,0,68,68,68,,,,,,,,500.145722804009,None,"['c', 'o', 'o', 'e', 'd']",1,"[0.5995042949798517, 0.735403172991937, 0.8955050109943841, 1.023460227996111, 1.1915237189969048]",500.145722804009,None,500.1423551977088,None,,,,,,,,,,,,p01_pat_03042022,001,2022_Mar_04_1519,test_typingtask_norepeats,2020.2.10,116.60979277559161,
lucky,lucky,,,,,0,69,69,69,,,,,,,,505.6595328830008,None,"['l', 'u', 'c', 'k', 'y']",1,"[0.5576010000077076, 0.765730594022898, 0.9177030630235095, 0.9896990730194375, 1.2137461100064684]",505.6595328830008,None,505.6553200126975,None,,,,,,,,,,,,p01_pat_03042022,001,2022_Mar_04_1519,test_typingtask_norepeats,2020.2.10,116.60979277559161,
belly,belly,,,,,0,70,70,70,,,,,,,,511.158777973993,None,"['b', 'e', 'l', 'l', 'y']",1,"[0.6824712380184792, 0.8104371040244587, 0.9384587550011929, 1.1064708250050899, 1.2023708549968433]",511.158777973993,None,511.15372860869974,None,,,,,,,,,,,,p01_pat_03042022,001,2022_Mar_04_1519,test_typingtask_norepeats,2020.2.10,116.60979277559161,
faqir,faqir,,,,,0,71,71,71,,,,,,,,516.6697798760142,None,"['f', 'a', 'q', 'i', 'r']",1,"[0.6834815330221318, 0.7634785030095372, 1.1874473250063602, 1.5953726670122705, 1.6994690120045561]",516.6697798760142,None,516.6643956217042,516.7652974069933,,,,,,,,,,,,p01_pat_03042022,001,2022_Mar_04_1519,test_typingtask_norepeats,2020.2.10,116.60979277559161,
isvar,isvar,,,,,0,72,72,72,,,,,,,,522.1761388610175,None,"['i', 's', 'v', 'a', 'r']",1,"[0.6490911460132338, 0.7212385640013963, 0.864998919016216, 0.9450748630042654, 1.0650583780079614]",522.1761388610175,None,522.1709374427039,522.2699525800126,,,,,,,,,,,,p01_pat_03042022,001,2022_Mar_04_1519,test_typingtask_norepeats,2020.2.10,116.60979277559161,
there,there,,,,,0,73,73,73,,,,,,,,527.6779701650084,None,"['t', 'h', 'e', 'r', 'e']",1,"[0.6192650099983439, 0.7072665860177949, 0.7551792620215565, 0.8591973360162228, 0.9471701870206743]",527.6779701650084,None,527.6743576287001,527.7774910140142,,,,,,,,,,,,p01_pat_03042022,001,2022_Mar_04_1519,test_typingtask_norepeats,2020.2.10,116.60979277559161,
tithe,tithe,,,,,0,74,74,74,,,,,,,,533.1806636500114,None,"['t', 'h', 't', 'h', 'e']",0,"[0.5644689120235853, 0.6764945170143619, 0.7645100140071008, 1.1485641690087505, 1.2205745240207762]",533.1806636500114,None,533.1765277357074,533.2772948880156,,,,,,,,,,,,p01_pat_03042022,001,2022_Mar_04_1519,test_typingtask_norepeats,2020.2.10,116.60979277559161,
kremp,kremp,,,,,0,75,75,75,,,,,,,,538.6872014190012,None,"['k', 'r', 'e', 'm', 'p']",1,"[0.7620100399944931, 0.850007478002226, 0.9220293469843455, 1.057995224982733, 1.1619393569999374]",538.6872014190012,None,538.6844351097127,None,,,,,,,,,,,,p01_pat_03042022,001,2022_Mar_04_1519,test_typingtask_norepeats,2020.2.10,116.60979277559161,
there,there,,,,,0,76,76,76,,,,,,,,544.1958372750087,None,"['t', 'h', 'e', 'r', 'e']",1,"[0.5813773199915886, 0.7013317579985596, 0.7413017269864213, 0.8293754539918154, 0.909406703984132]",544.1958372750087,None,544.1917240427167,None,,,,,,,,,,,,p01_pat_03042022,001,2022_Mar_04_1519,test_typingtask_norepeats,2020.2.10,116.60979277559161,
kremp,kremp,,,,,0,77,77,77,,,,,,,,549.6970992620045,None,"['k', 'r', 'e', 'm', 'p']",1,"[0.8001260129967704, 0.8961232079891488, 0.9520568889856804, 1.0961295559827704, 1.192028563003987]",549.6970992620045,None,549.6930927006936,549.7931122620066,,,,,,,,,,,,p01_pat_03042022,001,2022_Mar_04_1519,test_typingtask_norepeats,2020.2.10,116.60979277559161,
zibja,zibja,,,,,0,78,78,78,,,,,,,,555.2004835260159,None,"['z', 'i', 'b', 'j', 'a']",1,"[0.6647521509730723, 0.8086480139754713, 0.9527795929752756, 1.120685665984638, 1.2247658999986015]",555.2004835260159,None,555.1952640907141,555.2964454920148,,,,,,,,,,,,p01_pat_03042022,001,2022_Mar_04_1519,test_typingtask_norepeats,2020.2.10,116.60979277559161,
pykka,pykka,,,,,0,79,79,79,,,,,,,,560.702546621993,None,"['p', 'y', 'k', 'k', 'a']",1,"[0.6427201490150765, 1.0506807630008552, 1.1867797330196481, 1.338594569999259, 1.4347014439990744]",560.702546621993,None,560.6974295587163,None,,,,,,,,,,,,p01_pat_03042022,001,2022_Mar_04_1519,test_typingtask_norepeats,2020.2.10,116.60979277559161,
think,think,,,,,0,80,80,80,,,,,,,,566.2080566740187,None,"['t', 'h', 'n', 'i', 'n', 'k']",0,"[0.665175091009587, 0.7450931140047032, 0.9851846940000542, 1.065080828993814, 1.27316590299597, 1.4172010390029754]",566.2080566740187,None,566.203320311691,566.3038513710198,,,,,,,,,,,,p01_pat_03042022,001,2022_Mar_04_1519,test_typingtask_norepeats,2020.2.10,116.60979277559161,
theme,theme,,,,,0,81,81,81,,,,,,,,571.7081183400005,None,"['t', 'h', 'e', 'm', 'e']",1,"[0.6051233669859357, 0.6931677440006752, 0.7731071479793172, 0.9091588860028423, 0.9891944909759331]",571.7081183400005,None,571.7037403207098,571.8025721570011,,,,,,,,,,,,p01_pat_03042022,001,2022_Mar_04_1519,test_typingtask_norepeats,2020.2.10,116.60979277559161,
cooed,cooed,,,,,0,82,82,82,,,,,,,,577.2207637910033,None,"['c', 'o', 'o', 'd']",0,"[0.6124024190066848, 0.7484331599844154, 0.9164851779933088, 1.03653961798409]",577.2207637910033,None,577.2177318417118,None,,,,,,,,,,,,p01_pat_03042022,001,2022_Mar_04_1519,test_typingtask_norepeats,2020.2.10,116.60979277559161,
edthe,edthe,,,,,0,83,83,83,,,,,,,,582.7150125059998,None,"['e', 'd', 't', 'h', 'e']",1,"[0.590223941981094, 0.7742341379926074, 0.9501215929922182, 1.0542240520007908, 1.118114536977373]",582.7150125059998,None,582.710848002712,None,,,,,,,,,,,,p01_pat_03042022,001,2022_Mar_04_1519,test_typingtask_norepeats,2020.2.10,116.60979277559161,
isvar,isvar,,,,,0,84,84,84,,,,,,,,588.226825004007,None,"['i', 's', 'v', 'a', 'r']",1,"[0.6143750879855361, 0.6943812629906461, 0.9824325679801404, 1.1744599179946817, 1.2863436529878527]",588.226825004007,None,588.2214131057146,588.3206484380062,,,,,,,,,,,,p01_pat_03042022,001,2022_Mar_04_1519,test_typingtask_norepeats,2020.2.10,116.60979277559161,
druze,druze,,,,,0,85,85,85,,,,,,,,593.728337100998,None,"['d', 'r', 'u', 'z', 'e']",1,"[0.9128999260137789, 1.1047943090088665, 1.2808883720135782, 1.4008945999958087, 1.4568983020144515]",593.728337100998,None,593.7244668996893,None,,,,,,,,,,,,p01_pat_03042022,001,2022_Mar_04_1519,test_typingtask_norepeats,2020.2.10,116.60979277559161,
edthe,edthe,,,,,0,86,86,86,,,,,,,,599.2302884010132,None,"['e', 'd', 't', 'h', 'e']",1,"[0.5709508750005625, 0.7629369059868623, 0.9388306690088939, 1.0268447069975082, 1.0669546030112542]",599.2302884010132,None,599.2265649027133,None,,,,,,,,,,,,p01_pat_03042022,001,2022_Mar_04_1519,test_typingtask_norepeats,2020.2.10,116.60979277559161,
druze,druze,,,,,0,87,87,87,,,,,,,,604.7340643299976,None,"['d', 'r', 'u', 'z', 'e']",1,"[0.6431747479946353, 0.8030573349969927, 0.971202368993545, 1.0591783579729963, 1.115063448989531]",604.7340643299976,None,604.7290732627037,None,,,,,,,,,,,,p01_pat_03042022,001,2022_Mar_04_1519,test_typingtask_norepeats,2020.2.10,116.60979277559161,
zibja,zibja,,,,,0,88,88,88,,,,,,,,610.2425968699972,None,"['z', 'i', 'b', 'j', 'a']",1,"[0.7106485469848849, 0.8865800369821955, 1.0546294829982799, 1.3186020299908705, 1.4306115109939128]",610.2425968699972,None,610.2379063457076,610.3371236310049,,,,,,,,,,,,p01_pat_03042022,001,2022_Mar_04_1519,test_typingtask_norepeats,2020.2.10,116.60979277559161,
edthe,edthe,,,,,0,89,89,89,,,,,,,,615.7421237870003,None,"['e', 'd', 't', 'h', 'e']",1,"[0.5870028189965524, 0.7390870329982135, 0.9071081889851484, 1.003140844986774, 1.0511258939804975]",615.7421237870003,None,615.7382465547009,None,,,,,,,,,,,,p01_pat_03042022,001,2022_Mar_04_1519,test_typingtask_norepeats,2020.2.10,116.60979277559161,
lucky,lucky,,,,,0,90,90,90,,,,,,,,621.2446577270166,None,"['l', 'u', 'c', 'k', 'y']",1,"[0.5725723049836233, 0.7485770859930199, 0.8686020159802865, 0.9565341690031346, 1.148507128993515]",621.2446577270166,None,621.2401744926931,621.341294147016,,,,,,,,,,,,p01_pat_03042022,001,2022_Mar_04_1519,test_typingtask_norepeats,2020.2.10,116.60979277559161,
therm,therm,,,,,0,91,91,91,,,,,,,,626.746738907008,None,"['t', 'h', 'e', 'r', 'm']",1,"[0.646433160000015, 0.7664012059976812, 0.8225601929880213, 0.9024846269749105, 0.9985234229825437]",626.746738907008,None,626.7434536066896,None,,,,,,,,,,,,p01_pat_03042022,001,2022_Mar_04_1519,test_typingtask_norepeats,2020.2.10,116.60979277559161,
buddy,buddy,,,,,0,92,92,92,,,,,,,,632.2474031250167,None,"['b', 'u', 'd', 'd', 'y']",1,"[0.6337256150145549, 0.7697872949938755, 0.8418389589933213, 0.9858220710011665, 1.2178019290149678]",632.2474031250167,None,632.2435118007008,632.3442773180141,,,,,,,,,,,,p01_pat_03042022,001,2022_Mar_04_1519,test_typingtask_norepeats,2020.2.10,116.60979277559161,
therm,therm,,,,,0,93,93,93,,,,,,,,637.759361370001,None,"['t', 'h', 'e', 'r', 'm']",1,"[0.5697776370216161, 0.689867378998315, 0.7379438079951797, 0.8178831360128243, 0.9137786620121915]",637.759361370001,None,637.7546269977058,637.8533761269937,,,,,,,,,,,,p01_pat_03042022,001,2022_Mar_04_1519,test_typingtask_norepeats,2020.2.10,116.60979277559161,
belly,belly,,,,,0,94,94,94,,,,,,,,643.257226902002,None,"['b', 'e', 'l', 'l', 'y']",1,"[0.6240422610135283, 0.7200121570203919, 0.8320165790210012, 1.0000196140026674, 1.080028944008518]",643.257226902002,None,643.252212731709,643.3518871490087,,,,,,,,,,,,p01_pat_03042022,001,2022_Mar_04_1519,test_typingtask_norepeats,2020.2.10,116.60979277559161,
zibja,zibja,,,,,0,95,95,95,,,,,,,,648.7574642719992,None,"['z', 'i', 'b', 'j', 'a']",1,"[0.619737711007474, 0.7718136690091342, 0.9317893970001023, 1.083801022003172, 1.1877460890100338]",648.7574642719992,None,648.7530843076995,648.8522748800169,,,,,,,,,,,,p01_pat_03042022,001,2022_Mar_04_1519,test_typingtask_norepeats,2020.2.10,116.60979277559161,
heond,heond,,,,,0,96,96,96,,,,,,,,654.265067602013,None,"['h', 'e', 'o', 'n', 'd']",1,"[0.728134863980813, 0.792171683977358, 0.9361501399835106, 1.024137966975104, 1.104193546983879]",654.265067602013,None,654.2613081327174,None,,,,,,,,,,,,p01_pat_03042022,001,2022_Mar_04_1519,test_typingtask_norepeats,2020.2.10,116.60979277559161,
there,there,,,,,0,97,97,97,,,,,,,,659.7705745710118,None,"['t', 'h', 'e', 'r', 'e']",1,"[0.5986723769747186, 0.7107097909902222, 0.7506742289988324, 0.8306247529981192, 0.9186950059956871]",659.7705745710118,None,659.7674426736951,None,,,,,,,,,,,,p01_pat_03042022,001,2022_Mar_04_1519,test_typingtask_norepeats,2020.2.10,116.60979277559161,
theme,theme,,,,,0,98,98,98,,,,,,,,665.2751164920046,None,"['t', 'h', 'e', 'm', 'e']",1,"[0.6300614229985513, 0.7501595680078026, 0.8061889890232123, 0.9581339490250684, 1.070132476015715]",665.2751164920046,None,665.2705460837053,665.3700468880124,,,,,,,,,,,,p01_pat_03042022,001,2022_Mar_04_1519,test_typingtask_norepeats,2020.2.10,116.60979277559161,
kremp,kremp,,,,,0,99,99,99,,,,,,,,670.7735582150053,None,"['k', 'e', 'r', 'm', 'p']",0,"[0.7556981570087373, 0.8516980679996777, 0.8837165629956871, 1.003574831993319, 1.299631956993835]",670.7735582150053,None,670.7690039127076,670.8681508729933,,,,,,,,,,,,p01_pat_03042022,001,2022_Mar_04_1519,test_typingtask_norepeats,2020.2.10,116.60979277559161,
edthe,edthe,,,,,0,100,100,100,,,,,,,,676.2801010000112,None,"['e', 'd', 't', 'h', 'e']",1,"[0.6011820169806015, 0.77716896799393, 0.9210914149880409, 1.0411257990053855, 1.0970329699921422]",676.2801010000112,None,676.2759600267048,None,,,,,,,,,,,,p01_pat_03042022,001,2022_Mar_04_1519,test_typingtask_norepeats,2020.2.10,116.60979277559161,
faqir,faqir,,,,,0,101,101,101,,,,,,,,681.7911283220164,None,"['f', 'a', 'q', 'i', 'r']",1,"[0.7221397929824889, 0.8101427639776375, 1.586132511991309, 1.698111188976327, 1.8020772399904672]",681.7911283220164,None,681.7850014247117,681.8864084499946,,,,,,,,,,,,p01_pat_03042022,001,2022_Mar_04_1519,test_typingtask_norepeats,2020.2.10,116.60979277559161,
belly,belly,,,,,0,102,102,102,,,,,,,,687.2966484799981,None,"['b', 'e', 'l', 'l', 'y']",1,"[0.7286177170171868, 0.8244939400174189, 0.9205714010167867, 1.0804731959942728, 1.1445439590024762]",687.2966484799981,None,687.2916575507145,687.394031778007,,,,,,,,,,,,p01_pat_03042022,001,2022_Mar_04_1519,test_typingtask_norepeats,2020.2.10,116.60979277559161,
faqir,faqir,,,,,0,103,103,103,,,,,,,,692.7986315390153,None,"['f', 'a', 'q', 'i', 'r']",1,"[0.5866183679900132, 0.6825883809942752, 0.9386297930032015, 1.0905051779991481, 1.1865599009906873]",692.7986315390153,None,692.7937947327039,692.8958724590193,,,,,,,,,,,,p01_pat_03042022,001,2022_Mar_04_1519,test_typingtask_norepeats,2020.2.10,116.60979277559161,
belly,belly,,,,,0,104,104,104,,,,,,,,698.3081658790179,None,"['b', 'e', 'l', 'l', 'y']",1,"[0.6050608830119018, 0.6770929410122335, 0.813000711001223, 0.9489868709933944, 1.0210238140134607]",698.3081658790179,None,698.3040202087025,698.4031274520094,,,,,,,,,,,,p01_pat_03042022,001,2022_Mar_04_1519,test_typingtask_norepeats,2020.2.10,116.60979277559161,
vodka,vodka,,,,,0,105,105,105,,,,,,,,703.8174819160195,None,"['v', 'backspace', 'v', 'o', 'd', 'k', 'a']",0,"[0.7037024300079793, 1.4876668830111157, 1.7117488110088743, 1.8636469279881567, 1.9517730840016156, 2.559644846012816, 2.607760132988915]",703.8174819160195,None,703.8123992477078,703.9125798270106,,,,,,,,,,,,p01_pat_03042022,001,2022_Mar_04_1519,test_typingtask_norepeats,2020.2.10,116.60979277559161,
druze,druze,,,,,0,106,106,106,,,,,,,,709.3169338089938,None,"['d', 'r', 'u', 'z', 'e']",1,"[0.6443158670153935, 0.8123242070141714, 0.9562973380088806, 1.0761963030090556, 1.1242778169980738]",709.3169338089938,None,709.3121653536975,709.4126057430112,,,,,,,,,,,,p01_pat_03042022,001,2022_Mar_04_1519,test_typingtask_norepeats,2020.2.10,116.60979277559161,
heond,heond,,,,,0,107,107,107,,,,,,,,714.828877382999,None,"['h', 'e', 'd', 'o', 'n']",0,"[0.7243528559920378, 0.8042632570140995, 1.0043594170128927, 1.0763684220146388, 1.156394880003063]",714.828877382999,None,714.8247260966921,None,,,,,,,,,,,,p01_pat_03042022,001,2022_Mar_04_1519,test_typingtask_norepeats,2020.2.10,116.60979277559161,
would,would,,,,,0,108,108,108,,,,,,,,720.3416705040145,None,"['w', 'o', 'u', 'l', 'd']",1,"[0.5955073499935679, 0.6915566329844296, 0.7555715139897075, 0.9074718469928484, 0.9795945699734148]",720.3416705040145,None,720.3370169626899,720.4366788759944,,,,,,,,,,,,p01_pat_03042022,001,2022_Mar_04_1519,test_typingtask_norepeats,2020.2.10,116.60979277559161,
think,think,,,,,0,109,109,109,,,,,,,,725.841766906,None,"['t', 'h', 'i', 'n', 'k']",1,"[0.5755429010023363, 0.639366424002219, 0.7434724619961344, 0.8474323739937972, 0.9594373239960987]",725.841766906,None,725.8368101146946,725.936816410016,,,,,,,,,,,,p01_pat_03042022,001,2022_Mar_04_1519,test_typingtask_norepeats,2020.2.10,116.60979277559161,
cooed,cooed,,,,,0,110,110,110,,,,,,,,731.3501449300093,None,"['c', 'o', 'o', 'e', 'd']",1,"[0.626994372025365, 0.7710715910070576, 0.9390777660009917, 1.0350104100070894, 1.2111241570091806]",731.3501449300093,None,731.3456383927144,731.4490219720174,,,,,,,,,,,,p01_pat_03042022,001,2022_Mar_04_1519,test_typingtask_norepeats,2020.2.10,116.60979277559161,
zibja,zibja,,,,,0,111,111,111,,,,,,,,736.8631358639977,None,"['z', 'i', 'b', 'j', 'a']",1,"[0.6740551920083817, 1.1459701749845408, 1.346094009000808, 1.5381047769915313, 1.6340685309842229]",736.8631358639977,None,736.8581847626949,736.9605304580182,,,,,,,,,,,,p01_pat_03042022,001,2022_Mar_04_1519,test_typingtask_norepeats,2020.2.10,116.60979277559161,
vodka,vodka,,,,,0,112,112,112,,,,,,,,742.3569482089952,None,"['b', 'o', 'd', 'k', 'a']",0,"[0.6843131789937615, 0.8202837530116085, 0.9322989649954252, 1.1482150710071437, 1.236193568998715]",742.3569482089952,None,742.3520809186914,742.4517678930133,,,,,,,,,,,,p01_pat_03042022,001,2022_Mar_04_1519,test_typingtask_norepeats,2020.2.10,116.60979277559161,
tithe,tithe,,,,,0,113,113,113,,,,,,,,747.8572829600016,None,"['t', 'i', 't', 'h', 'e']",1,"[0.663850201992318, 0.9999502029968426, 1.1438543870171998, 1.3439836960169487, 1.4559518780151848]",747.8572829600016,None,747.8522218967148,747.9514323809999,,,,,,,,,,,,p01_pat_03042022,001,2022_Mar_04_1519,test_typingtask_norepeats,2020.2.10,116.60979277559161,
cheer,cheer,,,,,0,114,114,114,,,,,,,,753.3600036280113,None,"['c', 'h', 'e', 'e', 'r']",1,"[0.6173110009985976, 0.7452133230108302, 0.8412175960256718, 1.0252562460082117, 1.0732145800138824]",753.3600036280113,None,753.3555087327143,753.4691604840045,,,,,,,,,,,,p01_pat_03042022,001,2022_Mar_04_1519,test_typingtask_norepeats,2020.2.10,116.60979277559161,
think,think,,,,,0,115,115,115,,,,,,,,758.8627129569941,None,"['t', 'h', 'i', 'n', 'k']",1,"[0.6345174819871318, 0.7225466469826642, 0.7864910259959288, 0.9145406129828189, 1.0345495649962686]",758.8627129569941,None,758.8596362577111,None,,,,,,,,,,,,p01_pat_03042022,001,2022_Mar_04_1519,test_typingtask_norepeats,2020.2.10,116.60979277559161,
lucky,lucky,,,,,0,116,116,116,,,,,,,,764.3784214940097,None,"['l', 'u', 'c', 'k', 'y']",1,"[0.6468920900078956, 0.8548721080005635, 1.0227455330023076, 1.1107790819951333, 1.3507912429922726]",764.3784214940097,None,764.373206595704,764.47504213301,,,,,,,,,,,,p01_pat_03042022,001,2022_Mar_04_1519,test_typingtask_norepeats,2020.2.10,116.60979277559161,
about,about,,,,,0,117,117,117,,,,,,,,769.8807801509975,None,"['a', 'b', 'o', 'u', 't']",1,"[0.5444025119941216, 0.7284517679945566, 0.8323962530121207, 0.896457516006194, 0.9924603920080699]",769.8807801509975,None,769.8759025116917,769.9770064750046,,,,,,,,,,,,p01_pat_03042022,001,2022_Mar_04_1519,test_typingtask_norepeats,2020.2.10,116.60979277559161,
pykka,pykka,,,,,0,118,118,118,,,,,,,,775.3857447199989,None,"['p', 'y', 'k', 'k', 'a']",1,"[0.8555411350098439, 1.05547691101674, 1.17549404600868, 1.3434504140168428, 1.4074906070018187]",775.3857447199989,None,775.3808556517063,775.4805023370136,,,,,,,,,,,,p01_pat_03042022,001,2022_Mar_04_1519,test_typingtask_norepeats,2020.2.10,116.60979277559161,
therm,therm,,,,,0,119,119,119,,,,,,,,780.897371108993,None,"['t', 'h', 'e', 'r', 'm']",1,"[0.5998232009878848, 0.7357632129860576, 0.8477671739819925, 0.8797552079777233, 0.9677629139914643]",780.897371108993,None,780.8932309826953,780.9940564910066,,,,,,,,,,,,p01_pat_03042022,001,2022_Mar_04_1519,test_typingtask_norepeats,2020.2.10,116.60979277559161,
would,would,,,,,,,,,0,0,0,0,,,,,,,,,,,,,786.3866340880049,None,856.3853933369974,None,"['w', 'o', 'u', 'l', 'd']",1,"[0.591844416980166, 0.6637411869887728, 0.7358631069946568, 0.8797383889905177, 0.9677685989881866]",856.3853933369974,None,856.3797372044123,856.4811168049928,p01_pat_03042022,001,2022_Mar_04_1519,test_typingtask_norepeats,2020.2.10,116.60979277559161,
theme,theme,,,,,,,,,0,1,1,1,,,,,,,,,,,,,,,861.9075915690046,None,"['t', 'h', 'e', 'm', 'e']",1,"[0.5496682350058109, 0.6215434390178416, 0.6935490150062833, 0.8136612530215643, 0.9016757420031354]",861.9075915690046,None,861.9022511037067,862.0018813330098,p01_pat_03042022,001,2022_Mar_04_1519,test_typingtask_norepeats,2020.2.10,116.60979277559161,
faqir,faqir,,,,,,,,,0,2,2,2,,,,,,,,,,,,,,,867.4117686290119,None,"['f', 'a', 'q', 'i', 'r']",1,"[0.6453579689841717, 0.7174762439972255, 0.9255231209972408, 1.7413947529857978, 1.8053806749812793]",867.4117686290119,None,867.4064099216951,867.5097500669945,p01_pat_03042022,001,2022_Mar_04_1519,test_typingtask_norepeats,2020.2.10,116.60979277559161,
isvar,isvar,,,,,,,,,0,3,3,3,,,,,,,,,,,,,,,872.9138361820078,None,"['i', 's', 'v', 'a', 'r']",1,"[0.5992970659863204, 0.6153483109956142, 0.8714641529950313, 0.9594237160054035, 1.0633939359977376]",872.9138361820078,None,872.9086757247162,873.0121404810052,p01_pat_03042022,001,2022_Mar_04_1519,test_typingtask_norepeats,2020.2.10,116.60979277559161,
haole,haole,,,,,,,,,0,4,4,4,,,,,,,,,,,,,,,878.4242368580017,None,"['h', 'a', 'o', 'l', 'e']",1,"[0.7129896430124063, 0.8248956650204491, 0.945027473004302, 1.1609901630145032, 1.2250244099996053]",878.4242368580017,None,878.4197452186957,None,p01_pat_03042022,001,2022_Mar_04_1519,test_typingtask_norepeats,2020.2.10,116.60979277559161,
about,about,,,,,,,,,0,5,5,5,,,,,,,,,,,,,,,883.9266174660006,None,"['a', 'b', 'o', 'u', 't']",1,"[0.47464153097826056, 0.618523210985586, 0.6905118899885565, 0.7546417089761235, 0.8345259849738795]",883.9266174660006,None,883.9225972586894,None,p01_pat_03042022,001,2022_Mar_04_1519,test_typingtask_norepeats,2020.2.10,116.60979277559161,
isvar,isvar,,,,,,,,,0,6,6,6,,,,,,,,,,,,,,,889.4291391440202,None,"['i', 's', 'v', 'a', 'r']",1,"[0.5720790199993644, 0.6121742510003969, 0.7481146740028635, 0.852040294004837, 0.9640506189898588]",889.4291391440202,None,889.4238717977016,889.5260957670107,p01_pat_03042022,001,2022_Mar_04_1519,test_typingtask_norepeats,2020.2.10,116.60979277559161,
champ,champ,,,,,,,,,0,7,7,7,,,,,,,,,,,,,,,894.9364019640198,None,"['c', 'h', 'a', 'm', 'p']",1,"[1.0567937600135338, 1.176854726014426, 1.2648160370008554, 1.4088274390087463, 1.4488780190004036]",894.9364019640198,None,894.9315622557071,895.0330738009943,p01_pat_03042022,001,2022_Mar_04_1519,test_typingtask_norepeats,2020.2.10,116.60979277559161,
there,there,,,,,,,,,0,8,8,8,,,,,,,,,,,,,,,900.4412535550073,None,"['t', 'h', 'e', 'r', 'e']",1,"[0.5759838189987931, 0.6639422940206714, 0.711996326019289, 0.8159555940073915, 0.8879825980111491]",900.4412535550073,None,900.4369078107004,None,p01_pat_03042022,001,2022_Mar_04_1519,test_typingtask_norepeats,2020.2.10,116.60979277559161,
cheer,cheer,,,,,,,,,0,9,9,9,,,,,,,,,,,,,,,905.9447955230135,None,"['c', 'h', 'e', 'e', 'r']",1,"[0.5604494349972811, 0.6643748180067632, 0.7603692609991413, 0.9203578850138001, 0.96044827598962]",905.9447955230135,None,905.9404386877025,906.041312101006,p01_pat_03042022,001,2022_Mar_04_1519,test_typingtask_norepeats,2020.2.10,116.60979277559161,
would,would,,,,,,,,,0,10,10,10,,,,,,,,,,,,,,,911.4540787519945,None,"['w', 'o', 'u', 'l', 'd']",1,"[0.531183325976599, 0.6031228719803039, 0.6752235530002508, 0.8191922809928656, 0.8991802249802276]",911.4540787519945,None,911.4513517597109,911.5496758210065,p01_pat_03042022,001,2022_Mar_04_1519,test_typingtask_norepeats,2020.2.10,116.60979277559161,
druze,druze,,,,,,,,,0,11,11,11,,,,,,,,,,,,,,,916.9537098320143,None,"['d', 'u', 'r', 'z', 'e']",0,"[0.5435653850145172, 0.7755070860148408, 0.8555778959998861, 1.0715512309980113, 1.2155054790200666]",916.9537098320143,None,916.9482621257077,917.049103568017,p01_pat_03042022,001,2022_Mar_04_1519,test_typingtask_norepeats,2020.2.10,116.60979277559161,
vodka,vodka,,,,,,,,,0,12,12,12,,,,,,,,,,,,,,,922.460824009002,None,"['b', 'o', 'd', 'k', 'a']",0,"[0.652443385013612, 0.796396984020248, 0.9163155110145453, 1.3723091700230725, 1.4763652300171088]",922.460824009002,None,922.4569002496894,None,p01_pat_03042022,001,2022_Mar_04_1519,test_typingtask_norepeats,2020.2.10,116.60979277559161,
lucky,lucky,,,,,,,,,0,13,13,13,,,,,,,,,,,,,,,927.9637752830167,None,"['l', 'u', 'c', 'k', 'y']",1,"[0.677449369977694, 0.885443322971696, 0.9733927729830611, 1.0854386479768436, 1.2693571459967643]",927.9637752830167,None,927.9601983296918,None,p01_pat_03042022,001,2022_Mar_04_1519,test_typingtask_norepeats,2020.2.10,116.60979277559161,
puppy,puppy,,,,,,,,,0,14,14,14,,,,,,,,,,,,,,,933.477528938005,None,"['p', 'u', 'p', 'p', 'y']",1,"[0.5876586189842783, 0.7477394260058645, 0.9636999589856714, 1.1557227830053307, 1.315602802002104]",933.477528938005,None,933.4725476566994,933.5713834369963,p01_pat_03042022,001,2022_Mar_04_1519,test_typingtask_norepeats,2020.2.10,116.60979277559161,
there,there,,,,,,,,,0,15,15,15,,,,,,,,,,,,,,,938.9851805820072,None,"['t', 'h', 'e', 'r', 'e']",1,"[0.5840651809994597, 0.6879747659841087, 0.7600510729826055, 0.8639748090063222, 0.9600597249809653]",938.9851805820072,None,938.9812800667016,None,p01_pat_03042022,001,2022_Mar_04_1519,test_typingtask_norepeats,2020.2.10,116.60979277559161,
think,think,,,,,,,,,0,16,16,16,,,,,,,,,,,,,,,944.4869358260185,None,"['t', 'h', 'i', 'n', 'k']",1,"[0.6023079860024154, 0.6982029479986522, 0.7703125840052962, 0.9063132459996268, 1.002170998021029]",944.4869358260185,None,944.4824102127052,944.5818047150096,p01_pat_03042022,001,2022_Mar_04_1519,test_typingtask_norepeats,2020.2.10,116.60979277559161,
theme,theme,,,,,,,,,0,17,17,17,,,,,,,,,,,,,,,949.9869998530194,None,"['t', 'h', 'e', 'm', 'e']",1,"[0.5502639900078066, 0.6542639390099794, 0.7182004259957466, 0.8621443810116034, 0.9422176410153043]",949.9869998530194,None,949.9826544046985,950.0822867100069,p01_pat_03042022,001,2022_Mar_04_1519,test_typingtask_norepeats,2020.2.10,116.60979277559161,
cooed,cooed,,,,,,,,,0,18,18,18,,,,,,,,,,,,,,,955.4939684949932,None,"['c', 'o', 'o', 'e', 'd']",1,"[0.6032207759853918, 0.6992568649875466, 0.8592628320038784, 0.9312953430053312, 1.0911986629944295]",955.4939684949932,None,955.4898868276971,None,p01_pat_03042022,001,2022_Mar_04_1519,test_typingtask_norepeats,2020.2.10,116.60979277559161,
kremp,kremp,,,,,,,,,0,19,19,19,,,,,,,,,,,,,,,961.0088843849953,None,"['k', 'r', 'e', 'm', 'p']",1,"[0.7284005309920758, 0.9843531750084367, 1.05628279899247, 1.1443801110144705, 1.2562480329943355]",961.0088843849953,None,961.0039060157026,961.1027729880007,p01_pat_03042022,001,2022_Mar_04_1519,test_typingtask_norepeats,2020.2.10,116.60979277559161,
lucky,lucky,,,,,,,,,0,20,20,20,,,,,,,,,,,,,,,966.5089568289986,None,"['l', 'u', 'c', 'k', 'y']",1,"[0.6602576230070554, 0.8601719400030561, 0.9802430900163017, 1.0762982910091523, 1.2922632879926823]",966.5089568289986,None,966.504341480718,966.6036901969928,p01_pat_03042022,001,2022_Mar_04_1519,test_typingtask_norepeats,2020.2.10,116.60979277559161,
zibja,zibja,,,,,,,,,0,21,21,21,,,,,,,,,,,,,,,972.0101554199937,None,"['z', 'i', 'b', 'j', 'a']",1,"[0.6151115060201846, 0.775110657006735, 0.9111110930098221, 1.0551147570076864, 1.207016360014677]",972.0101554199937,None,972.0046983937093,972.1073274039954,p01_pat_03042022,001,2022_Mar_04_1519,test_typingtask_norepeats,2020.2.10,116.60979277559161,
tithe,tithe,,,,,,,,,0,22,22,22,,,,,,,,,,,,,,,977.5119792710175,None,"['t', 'i', 't', 'h', 'e']",1,"[0.569230843015248, 0.7372471679991577, 0.8252688499924261, 0.9053020699939225, 1.0332017489999998]",977.5119792710175,None,977.5077561407118,None,p01_pat_03042022,001,2022_Mar_04_1519,test_typingtask_norepeats,2020.2.10,116.60979277559161,
would,would,,,,,,,,,0,23,23,23,,,,,,,,,,,,,,,983.0156568190141,None,"['w', 'o', 'u', 'l', 'd']",1,"[0.5456099929870106, 0.6894964560051449, 0.7535164449946024, 0.9055736279988196, 0.9695045280095655]",983.0156568190141,None,983.0117915136973,983.1121355550131,p01_pat_03042022,001,2022_Mar_04_1519,test_typingtask_norepeats,2020.2.10,116.60979277559161,
therm,therm,,,,,,,,,0,24,24,24,,,,,,,,,,,,,,,988.5284550510114,None,"['t', 'h', 'e', 'r', 'm']",1,"[0.6087985759950243, 0.7128130189958028, 0.7848053110064939, 0.8407780019915663, 0.9207810999942012]",988.5284550510114,None,988.5240611446964,988.6255210819945,p01_pat_03042022,001,2022_Mar_04_1519,test_typingtask_norepeats,2020.2.10,116.60979277559161,
champ,champ,,,,,,,,,0,25,25,25,,,,,,,,,,,,,,,994.0298542620149,None,"['c', 'a', 'm', 'p']",0,"[0.5873781940026674, 0.7393457110156305, 0.7713847540144343, 0.8914096140069887]",994.0298542620149,None,994.0244804877032,994.1262927479984,p01_pat_03042022,001,2022_Mar_04_1519,test_typingtask_norepeats,2020.2.10,116.60979277559161,
cheer,cheer,,,,,,,,,0,26,26,26,,,,,,,,,,,,,,,999.5331793609948,None,"['c', 'h', 'e', 'e', 'r']",1,"[0.6681017230148427, 0.7880824530147947, 0.8841117980191484, 1.0520779530052096, 1.1320884769957047]",999.5331793609948,None,999.5285334506946,999.6298337439948,p01_pat_03042022,001,2022_Mar_04_1519,test_typingtask_norepeats,2020.2.10,116.60979277559161,
about,about,,,,,,,,,0,27,27,27,,,,,,,,,,,,,,,1005.0465534700197,None,"['a', 'b', 'o', 'u', 't']",1,"[0.4987040339910891, 0.6105768280103803, 0.7386473240039777, 0.7946841749944724, 0.8826953030074947]",1005.0465534700197,None,1005.0421423266991,1005.1429452029988,p01_pat_03042022,001,2022_Mar_04_1519,test_typingtask_norepeats,2020.2.10,116.60979277559161,
haole,haole,,,,,,,,,0,28,28,28,,,,,,,,,,,,,,,1010.5457041730115,None,"['h', 'a', 'o', 'l', 'e']",1,"[0.7676456199842505, 0.8555134540074505, 1.031555927998852, 1.2395558980060741, 1.295563225983642]",1010.5457041730115,None,1010.5419368776959,None,p01_pat_03042022,001,2022_Mar_04_1519,test_typingtask_norepeats,2020.2.10,116.60979277559161,
pykka,pykka,,,,,,,,,0,29,29,29,,,,,,,,,,,,,,,1016.051594360004,None,"['p', 'y', 'k', 'k', 'a']",1,"[0.6216706810228061, 0.9337064349965658, 1.1256581010238733, 1.2855910510115791, 1.34165600000415]",1016.051594360004,None,1016.0464556366962,1016.1474416120036,p01_pat_03042022,001,2022_Mar_04_1519,test_typingtask_norepeats,2020.2.10,116.60979277559161,
vodka,vodka,,,,,,,,,0,30,30,30,,,,,,,,,,,,,,,1021.5586548580031,None,"['v', 'o', 'd', 'k', 'a']",1,"[1.1785109830088913, 1.3306089700199664, 1.41060703000403, 1.890481989015825, 1.9225699859962333]",1021.5586548580031,None,1021.5544812937035,1021.6542561959941,p01_pat_03042022,001,2022_Mar_04_1519,test_typingtask_norepeats,2020.2.10,116.60979277559161,
champ,champ,,,,,,,,,0,31,31,31,,,,,,,,,,,,,,,1027.058707254997,None,"['c', 'a', 'backspace', 'h', 'a', 'm', 'p']",0,"[0.6145412150071934, 0.8464563940069638, 1.1985393880167976, 1.4145124439965002, 1.5345424760016613, 1.6145324960234575, 1.6945523699978366]",1027.058707254997,None,1027.0538925897156,1027.153718520014,p01_pat_03042022,001,2022_Mar_04_1519,test_typingtask_norepeats,2020.2.10,116.60979277559161,
heond,heond,,,,,,,,,0,32,32,32,,,,,,,,,,,,,,,1032.5657711999957,None,"['h', 'e', 'o', 'n', 'd']",1,"[0.6914005110156722, 0.7794336779916193, 0.9314779750129674, 1.0194767299981322, 1.0834715200180653]",1032.5657711999957,None,1032.5618338996894,None,p01_pat_03042022,001,2022_Mar_04_1519,test_typingtask_norepeats,2020.2.10,116.60979277559161,
edthe,edthe,,,,,,,,,0,33,33,33,,,,,,,,,,,,,,,1038.0718711260124,None,"['e', 'd', 't', 'h', 'e']",1,"[0.537368160992628, 0.7213935799954925, 0.8893677140004002, 0.9854098090145271, 1.0253915520152077]",1038.0718711260124,None,1038.0685486527102,1038.168700712995,p01_pat_03042022,001,2022_Mar_04_1519,test_typingtask_norepeats,2020.2.10,116.60979277559161,
belly,belly,,,,,,,,,0,34,34,34,,,,,,,,,,,,,,,1043.5696014320129,None,"['b', 'e', 'l', 'l', 'y']",1,"[0.727651268010959, 0.8796301819966175, 0.9916097420209553, 1.1516617900051642, 1.2555385990126524]",1043.5696014320129,None,1043.5646230006998,None,p01_pat_03042022,001,2022_Mar_04_1519,test_typingtask_norepeats,2020.2.10,116.60979277559161,
buddy,buddy,,,,,,,,,0,35,35,35,,,,,,,,,,,,,,,1049.077565796004,None,"['b', 'u', 'd', 'd', 'y']",1,"[0.6116239650000352, 0.7796736519958358, 0.8515656270028558, 0.9956824860128108, 1.2196263509977143]",1049.077565796004,None,1049.0726560866926,1049.1747785000189,p01_pat_03042022,001,2022_Mar_04_1519,test_typingtask_norepeats,2020.2.10,116.60979277559161,
vodka,vodka,,,,,,,,,0,36,36,36,,,,,,,,,,,,,,,1054.578285413998,None,"['b', 'o', 'd', 'k', 'a']",0,"[0.6708532310149167, 0.8069282190117519, 0.8869184530049097, 1.207071603013901, 1.2868411079980433]",1054.578285413998,None,1054.5733707657084,1054.6741271850187,p01_pat_03042022,001,2022_Mar_04_1519,test_typingtask_norepeats,2020.2.10,116.60979277559161,
faqir,faqir,,,,,,,,,0,37,37,37,,,,,,,,,,,,,,,1060.0768293370202,None,"['f', 'a', 'q', 'i', 'r']",1,"[0.9003144790185615, 0.9643927150173113, 1.2443281710147858, 1.4363383180170786, 1.5004234710067976]",1060.0768293370202,None,1060.0720182777034,1060.1739566379983,p01_pat_03042022,001,2022_Mar_04_1519,test_typingtask_norepeats,2020.2.10,116.60979277559161,
heond,heond,,,,,,,,,0,38,38,38,,,,,,,,,,,,,,,1065.5849834590044,None,"['h', 'e', 'o', 'n', 'd']",1,"[0.6803322229825426, 0.7681389130011667, 0.9442695319885388, 1.040260142995976, 1.1121742859832011]",1065.5849834590044,None,1065.580484283698,1065.6803433260066,p01_pat_03042022,001,2022_Mar_04_1519,test_typingtask_norepeats,2020.2.10,116.60979277559161,
vodka,vodka,,,,,,,,,0,39,39,39,,,,,,,,,,,,,,,1071.092276551004,None,"['b', 'o', 'd', 'k', 'a']",0,"[0.5969887419778388, 0.7248855179932434, 0.9408754579781089, 1.1809911729942542, 1.2529821769858245]",1071.092276551004,None,1071.0879289996985,1071.1873399920005,p01_pat_03042022,001,2022_Mar_04_1519,test_typingtask_norepeats,2020.2.10,116.60979277559161,
isvar,isvar,,,,,,,,,0,40,40,40,,,,,,,,,,,,,,,1076.595473763009,None,"['i', 's', 'v', 'a', 'r']",1,"[0.6297526209964417, 0.693735105014639, 0.8536782670125831, 0.9417600430024322, 1.0537478330079466]",1076.595473763009,None,1076.5898045177048,1076.6932932120108,p01_pat_03042022,001,2022_Mar_04_1519,test_typingtask_norepeats,2020.2.10,116.60979277559161,
kremp,kremp,,,,,,,,,0,41,41,41,,,,,,,,,,,,,,,1082.0911546490097,None,"['k', 'e', 'r', 'm', 'p']",0,"[0.6380467179988045, 0.7501031139981933, 0.7901498319988605, 0.9260071799799334, 1.0061014009988867]",1082.0911546490097,None,1082.086366102699,1082.1849865620025,p01_pat_03042022,001,2022_Mar_04_1519,test_typingtask_norepeats,2020.2.10,116.60979277559161,
druze,druze,,,,,,,,,0,42,42,42,,,,,,,,,,,,,,,1087.6076367979986,None,"['d', 'r', 'u', 'z', 'e']",1,"[0.609554450988071, 0.8096161849971395, 1.0176188650075346, 1.1455308930017054, 1.2095537499990314]",1087.6076367979986,None,1087.6031303797092,1087.7026140550151,p01_pat_03042022,001,2022_Mar_04_1519,test_typingtask_norepeats,2020.2.10,116.60979277559161,
tithe,tithe,,,,,,,,,0,43,43,43,,,,,,,,,,,,,,,1093.10309787601,None,"['t', 'i', 't', 'h', 'e']",1,"[0.6421655619924422, 0.7861271119909361, 0.9140337249846198, 1.0260423109866679, 1.1941664539917838]",1093.10309787601,None,1093.0976281186915,1093.199113723007,p01_pat_03042022,001,2022_Mar_04_1519,test_typingtask_norepeats,2020.2.10,116.60979277559161,
haole,haole,,,,,,,,,0,44,44,44,,,,,,,,,,,,,,,1098.6112791910127,None,"['h', 'a', 'o', 'l', 'e']",1,"[0.6779637680156156, 0.7979890470160171, 0.9579594930110034, 1.1419669640017673, 1.197989503009012]",1098.6112791910127,None,1098.6068598677114,1098.7055623480119,p01_pat_03042022,001,2022_Mar_04_1519,test_typingtask_norepeats,2020.2.10,116.60979277559161,
druze,druze,,,,,,,,,0,45,45,45,,,,,,,,,,,,,,,1104.118373936013,None,"['d', 'r', 'u', 'z', 'e']",1,"[0.6507716290070675, 0.834851718012942, 0.9788701749930624, 1.0988739200111013, 1.1868216209986713]",1104.118373936013,None,1104.113716531708,1104.214192112995,p01_pat_03042022,001,2022_Mar_04_1519,test_typingtask_norepeats,2020.2.10,116.60979277559161,
champ,champ,,,,,,,,,0,46,46,46,,,,,,,,,,,,,,,1109.6256959729944,None,"['c', 'h', 'a', 'm', 'p']",1,"[0.7595630970026832, 0.9354443370248191, 1.0634451380174141, 1.1835713120235596, 1.255615526024485]",1109.6256959729944,None,1109.6207548006962,1109.72206083301,p01_pat_03042022,001,2022_Mar_04_1519,test_typingtask_norepeats,2020.2.10,116.60979277559161,
there,there,,,,,,,,,0,47,47,47,,,,,,,,,,,,,,,1115.1270751910051,None,"['t', 'h', 'e', 'r', 'e']",1,"[0.5380627389822621, 0.6341809629811905, 0.6981931919872295, 0.7941937079885975, 0.9060538139892742]",1115.1270751910051,None,1115.1229939786892,None,p01_pat_03042022,001,2022_Mar_04_1519,test_typingtask_norepeats,2020.2.10,116.60979277559161,
buddy,buddy,,,,,,,,,0,48,48,48,,,,,,,,,,,,,,,1120.6417059980158,None,"['b', 'u', 'd', 'd', 'y']",1,"[0.6955515480076429, 0.8634253399795853, 0.9514267529884819, 1.0795578249963, 1.2795459000044502]",1120.6417059980158,None,1120.6363556897152,1120.737087631016,p01_pat_03042022,001,2022_Mar_04_1519,test_typingtask_norepeats,2020.2.10,116.60979277559161,
edthe,edthe,,,,,,,,,0,49,49,49,,,,,,,,,,,,,,,1126.1334275370173,None,"['e', 'd', 't', 'h', 'e']",1,"[0.5638132559834048, 0.7478493799862918, 0.8838292479922529, 1.011833258002298, 1.0437631940003484]",1126.1334275370173,None,1126.1290867827076,None,p01_pat_03042022,001,2022_Mar_04_1519,test_typingtask_norepeats,2020.2.10,116.60979277559161,
faqir,faqir,,,,,,,,,0,50,50,50,,,,,,,,,,,,,,,1131.6352314190008,None,"['f', 'a', 'q', 'i', 'r']",1,"[0.5980398769897874, 0.6860146429971792, 1.1819720279891044, 1.3180410719942302, 1.3899077269888949]",1131.6352314190008,None,1131.6294144306914,1131.731176450994,p01_pat_03042022,001,2022_Mar_04_1519,test_typingtask_norepeats,2020.2.10,116.60979277559161,
lucky,lucky,,,,,,,,,0,51,51,51,,,,,,,,,,,,,,,1137.140807896998,None,"['l', 'u', 'c', 'k', 'y']",1,"[0.5484627090045251, 0.7564334039925598, 0.876469923008699, 0.9724597730091773, 1.1964523060014471]",1137.140807896998,None,1137.1365415477078,None,p01_pat_03042022,001,2022_Mar_04_1519,test_typingtask_norepeats,2020.2.10,116.60979277559161,
theme,theme,,,,,,,,,0,52,52,52,,,,,,,,,,,,,,,1142.6427313360036,None,"['t', 'h', 'e', 'm', 'e']",1,"[0.5265013430034742, 0.6465211579925381, 0.7024575419782195, 0.8545323669968639, 0.9265101619821507]",1142.6427313360036,None,1142.6373771167011,1142.7369119350042,p01_pat_03042022,001,2022_Mar_04_1519,test_typingtask_norepeats,2020.2.10,116.60979277559161,
cooed,cooed,,,,,,,,,0,53,53,53,,,,,,,,,,,,,,,1148.1488474729995,None,"['c', 'o', 'o', 'e', 'd']",1,"[0.56438927599811, 0.7083717169880401, 0.9003255029965658, 1.0203247499885038, 1.22830347600393]",1148.1488474729995,None,1148.1439983897028,1148.2460916670098,p01_pat_03042022,001,2022_Mar_04_1519,test_typingtask_norepeats,2020.2.10,116.60979277559161,
heond,heond,,,,,,,,,0,54,54,54,,,,,,,,,,,,,,,1153.652216410992,None,"['h', 'e', 'o', 'n', 'd']",1,"[0.6768871340027545, 0.7569845139805693, 0.8849725420004688, 0.9650394030031748, 1.0530299659876619]",1153.652216410992,None,1153.6477166717116,None,p01_pat_03042022,001,2022_Mar_04_1519,test_typingtask_norepeats,2020.2.10,116.60979277559161,
cheer,cheer,,,,,,,,,0,55,55,55,,,,,,,,,,,,,,,1159.1611414389918,None,"['c', 'h', 'e', 'e', 'r']",1,"[0.6640305129985791, 0.8000064450025093, 0.912130815006094, 1.087984949001111, 1.136094066023361]",1159.1611414389918,None,1159.1564544797177,1159.2574547310069,p01_pat_03042022,001,2022_Mar_04_1519,test_typingtask_norepeats,2020.2.10,116.60979277559161,
about,about,,,,,,,,,0,56,56,56,,,,,,,,,,,,,,,1164.665774580004,None,"['a', 'b', 'o', 'u', 't']",1,"[0.5594682160008233, 0.7354554960038513, 0.8474862230068538, 0.9114511429797858, 0.9673629509925377]",1164.665774580004,None,1164.6615016757162,1164.7621122740093,p01_pat_03042022,001,2022_Mar_04_1519,test_typingtask_norepeats,2020.2.10,116.60979277559161,
cooed,cooed,,,,,,,,,0,57,57,57,,,,,,,,,,,,,,,1170.1774311840127,None,"['c', 'o', 'o', 'e', 'd']",1,"[0.647801489016274, 0.7997602780233137, 0.9597354810102843, 1.0317437600169796, 1.1918178190244362]",1170.1774311840127,None,1170.1722925476963,1170.2743138369988,p01_pat_03042022,001,2022_Mar_04_1519,test_typingtask_norepeats,2020.2.10,116.60979277559161,
zibja,zibja,,,,,,,,,0,58,58,58,,,,,,,,,,,,,,,1175.6805379590078,None,"['z', 'i', 'b', 'j', 'a']",1,"[0.6647288390086032, 0.9126816469943151, 1.7846817059908062, 2.032711976004066, 2.184654237003997]",1175.6805379590078,None,1175.6752570007113,1175.7785597259935,p01_pat_03042022,001,2022_Mar_04_1519,test_typingtask_norepeats,2020.2.10,116.60979277559161,
puppy,puppy,,,,,,,,,0,59,59,59,,,,,,,,,,,,,,,1181.1882449790137,None,"['p', 'u', 'p', 'p', 'y']",1,"[0.5890078060037922, 0.7410184159816708, 0.8529523210017942, 0.9889863340067677, 1.1169244949996937]",1181.1882449790137,None,1181.1850770787162,1181.2837209120044,p01_pat_03042022,001,2022_Mar_04_1519,test_typingtask_norepeats,2020.2.10,116.60979277559161,
tithe,tithe,,,,,,,,,0,60,60,60,,,,,,,,,,,,,,,1186.6887935940176,None,"['t', 'h', 'backspace', 'i', 't', 'h', 'e']",0,"[0.6004548790224362, 0.7443490870064124, 1.2484831059991848, 1.5123681139957625, 1.6324656500073615, 1.720446659019217, 1.856511603022227]",1186.6887935940176,None,1186.6856302927074,1186.7852398340183,p01_pat_03042022,001,2022_Mar_04_1519,test_typingtask_norepeats,2020.2.10,116.60979277559161,
belly,belly,,,,,,,,,0,61,61,61,,,,,,,,,,,,,,,1192.196281482,None,"['b', 'e', 'l', 'l', 'y']",1,"[0.6289710379787721, 0.7650007919874042, 0.8210448989993893, 0.980969347001519, 1.0689483699970879]",1192.196281482,None,1192.191773584712,1192.2936903160007,p01_pat_03042022,001,2022_Mar_04_1519,test_typingtask_norepeats,2020.2.10,116.60979277559161,
isvar,isvar,,,,,,,,,0,62,62,62,,,,,,,,,,,,,,,1197.696768343012,None,"['i', 's', 'v', 'a', 'r']",1,"[0.6243846760189626, 0.67246595499455, 0.8723459640168585, 0.9764468840148766, 1.1044959310092963]",1197.696768343012,None,1197.6921247597086,1197.7950646720128,p01_pat_03042022,001,2022_Mar_04_1519,test_typingtask_norepeats,2020.2.10,116.60979277559161,
champ,champ,,,,,,,,,0,63,63,63,,,,,,,,,,,,,,,1203.2035696459934,None,"['c', 'h', 'a', 'm', 'p']",1,"[0.5896739230083767, 0.7336672669916879, 0.8055800820002332, 0.9335900929872878, 0.9815780679928139]",1203.2035696459934,None,1203.198718862713,1203.2979991320171,p01_pat_03042022,001,2022_Mar_04_1519,test_typingtask_norepeats,2020.2.10,116.60979277559161,
faqir,faqir,,,,,,,,,0,64,64,64,,,,,,,,,,,,,,,1208.7119023379928,None,"['f', 'a', 'q', 'i', 'r']",1,"[0.6892241729947273, 0.7692227830120828, 1.0813443000079133, 1.2333622300066054, 1.329289343993878]",1208.7119023379928,None,1208.7065657747037,1208.809044816997,p01_pat_03042022,001,2022_Mar_04_1519,test_typingtask_norepeats,2020.2.10,116.60979277559161,
druze,druze,,,,,,,,,0,65,65,65,,,,,,,,,,,,,,,1214.2136816740094,None,"['d', 'r', 'u', 'z', 'e']",1,"[0.8114619099942502, 1.0195497459790204, 1.2195601069834083, 1.3074627079768106, 1.411591115000192]",1214.2136816740094,None,1214.2102677386895,None,p01_pat_03042022,001,2022_Mar_04_1519,test_typingtask_norepeats,2020.2.10,116.60979277559161,
heond,heond,,,,,,,,,0,66,66,66,,,,,,,,,,,,,,,1219.718611195014,None,"['h', 'e', 'o', 'n', 'd']",1,"[0.7866090049792547, 0.8666506089793984, 0.9866343999747187, 1.074623263993999, 1.1625240679713897]",1219.718611195014,None,1219.7141313076893,1219.8143967950018,p01_pat_03042022,001,2022_Mar_04_1519,test_typingtask_norepeats,2020.2.10,116.60979277559161,
think,think,,,,,,,,,0,67,67,67,,,,,,,,,,,,,,,1225.2268027719983,None,"['t', 'h', 'i', 'n', 'k']",1,"[0.5983473529922776, 0.6943412079999689, 0.7743616919906344, 0.8944070599973202, 0.9984468879993074]",1225.2268027719983,None,1225.2218859396992,1225.3214439339936,p01_pat_03042022,001,2022_Mar_04_1519,test_typingtask_norepeats,2020.2.10,116.60979277559161,
therm,therm,,,,,,,,,0,68,68,68,,,,,,,,,,,,,,,1230.7258295259962,None,"['t', 'h', 'e', 'r', 'm']",1,"[0.6193714480032213, 0.7394275660044514, 0.8193452669947874, 0.9074207090015989, 0.9633115169999655]",1230.7258295259962,None,1230.7212947817054,1230.8207348200085,p01_pat_03042022,001,2022_Mar_04_1519,test_typingtask_norepeats,2020.2.10,116.60979277559161,
faqir,faqir,,,,,,,,,0,69,69,69,,,,,,,,,,,,,,,1236.2279266240075,None,"['f', 'a', 'q', 'i', 'r']",1,"[0.5973307309905067, 0.7093248830060475, 0.9093286790011916, 1.2452638279937673, 1.341331010014983]",1236.2279266240075,None,1236.223192654713,1236.3222147000197,p01_pat_03042022,001,2022_Mar_04_1519,test_typingtask_norepeats,2020.2.10,116.60979277559161,
would,would,,,,,,,,,0,70,70,70,,,,,,,,,,,,,,,1241.7327153150109,None,"['w', 'o', 'u', 'l', 'd']",1,"[0.5884687170037068, 0.668523482978344, 0.7725472909805831, 0.8924982319877017, 1.0044503739918582]",1241.7327153150109,None,1241.7280901216902,1241.8288888070092,p01_pat_03042022,001,2022_Mar_04_1519,test_typingtask_norepeats,2020.2.10,116.60979277559161,
kremp,kremp,,,,,,,,,0,71,71,71,,,,,,,,,,,,,,,1247.2428715610004,None,"['k', 'e', 'r', 'm', 'p']",0,"[0.7502699189935811, 0.84629778098315, 0.9103949519922026, 1.2703804909833707, 1.334335850988282]",1247.2428715610004,None,1247.2383323747083,1247.3372008230072,p01_pat_03042022,001,2022_Mar_04_1519,test_typingtask_norepeats,2020.2.10,116.60979277559161,
puppy,puppy,,,,,,,,,0,72,72,72,,,,,,,,,,,,,,,1252.743517771014,None,"['p', 'u', 'p', 'p', 'y']",1,"[0.6257153959886637, 0.7937484130088706, 1.0016676060040481, 1.161692004010547, 1.3217270460154396]",1252.743517771014,None,1252.7386040367012,1252.838855058013,p01_pat_03042022,001,2022_Mar_04_1519,test_typingtask_norepeats,2020.2.10,116.60979277559161,
tithe,tithe,,,,,,,,,0,73,73,73,,,,,,,,,,,,,,,1258.2510305070027,None,"['t', 'i', 't', 'h', 'e']",1,"[0.5982155190140475, 0.7342289710068144, 0.854097574017942, 0.9501640899979975, 1.070125630008988]",1258.2510305070027,None,1258.2469523016946,1258.3471255589975,p01_pat_03042022,001,2022_Mar_04_1519,test_typingtask_norepeats,2020.2.10,116.60979277559161,
pykka,pykka,,,,,,,,,0,74,74,74,,,,,,,,,,,,,,,1263.753976890992,None,"['p', 'y', 'k', 'k', 'a']",1,"[0.5592894000001252, 0.9032658310024999, 1.0712504879920743, 1.2232598600094207, 1.3111631229985505]",1263.753976890992,None,1263.7488041276986,1263.8511403150042,p01_pat_03042022,001,2022_Mar_04_1519,test_typingtask_norepeats,2020.2.10,116.60979277559161,
lucky,lucky,,,,,,,,,0,75,75,75,,,,,,,,,,,,,,,1269.2603420109954,None,"['l', 'u', 'c', 'k', 'y']",1,"[0.6208712829975411, 0.8209109710005578, 0.9567959699779749, 1.0449199260037858, 1.2369346659979783]",1269.2603420109954,None,1269.2558783466986,1269.355262891011,p01_pat_03042022,001,2022_Mar_04_1519,test_typingtask_norepeats,2020.2.10,116.60979277559161,
there,there,,,,,,,,,0,76,76,76,,,,,,,,,,,,,,,1274.7687276719953,None,"['t', 'h', 'e', 'r', 'e']",1,"[0.6164691550075077, 0.7124937190092169, 0.7684643079992384, 0.8884850399917923, 0.9845067179994658]",1274.7687276719953,None,1274.7638344176987,None,p01_pat_03042022,001,2022_Mar_04_1519,test_typingtask_norepeats,2020.2.10,116.60979277559161,
isvar,isvar,,,,,,,,,0,77,77,77,,,,,,,,,,,,,,,1280.2798899600166,None,"['i', 's', 'v', 'a', 'r']",1,"[0.6253814640222117, 0.6653730060206726, 0.8493025670177303, 0.9533825560065452, 1.0653632460162044]",1280.2798899600166,None,1280.2755759607128,1280.3763906910026,p01_pat_03042022,001,2022_Mar_04_1519,test_typingtask_norepeats,2020.2.10,116.60979277559161,
cooed,cooed,,,,,,,,,0,78,78,78,,,,,,,,,,,,,,,1285.781997520011,None,"['c', 'o', 'o', 'e', 'd']",1,"[0.5871652089990675, 0.7071915830019861, 0.8671216109942179, 0.9392545690061525, 1.0911937119963113]",1285.781997520011,None,1285.7776986057172,1285.878661691997,p01_pat_03042022,001,2022_Mar_04_1519,test_typingtask_norepeats,2020.2.10,116.60979277559161,
druze,druze,,,,,,,,,0,79,79,79,,,,,,,,,,,,,,,1291.2831490829994,None,"['d', 'r', 'u', 'z', 'e']",1,"[0.5819913180021103, 0.7660790809895843, 0.9260715149866883, 1.0301132730091922, 1.062098911992507]",1291.2831490829994,None,1291.2787478176936,1291.3793622110097,p01_pat_03042022,001,2022_Mar_04_1519,test_typingtask_norepeats,2020.2.10,116.60979277559161,
puppy,puppy,,,,,,,,,0,80,80,80,,,,,,,,,,,,,,,1296.787269102002,None,"['p', 'u', 'p', 'p', 'y']",1,"[0.6219811220071279, 0.75798871400184, 0.869907411019085, 1.0219799829937983, 1.1338978220010176]",1296.787269102002,None,1296.7831655887014,1296.8840112250182,p01_pat_03042022,001,2022_Mar_04_1519,test_typingtask_norepeats,2020.2.10,116.60979277559161,
zibja,zibja,,,,,,,,,0,81,81,81,,,,,,,,,,,,,,,1302.2988918840128,None,"['z', 'i', 'b', 'j', 'a']",1,"[0.6223500409978442, 0.8142727329977788, 1.0223479209817015, 1.4783513669972308, 1.5422843099804595]",1302.2988918840128,None,1302.2938156307093,1302.3958038160054,p01_pat_03042022,001,2022_Mar_04_1519,test_typingtask_norepeats,2020.2.10,116.60979277559161,
heond,heond,,,,,,,,,0,82,82,82,,,,,,,,,,,,,,,1307.8016224970052,None,"['h', 'e', 'o', 'n', 'd']",1,"[0.719550301990239, 0.9836546650039963, 1.0716241619957145, 1.4155406029894948, 1.49564016298973]",1307.8016224970052,None,1307.797157027718,None,p01_pat_03042022,001,2022_Mar_04_1519,test_typingtask_norepeats,2020.2.10,116.60979277559161,
therm,therm,,,,,,,,,0,83,83,83,,,,,,,,,,,,,,,1313.3102655110124,None,"['t', 'h', 'e', 'r', 'm']",1,"[0.6109945090138353, 0.7069148010050412, 0.8189762299880385, 0.9149858079908881, 0.9470060580060817]",1313.3102655110124,None,1313.305534626695,1313.4047851499927,p01_pat_03042022,001,2022_Mar_04_1519,test_typingtask_norepeats,2020.2.10,116.60979277559161,
edthe,edthe,,,,,,,,,0,84,84,84,,,,,,,,,,,,,,,1318.8145718640008,None,"['e', 'd', 't', 'h', 'e']",1,"[0.5945749689999502, 0.8105709590017796, 0.9626970420067664, 1.0586980170046445, 1.1306820650061127]",1318.8145718640008,None,1318.8107862966892,1318.9116644700116,p01_pat_03042022,001,2022_Mar_04_1519,test_typingtask_norepeats,2020.2.10,116.60979277559161,
pykka,pykka,,,,,,,,,0,85,85,85,,,,,,,,,,,,,,,1324.319582665019,None,"['p', 'y', 'k', 'k', 'a']",1,"[0.5936869959987234, 0.8337166349811014, 0.9935780039813835, 1.1375575089768972, 1.217698959982954]",1324.319582665019,None,1324.3151038207172,1324.4150938749954,p01_pat_03042022,001,2022_Mar_04_1519,test_typingtask_norepeats,2020.2.10,116.60979277559161,
kremp,kremp,,,,,,,,,0,86,86,86,,,,,,,,,,,,,,,1329.8226628199918,None,"['k', 'e', 'r', 'm', 'p']",0,"[0.650493841007119, 0.7305924929969478, 0.8105729050002992, 0.9624768590147141, 1.0185372619889677]",1329.8226628199918,None,1329.819605192711,1329.9188773049973,p01_pat_03042022,001,2022_Mar_04_1519,test_typingtask_norepeats,2020.2.10,116.60979277559161,
therm,therm,,,,,,,,,0,87,87,87,,,,,,,,,,,,,,,1335.3286746469967,None,"['t', 'h', 'e', 'r', 'm']",1,"[0.656493121990934, 0.7605238829855807, 0.8165357449906878, 0.9125779549940489, 0.984574588976102]",1335.3286746469967,None,1335.3242807277013,1335.4273257610039,p01_pat_03042022,001,2022_Mar_04_1519,test_typingtask_norepeats,2020.2.10,116.60979277559161,
haole,haole,,,,,,,,,0,88,88,88,,,,,,,,,,,,,,,1340.8303443670156,None,"['h', 'a', 'o', 'l', 'e']",1,"[0.6828909730247688, 0.7947961340250913, 0.970942558022216, 1.202782404026948, 1.2989201580057852]",1340.8303443670156,None,1340.8265274806938,None,p01_pat_03042022,001,2022_Mar_04_1519,test_typingtask_norepeats,2020.2.10,116.60979277559161,
belly,belly,,,,,,,,,0,89,89,89,,,,,,,,,,,,,,,1346.34281529102,None,"['b', 'e', 'l', 'l', 'y']",1,"[0.6424413280037697, 0.7783906260156073, 0.8664282880199607, 1.0423549870029092, 1.1384309730201494]",1346.34281529102,None,1346.3372301416996,1346.4374865680002,p01_pat_03042022,001,2022_Mar_04_1519,test_typingtask_norepeats,2020.2.10,116.60979277559161,
kremp,kremp,,,,,,,,,0,90,90,90,,,,,,,,,,,,,,,1351.8382432300132,None,"['k', 'r', 'e', 'm', 'p']",1,"[0.6428857409919146, 0.7310294029884972, 0.8029989030037541, 0.8910237939853687, 1.0669741579913534]",1351.8382432300132,None,1351.8330720607075,1351.9363509700052,p01_pat_03042022,001,2022_Mar_04_1519,test_typingtask_norepeats,2020.2.10,116.60979277559161,
belly,belly,,,,,,,,,0,91,91,91,,,,,,,,,,,,,,,1357.3411794220156,None,"['b', 'e', 'l', 'l', 'y']",1,"[0.7079509770264849, 0.8201190520194359, 0.8760709940106608, 1.0520814920018893, 1.1160853040055372]",1357.3411794220156,None,1357.3357779767132,1357.4371425069985,p01_pat_03042022,001,2022_Mar_04_1519,test_typingtask_norepeats,2020.2.10,116.60979277559161,
buddy,buddy,,,,,,,,,0,92,92,92,,,,,,,,,,,,,,,1362.8466270670178,None,"['b', 'u', 'd', 'd', 'y']",1,"[0.6266050900158007, 0.7786402940109838, 0.8666441320092417, 1.146593985002255, 1.338638097018702]",1362.8466270670178,None,1362.841939121706,1362.9437937180046,p01_pat_03042022,001,2022_Mar_04_1519,test_typingtask_norepeats,2020.2.10,116.60979277559161,
would,would,,,,,,,,,0,93,93,93,,,,,,,,,,,,,,,1368.3493734810036,None,"['w', 'u', 'l', 'd']",0,"[0.587875058001373, 0.8278788739989977, 1.4199240840098355, 1.5158924950228538]",1368.3493734810036,None,1368.3447597946972,1368.444675072009,p01_pat_03042022,001,2022_Mar_04_1519,test_typingtask_norepeats,2020.2.10,116.60979277559161,
edthe,edthe,,,,,,,,,0,94,94,94,,,,,,,,,,,,,,,1373.8534630740178,None,"['e', 'd', 't', 'h', 'e']",1,"[0.6597343649773393, 1.019786666991422, 1.1798057169944514, 1.299714013992343, 1.6278052409761585]",1373.8534630740178,None,1373.849026913714,1373.9495057839958,p01_pat_03042022,001,2022_Mar_04_1519,test_typingtask_norepeats,2020.2.10,116.60979277559161,
zibja,zibja,,,,,,,,,0,95,95,95,,,,,,,,,,,,,,,1379.3614831370069,None,"['z', 'i', 'b', 'j', 'a']",1,"[0.6477222490066197, 0.8237710410030559, 0.9517161590047181, 1.1357320990064181, 1.2157583069929387]",1379.3614831370069,None,1379.3564873397002,1379.4559449490043,p01_pat_03042022,001,2022_Mar_04_1519,test_typingtask_norepeats,2020.2.10,116.60979277559161,
edthe,edthe,,,,,,,,,0,96,96,96,,,,,,,,,,,,,,,1384.8629921870015,None,"['e', 'd', 't', 'h', 'e']",1,"[0.5222823140211403, 0.7062267360161059, 0.8501924960000906, 0.9622008230071515, 0.9941737500193994]",1384.8629921870015,None,1384.859627557703,None,p01_pat_03042022,001,2022_Mar_04_1519,test_typingtask_norepeats,2020.2.10,116.60979277559161,
haole,haole,,,,,,,,,0,97,97,97,,,,,,,,,,,,,,,1390.3745956929924,None,"['h', 'a', 'o', 'l', 'e']",1,"[0.6426210230274592, 0.730557780014351, 0.914597416005563, 1.0905349900131114, 1.1465566370170563]",1390.3745956929924,None,1390.3701455746952,None,p01_pat_03042022,001,2022_Mar_04_1519,test_typingtask_norepeats,2020.2.10,116.60979277559161,
therm,therm,,,,,,,,,0,98,98,98,,,,,,,,,,,,,,,1395.8768760980165,None,"['t', 'h', 'e', 'r', 'm']",1,"[0.5803603639942594, 0.7002709599910304, 0.7643772680021357, 0.8362556759966537, 0.9162586059828755]",1395.8768760980165,None,1395.8719533466967,1395.972146568005,p01_pat_03042022,001,2022_Mar_04_1519,test_typingtask_norepeats,2020.2.10,116.60979277559161,
puppy,puppy,,,,,,,,,0,99,99,99,,,,,,,,,,,,,,,1401.3818794120161,None,"['p', 'u', 'p', 'p', 'y']",1,"[0.6192379079875536, 0.7473399919981603, 0.963369317993056, 1.1232331840146799, 1.267317769001238]",1401.3818794120161,None,1401.3767553426908,1401.4785875430098,p01_pat_03042022,001,2022_Mar_04_1519,test_typingtask_norepeats,2020.2.10,116.60979277559161,
buddy,buddy,,,,,,,,,0,100,100,100,,,,,,,,,,,,,,,1406.8983173110173,None,"['b', 'u', 'd', 'd', 'y']",1,"[0.6229076299932785, 0.790932014991995, 0.8469089579884894, 1.0069444520049728, 1.198918075999245]",1406.8983173110173,None,1406.8935137037072,1406.995062781003,p01_pat_03042022,001,2022_Mar_04_1519,test_typingtask_norepeats,2020.2.10,116.60979277559161,
think,think,,,,,,,,,0,101,101,101,,,,,,,,,,,,,,,1412.4007594239956,None,"['t', 'h', 'i', 'n', 'k']",1,"[0.5764364769856911, 0.6725009740039241, 0.7365078789880499, 0.85639785497915, 0.9444307060039137]",1412.4007594239956,None,1412.3966740266944,None,p01_pat_03042022,001,2022_Mar_04_1519,test_typingtask_norepeats,2020.2.10,116.60979277559161,
theme,theme,,,,,,,,,0,102,102,102,,,,,,,,,,,,,,,1417.9158422530163,None,"['t', 'h', 'e', 'm', 'e']",1,"[0.5413476660032757, 0.6373997920018155, 0.7573523900064174, 0.8613808270019945, 0.9414275250164792]",1417.9158422530163,None,1417.9113908897154,1418.0118176930118,p01_pat_03042022,001,2022_Mar_04_1519,test_typingtask_norepeats,2020.2.10,116.60979277559161,
about,about,,,,,,,,,0,103,103,103,,,,,,,,,,,,,,,1423.4156287380029,None,"['a', 'b', 'o', 'u', 't']",1,"[0.4896294320060406, 0.6576323040062562, 0.7375954710005317, 0.7936302779999096, 0.8656315180123784]",1423.4156287380029,None,1423.4112712376984,1423.5121583570144,p01_pat_03042022,001,2022_Mar_04_1519,test_typingtask_norepeats,2020.2.10,116.60979277559161,
cheer,cheer,,,,,,,,,0,104,104,104,,,,,,,,,,,,,,,1428.9207998740021,None,"['c', 'h', 'e', 'e', 'r']",1,"[0.5444024160096887, 0.688389802002348, 0.7283300890121609, 0.9124695970094763, 0.9604498900007457]",1428.9207998740021,None,1428.916080038692,1429.0171454740048,p01_pat_03042022,001,2022_Mar_04_1519,test_typingtask_norepeats,2020.2.10,116.60979277559161,
belly,belly,,,,,,,,,0,105,105,105,,,,,,,,,,,,,,,1434.4259802740125,None,"['b', 'e', 'l', 'l', 'y']",1,"[0.5672809050010983, 0.7032887129753362, 0.8072854689962696, 0.9431778509751894, 1.0472839169960935]",1434.4259802740125,None,1434.4215720856912,1434.5209762390004,p01_pat_03042022,001,2022_Mar_04_1519,test_typingtask_norepeats,2020.2.10,116.60979277559161,
vodka,vodka,,,,,,,,,0,106,106,106,,,,,,,,,,,,,,,1439.9288293930003,None,"['b', 'o', 'd', 'k', 'a']",0,"[0.6164317369984929, 0.7763877609977499, 0.8804374419851229, 1.0964302079810295, 1.2004311029741075]",1439.9288293930003,None,1439.9252843886964,None,p01_pat_03042022,001,2022_Mar_04_1519,test_typingtask_norepeats,2020.2.10,116.60979277559161,
pykka,pykka,,,,,,,,,0,107,107,107,,,,,,,,,,,,,,,1445.4383952880162,None,"['p', 'y', 'k', 'k', 'a']",1,"[0.6748249800002668, 1.0828563219984062, 1.2028816120000556, 1.3548773799848277, 1.4508536490029655]",1445.4383952880162,None,1445.435901335691,1445.5345449460146,p01_pat_03042022,001,2022_Mar_04_1519,test_typingtask_norepeats,2020.2.10,116.60979277559161,
cheer,cheer,,,,,,,,,0,108,108,108,,,,,,,,,,,,,,,1450.9493164890155,None,"['c', 'h', 'e', 'e', 'r']",1,"[0.5719410849851556, 0.7639542770048138, 0.8199464970093686, 1.0198525869927835, 1.0599290590034798]",1450.9493164890155,None,1450.9448738116946,1451.0455522639968,p01_pat_03042022,001,2022_Mar_04_1519,test_typingtask_norepeats,2020.2.10,116.60979277559161,
there,there,,,,,,,,,0,109,109,109,,,,,,,,,,,,,,,1456.4435047100123,None,"['t', 'h', 'e', 'r', 'e']",1,"[0.5657519090163987, 0.6857595210021827, 0.7257483389985282, 0.8376966390060261, 0.8937143700022716]",1456.4435047100123,None,1456.4393427547068,None,p01_pat_03042022,001,2022_Mar_04_1519,test_typingtask_norepeats,2020.2.10,116.60979277559161,
think,think,,,,,,,,,0,110,110,110,,,,,,,,,,,,,,,1461.9593332720106,None,"['t', 'h', 'i', 'n', 'k']",1,"[0.561792990018148, 0.6899111670209095, 0.7779410750081297, 0.8899102249997668, 1.0019338950223755]",1461.9593332720106,None,1461.9548982067092,1462.0545938230061,p01_pat_03042022,001,2022_Mar_04_1519,test_typingtask_norepeats,2020.2.10,116.60979277559161,
zibja,zibja,,,,,,,,,0,111,111,111,,,,,,,,,,,,,,,1467.4560234550154,None,"['a', 'backspace', 'z', 'i', 'b', 'j', 'a']",0,"[0.5612196300062351, 1.353234796988545, 1.5532240729953628, 1.80916135199368, 2.0011357459879946, 2.3211730339971837, 2.4411729089915752]",1467.4560234550154,None,1467.4526563096908,1467.5529134130047,p01_pat_03042022,001,2022_Mar_04_1519,test_typingtask_norepeats,2020.2.10,116.60979277559161,
about,about,,,,,,,,,0,112,112,112,,,,,,,,,,,,,,,1472.9620034490072,None,"['a', 'b', 'o', 'u', 't']",1,"[0.47124149699811824, 0.6312118619971443, 0.7432756140187848, 0.8072494300140534, 0.879271478013834]",1472.9620034490072,None,1472.9573046647013,1473.0582039710134,p01_pat_03042022,001,2022_Mar_04_1519,test_typingtask_norepeats,2020.2.10,116.60979277559161,
cooed,cooed,,,,,,,,,0,113,113,113,,,,,,,,,,,,,,,1478.4621563160035,None,"['c', 'o', 'o', 'e', 'd']",1,"[0.6351069140073378, 0.7870375560014509, 0.9391072500147857, 1.0031126980029512, 1.178991084016161]",1478.4621563160035,None,1478.4575291767135,1478.558229902992,p01_pat_03042022,001,2022_Mar_04_1519,test_typingtask_norepeats,2020.2.10,116.60979277559161,
think,think,,,,,,,,,0,114,114,114,,,,,,,,,,,,,,,1483.9724262370146,None,"['t', 'h', 'i', 'n', 'k']",1,"[0.5488329399959184, 0.6528414849890396, 0.7328357689839322, 0.8527993449824862, 0.948778305988526]",1483.9724262370146,None,1483.9693520426983,1484.0697426590195,p01_pat_03042022,001,2022_Mar_04_1519,test_typingtask_norepeats,2020.2.10,116.60979277559161,
lucky,lucky,,,,,,,,,0,115,115,115,,,,,,,,,,,,,,,1489.47250313501,None,"['l', 'u', 'c', 'k', 'y']",1,"[0.624745253007859, 0.8327386759920046, 0.9607018530077767, 1.0566172639955766, 1.25674082399928]",1489.47250313501,None,1489.4692934517109,1489.5691870170122,p01_pat_03042022,001,2022_Mar_04_1519,test_typingtask_norepeats,2020.2.10,116.60979277559161,
tithe,tithe,,,,,,,,,0,116,116,116,,,,,,,,,,,,,,,1494.9773162229976,None,"['t', 'i', 't', 'h', 'e']",1,"[0.6078978400037158, 0.7519538629858289, 0.8479516609804705, 0.9199460799864028, 1.0239571709826123]",1494.9773162229976,None,1494.9716827057011,1495.072087483015,p01_pat_03042022,001,2022_Mar_04_1519,test_typingtask_norepeats,2020.2.10,116.60979277559161,
pykka,pykka,,,,,,,,,0,117,117,117,,,,,,,,,,,,,,,1500.4812564130116,None,"['p', 'y', 'k', 'k', 'a']",1,"[0.7200069809914567, 1.039963444985915, 1.1840783880033996, 1.311893717997009, 1.4160096849955153]",1500.4812564130116,None,1500.4772769487056,1500.5780747520039,p01_pat_03042022,001,2022_Mar_04_1519,test_typingtask_norepeats,2020.2.10,116.60979277559161,
theme,theme,,,,,,,,,0,118,118,118,,,,,,,,,,,,,,,1505.9949039620114,None,"['t', 'h', 'e', 'm', 'e']",1,"[0.566274222015636, 0.6623089160129894, 0.782323253020877, 0.8783529860083945, 0.9422186450101435]",1505.9949039620114,None,1505.9903361917125,1506.0917789369996,p01_pat_03042022,001,2022_Mar_04_1519,test_typingtask_norepeats,2020.2.10,116.60979277559161,
buddy,buddy,,,,,,,,,0,119,119,119,,,,,,,,,,,,,,,1511.496889617003,None,"['b', 'u', 'd', 'd', 'y']",1,"[0.6723378039896488, 0.8243803440127522, 0.9042446080129594, 1.0483267680101562, 1.2802336270106025]",1511.496889617003,None,1511.4917770096974,1511.5941703580029,p01_pat_03042022,001,2022_Mar_04_1519,test_typingtask_norepeats,2020.2.10,116.60979277559161,
