string,corrAns,practice_trials.thisRepN,practice_trials.thisTrialN,practice_trials.thisN,practice_trials.thisIndex,trials_1.thisRepN,trials_1.thisTrialN,trials_1.thisN,trials_1.thisIndex,trials_2.thisRepN,trials_2.thisTrialN,trials_2.thisN,trials_2.thisIndex,key_resp_0.keys,key_resp_0.corr,key_resp_0.rt,text_1.started,text_1.stopped,key_resp_1.keys,key_resp_1.corr,key_resp_1.rt,key_resp_1.started,key_resp_1.stopped,sound_1A_1.started,sound_1A_1.stopped,break_time.started,break_time.stopped,text_2.started,text_2.stopped,key_resp_2.keys,key_resp_2.corr,key_resp_2.rt,key_resp_2.started,key_resp_2.stopped,sound_1A_2.started,sound_1A_2.stopped,participant,session,date,expName,psychopyVersion,frameRate,
fresh,fresh,0,0,0,0,,,,,,,,,"['f', 'r', 'e', 's', 'h']",1,"[0.9066260600084206, 1.122627327000373, 1.2106739330047276, 1.5385929300100543, 1.6026215279998723]",,,,,,,,,,,,,,,,,,,,,P02_ryan_03_17_22,001,2022_Mar_17_1126,test_typingtask_norepeats,2020.2.10,114.99232965869757,
dream,dream,0,1,1,1,,,,,,,,,"['d', 'r', 'e', 'a', 'm']",1,"[0.8225183220056351, 1.1504628399998182, 1.2065019010042306, 1.3184367380017648, 1.6144581550033763]",,,,,,,,,,,,,,,,,,,,,P02_ryan_03_17_22,001,2022_Mar_17_1126,test_typingtask_norepeats,2020.2.10,114.99232965869757,
slime,slime,0,2,2,2,,,,,,,,,"['s', 'l', 'i', 'm', 'e']",1,"[0.625709560001269, 0.7376751850097207, 0.9296206300059566, 1.089735945002758, 1.273729975000606]",,,,,,,,,,,,,,,,,,,,,P02_ryan_03_17_22,001,2022_Mar_17_1126,test_typingtask_norepeats,2020.2.10,114.99232965869757,
champ,champ,,,,,0,0,0,0,,,,,,,,77.29646845000389,None,"['c', 'h', 'a', 'm', 'p']",1,"[0.8322007539973129, 0.9441949870088138, 1.1361059330083663, 1.2961981139960699, 1.4722207930026343]",77.29646845000389,None,77.29202052720356,None,,,,,,,,,,,,P02_ryan_03_17_22,001,2022_Mar_17_1126,test_typingtask_norepeats,2020.2.10,114.99232965869757,
puppy,puppy,,,,,0,1,1,1,,,,,,,,82.79385618699598,None,"['p', 'u', 'p', 'p', 'y']",1,"[1.0468284069938818, 1.4627940349892015, 1.7667350449919468, 1.9748242669884348, 2.414830419991631]",82.79385618699598,None,82.7902865785989,None,,,,,,,,,,,,P02_ryan_03_17_22,001,2022_Mar_17_1126,test_typingtask_norepeats,2020.2.10,114.99232965869757,
about,about,,,,,0,2,2,2,,,,,,,,88.29984757599595,None,"['a', 'b', 'o', 'u', 't']",1,"[0.5808398029912496, 0.8688257549947593, 1.0607981969951652, 1.132859096993343, 1.3648562869930174]",88.29984757599595,None,88.29661804360221,None,,,,,,,,,,,,P02_ryan_03_17_22,001,2022_Mar_17_1126,test_typingtask_norepeats,2020.2.10,114.99232965869757,
vodka,vodka,,,,,0,3,3,3,,,,,,,,93.80869132200314,None,"['c', 'o', 'd', 'k', 'a']",0,"[0.9839125720027369, 1.09594151499914, 1.3919842780014733, 1.55993786000181, 1.8079955209977925]",93.80869132200314,None,93.80474941260472,None,,,,,,,,,,,,P02_ryan_03_17_22,001,2022_Mar_17_1126,test_typingtask_norepeats,2020.2.10,114.99232965869757,
pykka,pykka,,,,,0,4,4,4,,,,,,,,99.31419409500086,None,"['p', 'u', 'y', 'k', 'k', 'a']",0,"[0.9905183149967343, 1.2783973979967413, 1.2783973979967413, 1.7504611809999915, 1.9985627849964658, 2.222386938010459]",99.31419409500086,None,99.30998747360427,None,,,,,,,,,,,,P02_ryan_03_17_22,001,2022_Mar_17_1126,test_typingtask_norepeats,2020.2.10,114.99232965869757,
think,think,,,,,0,5,5,5,,,,,,,,104.82301500500762,None,"['t', 'h', 'i', 'n', 'k']",1,"[0.7936344850022579, 0.9135836740024388, 1.049684988000081, 1.3136978739930782, 1.409623924002517]",104.82301500500762,None,104.81920017160591,None,,,,,,,,,,,,P02_ryan_03_17_22,001,2022_Mar_17_1126,test_typingtask_norepeats,2020.2.10,114.99232965869757,
isvar,isvar,,,,,0,6,6,6,,,,,,,,110.32996210400597,None,"['i', 's', 'v', 'a', 'r']",1,"[0.8546632999932626, 0.9987244099902455, 1.3107055309956195, 1.4227215659921058, 1.6866240469971672]",110.32996210400597,None,110.32628339160583,None,,,,,,,,,,,,P02_ryan_03_17_22,001,2022_Mar_17_1126,test_typingtask_norepeats,2020.2.10,114.99232965869757,
druze,druze,,,,,0,7,7,7,,,,,,,,115.8364794759982,None,"['d', 'r', 'e', 'z', 'e']",0,"[0.6042056570004206, 0.8841926300083287, 0.9561871220066678, 1.884247365000192, 3.124239277007291]",115.8364794759982,None,115.83009784860478,115.9282709609979,,,,,,,,,,,,P02_ryan_03_17_22,001,2022_Mar_17_1126,test_typingtask_norepeats,2020.2.10,114.99232965869757,
edthe,edthe,,,,,0,8,8,8,,,,,,,,121.34086541300348,None,"['e', 'd', 't', 'h', 'e']",1,"[0.7717782529944088, 0.9877761979878414, 1.2117801099957433, 1.3157142089912668, 1.4997997429891257]",121.34086541300348,None,121.33774378860544,121.43995551200351,,,,,,,,,,,,P02_ryan_03_17_22,001,2022_Mar_17_1126,test_typingtask_norepeats,2020.2.10,114.99232965869757,
there,there,,,,,0,9,9,9,,,,,,,,126.84457002600539,None,"['t', 'h', 'e', 'r', 'e']",1,"[0.6280779340013396, 0.7320337940036552, 0.9000365170068108, 1.004031725009554, 1.1080777870083693]",126.84457002600539,None,126.84134167260781,None,,,,,,,,,,,,P02_ryan_03_17_22,001,2022_Mar_17_1126,test_typingtask_norepeats,2020.2.10,114.99232965869757,
buddy,buddy,,,,,0,10,10,10,,,,,,,,132.34954122200725,None,"['b', 'u', 'f', 'f', 'y']",0,"[0.9551061160018435, 1.0910942780028563, 1.56314943000325, 1.7551697349990718, 1.867089617997408]",132.34954122200725,None,132.3469579366036,None,,,,,,,,,,,,P02_ryan_03_17_22,001,2022_Mar_17_1126,test_typingtask_norepeats,2020.2.10,114.99232965869757,
heond,heond,,,,,0,11,11,11,,,,,,,,137.85617095000634,None,"['h', 'e', 'o', 'n', 'd']",1,"[0.7765164720040048, 1.0725237340084277, 1.1845057090104092, 1.384437494998565, 1.568472090002615]",137.85617095000634,None,137.85261450060062,None,,,,,,,,,,,,P02_ryan_03_17_22,001,2022_Mar_17_1126,test_typingtask_norepeats,2020.2.10,114.99232965869757,
faqir,faqir,,,,,0,12,12,12,,,,,,,,143.3705126929999,None,"['f', 'a', 'q', 'u']",0,"[0.9100958990020445, 1.00617668099585, 1.4861451879987726, 1.6541635249886895]",143.3705126929999,None,143.3644748315972,143.4629373869975,,,,,,,,,,,,P02_ryan_03_17_22,001,2022_Mar_17_1126,test_typingtask_norepeats,2020.2.10,114.99232965869757,
lucky,lucky,,,,,0,13,13,13,,,,,,,,148.87177330699342,None,"['l', 'u', 'c', 'k', 'y']",1,"[0.6088840040029027, 0.9048156200005906, 1.3848730719910236, 1.4729294330027187, 1.712933367001824]",148.87177330699342,None,148.8673899606045,None,,,,,,,,,,,,P02_ryan_03_17_22,001,2022_Mar_17_1126,test_typingtask_norepeats,2020.2.10,114.99232965869757,
edthe,edthe,,,,,0,14,14,14,,,,,,,,154.37601900100708,None,"['e', 'd', 't', 'h', 'e']",1,"[0.840692058991408, 1.0326761449978221, 1.2326151759916684, 1.3445681739976862, 1.4645807609922485]",154.37601900100708,None,154.37321449159646,None,,,,,,,,,,,,P02_ryan_03_17_22,001,2022_Mar_17_1126,test_typingtask_norepeats,2020.2.10,114.99232965869757,
tithe,tithe,,,,,0,15,15,15,,,,,,,,159.88016803200298,None,"['t', 'i', 'h', 'e']",0,"[0.960511723998934, 1.00841847799893, 1.7044762389996322, 1.8244094520050567]",159.88016803200298,None,159.87639430160635,None,,,,,,,,,,,,P02_ryan_03_17_22,001,2022_Mar_17_1126,test_typingtask_norepeats,2020.2.10,114.99232965869757,
pykka,pykka,,,,,0,16,16,16,,,,,,,,165.38957333599683,None,"['p', 'y', 'k', 'k', 'a']",1,"[1.1630743290006649, 1.3630823499988765, 1.7630706049967557, 1.9551053579925792, 2.0830737600044813]",165.38957333599683,None,165.38571262360784,165.4905970539985,,,,,,,,,,,,P02_ryan_03_17_22,001,2022_Mar_17_1126,test_typingtask_norepeats,2020.2.10,114.99232965869757,
isvar,isvar,,,,,0,17,17,17,,,,,,,,170.89352762700582,None,"['i', 's', 'v', 'a', 'r']",1,"[0.6270749590039486, 0.7470686309970915, 0.9790531379985623, 1.0831324049941031, 1.3230960039945785]",170.89352762700582,None,170.8894160175958,None,,,,,,,,,,,,P02_ryan_03_17_22,001,2022_Mar_17_1126,test_typingtask_norepeats,2020.2.10,114.99232965869757,
kremp,kremp,,,,,0,18,18,18,,,,,,,,176.4076919509971,None,"['k', 'r', 'e', 'm', 'p']",1,"[0.7929887289938051, 0.9369122999924002, 1.0010085029934999, 1.185086377998232, 1.3609617879992584]",176.4076919509971,None,176.40461206959736,None,,,,,,,,,,,,P02_ryan_03_17_22,001,2022_Mar_17_1126,test_typingtask_norepeats,2020.2.10,114.99232965869757,
zibja,zibja,,,,,0,19,19,19,,,,,,,,181.9041266419954,None,"['z', 'i', 'b', 'j', 'a']",1,"[0.9445488719939021, 1.1764640319888713, 1.6165594649937702, 1.8965806560008787, 2.0564662919932744]",181.9041266419954,None,181.8981379615987,181.99747174499498,,,,,,,,,,,,P02_ryan_03_17_22,001,2022_Mar_17_1126,test_typingtask_norepeats,2020.2.10,114.99232965869757,
theme,theme,,,,,0,20,20,20,,,,,,,,187.41409601799387,None,"['t', 'h', 'e', 'm', 'e']",1,"[0.738593108006171, 0.834571943996707, 0.9866196710063377, 1.1225488920026692, 1.2826211829960812]",187.41409601799387,None,187.41013986260515,None,,,,,,,,,,,,P02_ryan_03_17_22,001,2022_Mar_17_1126,test_typingtask_norepeats,2020.2.10,114.99232965869757,
faqir,faqir,,,,,0,21,21,21,,,,,,,,192.9133276700013,None,"['f', 'a', 'q', 'i', 'r']",1,"[1.1272729719930794, 1.1913801369955763, 1.8873473040002864, 1.991269991005538, 2.1673804619931616]",192.9133276700013,None,192.90852311459895,None,,,,,,,,,,,,P02_ryan_03_17_22,001,2022_Mar_17_1126,test_typingtask_norepeats,2020.2.10,114.99232965869757,
lucky,lucky,,,,,0,22,22,22,,,,,,,,198.41687945800368,None,"['l', 'u', 'c', 'k', 'y']",1,"[0.6877200000017183, 0.9038112849957542, 1.079752820005524, 1.1998062719940208, 1.4559237999928882]",198.41687945800368,None,198.41341609060765,None,,,,,,,,,,,,P02_ryan_03_17_22,001,2022_Mar_17_1126,test_typingtask_norepeats,2020.2.10,114.99232965869757,
puppy,puppy,,,,,0,23,23,23,,,,,,,,203.92496167200443,None,"['p', 'u', 'p', 'p', 'y']",1,"[0.7717744590045186, 1.0356371009984287, 1.3477261710067978, 1.4836979740066454, 1.7636381250049453]",203.92496167200443,None,203.9213382806018,None,,,,,,,,,,,,P02_ryan_03_17_22,001,2022_Mar_17_1126,test_typingtask_norepeats,2020.2.10,114.99232965869757,
lucky,lucky,,,,,0,24,24,24,,,,,,,,209.4261719950009,None,"['l', 'u', 'c', 'k', 'y']",1,"[0.5824634330056142, 0.814405273005832, 1.1344737720064586, 1.2224906250048662, 1.4385375989950262]",209.4261719950009,None,209.4229016196012,None,,,,,,,,,,,,P02_ryan_03_17_22,001,2022_Mar_17_1126,test_typingtask_norepeats,2020.2.10,114.99232965869757,
think,think,,,,,0,25,25,25,,,,,,,,214.93624533500406,None,"['t', 'h', 'i', 'n', 'k']",1,"[0.6403711610037135, 0.7204179949912941, 0.8244166929944186, 1.0644477379973978, 1.1444312989915488]",214.93624533500406,None,214.93172404460785,None,,,,,,,,,,,,P02_ryan_03_17_22,001,2022_Mar_17_1126,test_typingtask_norepeats,2020.2.10,114.99232965869757,
lucky,lucky,,,,,0,26,26,26,,,,,,,,220.4381795090012,None,"['l', 'u', 'c', 'k', 'y']",1,"[0.5624220190074993, 0.7304279410018353, 0.9144760920025874, 1.0024182330089388, 1.1864895110047655]",220.4381795090012,None,220.434154502608,None,,,,,,,,,,,,P02_ryan_03_17_22,001,2022_Mar_17_1126,test_typingtask_norepeats,2020.2.10,114.99232965869757,
zibja,zibja,,,,,0,27,27,27,,,,,,,,225.93993614200735,None,"['z', 'i', 'b', 'j', 'a']",1,"[1.0046744150022278, 1.0927485630090814, 1.3567650960030733, 1.4687142640032107, 1.596730243996717]",225.93993614200735,None,225.93433436160268,226.03375307099486,,,,,,,,,,,,P02_ryan_03_17_22,001,2022_Mar_17_1126,test_typingtask_norepeats,2020.2.10,114.99232965869757,
vodka,vodka,,,,,0,28,28,28,,,,,,,,231.4468661590072,None,"['v', 'o', 'd', 'a', 'k', 'a']",0,"[1.057829595010844, 1.0817344820097787, 1.3777619690081337, 1.5056927320110844, 2.0497328310011653, 2.225790873999358]",231.4468661590072,None,231.44289145960357,None,,,,,,,,,,,,P02_ryan_03_17_22,001,2022_Mar_17_1126,test_typingtask_norepeats,2020.2.10,114.99232965869757,
think,think,,,,,0,29,29,29,,,,,,,,236.9539786039968,None,"['t', 'h', 'i', 'n', 'k']",1,"[0.67072210299375, 0.7586893800034886, 0.838707354007056, 1.0546906380041037, 1.1666797100042459]",236.9539786039968,None,236.94891383760552,None,,,,,,,,,,,,P02_ryan_03_17_22,001,2022_Mar_17_1126,test_typingtask_norepeats,2020.2.10,114.99232965869757,
buddy,buddy,,,,,0,30,30,30,,,,,,,,242.4555445099977,None,"['b', 'u', 'd', 'd', 'y']",1,"[0.9691531699936604, 1.097194018002483, 1.537215959004243, 1.7132020379940514, 1.8171637299965369]",242.4555445099977,None,242.45132245559654,None,,,,,,,,,,,,P02_ryan_03_17_22,001,2022_Mar_17_1126,test_typingtask_norepeats,2020.2.10,114.99232965869757,
edthe,edthe,,,,,0,31,31,31,,,,,,,,247.9641645780066,None,"['e', 'd', 't', 'h', 'e']",1,"[0.9964856570004486, 1.1964605999964988, 1.5244358869967982, 1.6124579579918645, 1.7325301620003302]",247.9641645780066,None,247.95872083659634,248.05871191699407,,,,,,,,,,,,P02_ryan_03_17_22,001,2022_Mar_17_1126,test_typingtask_norepeats,2020.2.10,114.99232965869757,
kremp,kremp,,,,,0,32,32,32,,,,,,,,253.4644052950025,None,"['k', 'r', 'e', 'm', 'p']",1,"[0.704301852005301, 0.9123354070034111, 0.9922826039983192, 1.1682578100007959, 1.304244580998784]",253.4644052950025,None,253.4605518666038,None,,,,,,,,,,,,P02_ryan_03_17_22,001,2022_Mar_17_1126,test_typingtask_norepeats,2020.2.10,114.99232965869757,
puppy,puppy,,,,,0,33,33,33,,,,,,,,258.97491151400027,None,"['p', 'u', 'p', 'p', 'y']",1,"[0.7696894490072737, 1.001769005000824, 1.3617628820065875, 1.5377769890037598, 1.7377806620061165]",258.97491151400027,None,258.9715266606043,None,,,,,,,,,,,,P02_ryan_03_17_22,001,2022_Mar_17_1126,test_typingtask_norepeats,2020.2.10,114.99232965869757,
pykka,pykka,,,,,0,34,34,34,,,,,,,,264.47765194199746,None,"['p', 'y', 'k', 'k', 'a']",1,"[0.6429998180101393, 0.8829441840061918, 1.33904715400422, 1.5150656500045443, 1.6189804780005943]",264.47765194199746,None,264.47378966459365,None,,,,,,,,,,,,P02_ryan_03_17_22,001,2022_Mar_17_1126,test_typingtask_norepeats,2020.2.10,114.99232965869757,
cheer,cheer,,,,,0,35,35,35,,,,,,,,269.9823610710009,None,"['c', 'h', 'e', 'e', 'r']",1,"[0.6182238939945819, 0.7142940819903743, 1.0182844389928505, 1.2102408950013341, 1.3303329399932409]",269.9823610710009,None,269.9802895105939,None,,,,,,,,,,,,P02_ryan_03_17_22,001,2022_Mar_17_1126,test_typingtask_norepeats,2020.2.10,114.99232965869757,
think,think,,,,,0,36,36,36,,,,,,,,275.48232397899847,None,"['t', 'h', 'i', 'n', 'k']",1,"[0.6463431189913535, 0.7022901419986738, 0.7903716509899823, 0.9663331959891366, 1.0463505149964476]",275.48232397899847,None,275.47991645159783,None,,,,,,,,,,,,P02_ryan_03_17_22,001,2022_Mar_17_1126,test_typingtask_norepeats,2020.2.10,114.99232965869757,
about,about,,,,,0,37,37,37,,,,,,,,280.9878292939975,None,"['a', 'b', 'o', 'u', 't']",1,"[0.5968592569988687, 0.8208548520051409, 0.9167675159987994, 0.9888887309934944, 1.1168623940029647]",280.9878292939975,None,280.98362422060455,None,,,,,,,,,,,,P02_ryan_03_17_22,001,2022_Mar_17_1126,test_typingtask_norepeats,2020.2.10,114.99232965869757,
would,would,,,,,0,38,38,38,,,,,,,,286.4925734309945,None,"['w', 'o', 'u', 'l', 'd']",1,"[0.6600345289916731, 0.7801739150017966, 0.8200326509977458, 1.1481310189992655, 1.3320944500010228]",286.4925734309945,None,286.488399116596,None,,,,,,,,,,,,P02_ryan_03_17_22,001,2022_Mar_17_1126,test_typingtask_norepeats,2020.2.10,114.99232965869757,
therm,therm,,,,,0,39,39,39,,,,,,,,291.98806050099665,None,"['t', 'h', 'e', 'r', 'm']",1,"[0.8845854090031935, 0.9966981530014891, 1.2286606330017094, 1.492641333010397, 1.6047250670089852]",291.98806050099665,None,291.9837608356,None,,,,,,,,,,,,P02_ryan_03_17_22,001,2022_Mar_17_1126,test_typingtask_norepeats,2020.2.10,114.99232965869757,
kremp,kremp,,,,,0,40,40,40,,,,,,,,297.5029724939959,None,"['k', 'r', 'e', 'm', 'p']",1,"[0.6097540260088863, 0.8256322830129648, 0.9057380779995583, 0.9857174170028884, 1.1377418440097244]",297.5029724939959,None,297.4989744065941,None,,,,,,,,,,,,P02_ryan_03_17_22,001,2022_Mar_17_1126,test_typingtask_norepeats,2020.2.10,114.99232965869757,
therm,therm,,,,,0,41,41,41,,,,,,,,302.9997033660038,None,"['t', 'h', 'e', 'r', 'm']",1,"[0.569004272998427, 0.6489005659968825, 0.8489779859955888, 0.9529550639999798, 1.0650050880067283]",302.9997033660038,None,302.99721491060046,None,,,,,,,,,,,,P02_ryan_03_17_22,001,2022_Mar_17_1126,test_typingtask_norepeats,2020.2.10,114.99232965869757,
would,would,,,,,0,42,42,42,,,,,,,,308.51504962499894,None,"['w', 'o', 'u', 'l', 'd']",1,"[0.6056345510005485, 0.7096231150062522, 0.8055475650035078, 1.1656093470082851, 1.3176600330043584]",308.51504962499894,None,308.51087736460323,None,,,,,,,,,,,,P02_ryan_03_17_22,001,2022_Mar_17_1126,test_typingtask_norepeats,2020.2.10,114.99232965869757,
tithe,tithe,,,,,0,43,43,43,,,,,,,,314.0112304899958,None,"['t', 'i', 't', 'h', 'e']",1,"[1.1894315409881528, 1.7654185449937358, 2.005456138998852, 2.3574630649964092, 2.5013642909907503]",314.0112304899958,None,314.0066717975977,None,,,,,,,,,,,,P02_ryan_03_17_22,001,2022_Mar_17_1126,test_typingtask_norepeats,2020.2.10,114.99232965869757,
cooed,cooed,,,,,0,44,44,44,,,,,,,,319.5168696030014,None,"['c', 'o', 'o', 'e', 'd']",1,"[0.7238253240066115, 1.0197226040036185, 1.179738979000831, 1.331710237005609, 1.5638394020061241]",319.5168696030014,None,319.5138562635955,319.6136304910033,,,,,,,,,,,,P02_ryan_03_17_22,001,2022_Mar_17_1126,test_typingtask_norepeats,2020.2.10,114.99232965869757,
pykka,pykka,,,,,0,45,45,45,,,,,,,,325.02147400699323,None,"['p', 'y', 'k', 'k', 'a']",1,"[0.8512474780000048, 1.1232043750060257, 1.4991706850123592, 1.6831263490021229, 1.8032268430106342]",325.02147400699323,None,325.0170113836037,None,,,,,,,,,,,,P02_ryan_03_17_22,001,2022_Mar_17_1126,test_typingtask_norepeats,2020.2.10,114.99232965869757,
tithe,tithe,,,,,0,46,46,46,,,,,,,,330.52769666600216,None,"['t', 'i', 't', 'h', 'e']",1,"[0.9609557969961315, 1.0968993679998675, 1.537004806988989, 1.6249520419951295, 1.808964408992324]",330.52769666600216,None,330.52444814459597,None,,,,,,,,,,,,P02_ryan_03_17_22,001,2022_Mar_17_1126,test_typingtask_norepeats,2020.2.10,114.99232965869757,
vodka,vodka,,,,,0,47,47,47,,,,,,,,336.0242722520052,None,"['v', 'o', 'd', 'k', 'a']",1,"[1.6243645170034142, 1.704426316995523, 1.936319102998823, 2.0403783840010874, 2.192422981999698]",336.0242722520052,None,336.02074378559774,None,,,,,,,,,,,,P02_ryan_03_17_22,001,2022_Mar_17_1126,test_typingtask_norepeats,2020.2.10,114.99232965869757,
isvar,isvar,,,,,0,48,48,48,,,,,,,,341.53810616000555,None,"['i', 's', 'c', 'a', 'r']",0,"[0.8465882010059431, 0.9585838710045209, 1.1905946410115575, 1.302548347011907, 1.4944889410107862]",341.53810616000555,None,341.5341262176051,None,,,,,,,,,,,,P02_ryan_03_17_22,001,2022_Mar_17_1126,test_typingtask_norepeats,2020.2.10,114.99232965869757,
druze,druze,,,,,0,49,49,49,,,,,,,,347.04523890100245,None,"['d', 'r', 'u', 'z', 'e']",1,"[1.0834185869898647, 1.3154253569955472, 1.4593490729894256, 1.643405544993584, 1.8754735209950013]",347.04523890100245,None,347.04121014159756,None,,,,,,,,,,,,P02_ryan_03_17_22,001,2022_Mar_17_1126,test_typingtask_norepeats,2020.2.10,114.99232965869757,
would,would,,,,,0,50,50,50,,,,,,,,352.549344804007,None,"['w', 'o', 'u', 'l', 'd']",1,"[0.5793630080006551, 0.6753669339959743, 0.7874280899995938, 1.1072854189987993, 1.2673496210045414]",352.549344804007,None,352.54672381259735,None,,,,,,,,,,,,P02_ryan_03_17_22,001,2022_Mar_17_1126,test_typingtask_norepeats,2020.2.10,114.99232965869757,
faqir,faqir,,,,,0,51,51,51,,,,,,,,358.05830142200284,None,"['f', 'a', 'q', 'i', 'r']",1,"[0.8543564110004809, 0.9183428329997696, 1.534408983992762, 1.6783659780048765, 2.182409059998463]",358.05830142200284,None,358.05407088360226,None,,,,,,,,,,,,P02_ryan_03_17_22,001,2022_Mar_17_1126,test_typingtask_norepeats,2020.2.10,114.99232965869757,
belly,belly,,,,,0,52,52,52,,,,,,,,363.5643869790074,None,"['v', 'e', 'w', 'l', 'l', 'y']",0,"[0.8682035009987885, 0.9723054060013965, 0.9802209890040103, 1.2603211030072998, 1.4683301780023612, 1.6762782880105078]",363.5643869790074,None,363.5605348326033,None,,,,,,,,,,,,P02_ryan_03_17_22,001,2022_Mar_17_1126,test_typingtask_norepeats,2020.2.10,114.99232965869757,
theme,theme,,,,,0,53,53,53,,,,,,,,369.06462433800334,None,"['t', 'h', 'e', 'm', 'e']",1,"[0.9440320430003339, 1.056066577002639, 1.279962428001454, 1.5119718269997975, 1.7440600950067164]",369.06462433800334,None,369.0605379836023,None,,,,,,,,,,,,P02_ryan_03_17_22,001,2022_Mar_17_1126,test_typingtask_norepeats,2020.2.10,114.99232965869757,
heond,heond,,,,,0,54,54,54,,,,,,,,374.57413245800126,None,"['d', 'e', 'o', 'n', 'd']",0,"[1.298465079991729, 1.5225578749959823, 1.642577969992999, 1.7625220059999265, 1.9545542569976533]",374.57413245800126,None,374.57094475360356,374.6765185819968,,,,,,,,,,,,P02_ryan_03_17_22,001,2022_Mar_17_1126,test_typingtask_norepeats,2020.2.10,114.99232965869757,
therm,therm,,,,,0,55,55,55,,,,,,,,380.0807672420051,None,"['t', 'h', 'e', 'r', 'm']",1,"[0.903934322996065, 0.9999514989904128, 1.1439211379911285, 1.5198859819938662, 1.6158569499966688]",380.0807672420051,None,380.0767881075997,None,,,,,,,,,,,,P02_ryan_03_17_22,001,2022_Mar_17_1126,test_typingtask_norepeats,2020.2.10,114.99232965869757,
belly,belly,,,,,0,56,56,56,,,,,,,,385.585533133999,None,"['b', 'e', 'l', 'l', 'y']",1,"[0.7911103260121308, 0.9030618460092228, 1.2631265020027058, 1.4710844400105998, 1.6951831910118926]",385.585533133999,None,385.58102508260055,None,,,,,,,,,,,,P02_ryan_03_17_22,001,2022_Mar_17_1126,test_typingtask_norepeats,2020.2.10,114.99232965869757,
champ,champ,,,,,0,57,57,57,,,,,,,,391.08589062800456,None,"['c', 'h', 'a', 'm', 'p']",1,"[0.7627981959958561, 0.8747532220004359, 1.0267563899978995, 1.1387490360066295, 1.2508400920050917]",391.08589062800456,None,391.0816824666079,None,,,,,,,,,,,,P02_ryan_03_17_22,001,2022_Mar_17_1126,test_typingtask_norepeats,2020.2.10,114.99232965869757,
druze,druze,,,,,0,58,58,58,,,,,,,,396.59733206899546,None,"['d', 'r', 'u', 'z', 'e']",1,"[0.5873352049966343, 0.8352783800073666, 1.0513603889994556, 1.283352892001858, 1.5792528409947408]",396.59733206899546,None,396.59325549359784,None,,,,,,,,,,,,P02_ryan_03_17_22,001,2022_Mar_17_1126,test_typingtask_norepeats,2020.2.10,114.99232965869757,
tithe,tithe,,,,,0,59,59,59,,,,,,,,402.10554609699466,None,"['t', 'i', 'h', 'e']",0,"[1.03904810801032, 1.095151526009431, 2.2950327760045184, 2.3831440369976917]",402.10554609699466,None,402.101921735605,None,,,,,,,,,,,,P02_ryan_03_17_22,001,2022_Mar_17_1126,test_typingtask_norepeats,2020.2.10,114.99232965869757,
heond,heond,,,,,0,60,60,60,,,,,,,,407.61295860000246,None,"['d', 'e', 'o', 'n', 'd']",0,"[0.6676936360017862, 0.8916596640046919, 1.0197243820002768, 1.1396918160025962, 1.4676218860113295]",407.61295860000246,None,407.609532208601,None,,,,,,,,,,,,P02_ryan_03_17_22,001,2022_Mar_17_1126,test_typingtask_norepeats,2020.2.10,114.99232965869757,
belly,belly,,,,,0,61,61,61,,,,,,,,413.12290774799476,None,"['b', 'e', 'l', 'l', 'y']",1,"[0.9497455999953672, 1.0618107670015888, 1.381675954995444, 1.6057465949998004, 1.9817264710000018]",413.12290774799476,None,413.11901856159676,None,,,,,,,,,,,,P02_ryan_03_17_22,001,2022_Mar_17_1126,test_typingtask_norepeats,2020.2.10,114.99232965869757,
faqir,faqir,,,,,0,62,62,62,,,,,,,,418.62771894400066,None,"['f', 'a', 'q', 'i', 'e']",0,"[0.8849928099953104, 0.949003570000059, 1.3488754769932711, 1.492971639992902, 1.6369982780015562]",418.62771894400066,None,418.6233786815981,418.7225429030077,,,,,,,,,,,,P02_ryan_03_17_22,001,2022_Mar_17_1126,test_typingtask_norepeats,2020.2.10,114.99232965869757,
cheer,cheer,,,,,0,63,63,63,,,,,,,,424.12489538699447,None,"['c', 'h', 'e', 'e', 'r']",1,"[0.667822157003684, 0.8038339220074704, 1.1317761160025839, 1.3318633300077636, 1.451707015003194]",424.12489538699447,None,424.12115366759537,None,,,,,,,,,,,,P02_ryan_03_17_22,001,2022_Mar_17_1126,test_typingtask_norepeats,2020.2.10,114.99232965869757,
buddy,buddy,,,,,0,64,64,64,,,,,,,,429.624186112007,None,"['b', 'u', 'd', 'd', 'y']",1,"[0.8805160329939099, 1.0245334709907183, 1.4884835539996857, 1.6404892169957748, 1.7285022189898882]",429.624186112007,None,429.6207930866047,None,,,,,,,,,,,,P02_ryan_03_17_22,001,2022_Mar_17_1126,test_typingtask_norepeats,2020.2.10,114.99232965869757,
champ,champ,,,,,0,65,65,65,,,,,,,,435.1396685530053,None,"['c', 'h', 'a', 'm', 'p']",1,"[0.6690199959994061, 0.789033061999362, 0.9410797890013782, 1.076987474996713, 1.21293081100157]",435.1396685530053,None,435.13515604760033,None,,,,,,,,,,,,P02_ryan_03_17_22,001,2022_Mar_17_1126,test_typingtask_norepeats,2020.2.10,114.99232965869757,
haole,haole,,,,,0,66,66,66,,,,,,,,440.641176856996,None,"['h', 'a', 'o', 'l', 'e']",1,"[1.1675036999949953, 1.343413367998437, 1.4875065020023612, 1.7594813129981048, 1.8955180719931377]",440.641176856996,None,440.63825996560337,440.74285477699596,,,,,,,,,,,,P02_ryan_03_17_22,001,2022_Mar_17_1126,test_typingtask_norepeats,2020.2.10,114.99232965869757,
cooed,cooed,,,,,0,67,67,67,,,,,,,,446.14574170099513,None,"['c', 'o', 'o', 'e', 'd']",1,"[0.7669766770122806, 1.1269318030099384, 1.2869281489984132, 1.4469414800114464, 1.6629648530069971]",446.14574170099513,None,446.14235914360034,446.2417045189941,,,,,,,,,,,,P02_ryan_03_17_22,001,2022_Mar_17_1126,test_typingtask_norepeats,2020.2.10,114.99232965869757,
kremp,kremp,,,,,0,68,68,68,,,,,,,,451.6581455179985,None,"['k', 'r', 'e', 'm', 'p']",1,"[0.742545261993655, 0.8864276910026092, 0.9745108979986981, 1.0626835769944591, 1.206503989000339]",451.6581455179985,None,451.65427615759546,None,,,,,,,,,,,,P02_ryan_03_17_22,001,2022_Mar_17_1126,test_typingtask_norepeats,2020.2.10,114.99232965869757,
there,there,,,,,0,69,69,69,,,,,,,,457.1588707470073,None,"['t', 'h', 'e', 'r', 'e']",1,"[0.6898171569919214, 0.7778194679995067, 0.9779405760054942, 1.0017135200032499, 1.1298116599937202]",457.1588707470073,None,457.154910559603,None,,,,,,,,,,,,P02_ryan_03_17_22,001,2022_Mar_17_1126,test_typingtask_norepeats,2020.2.10,114.99232965869757,
edthe,edthe,,,,,0,70,70,70,,,,,,,,462.6611988549994,None,"['e', 'd', 't', 'h', 'e']",1,"[0.7234686269948725, 0.9474568599980557, 1.1714955600036774, 1.2594738519983366, 1.41951591099496]",462.6611988549994,None,462.6580088115996,None,,,,,,,,,,,,P02_ryan_03_17_22,001,2022_Mar_17_1126,test_typingtask_norepeats,2020.2.10,114.99232965869757,
champ,champ,,,,,0,71,71,71,,,,,,,,468.1698745100002,None,"['c', 'a', 'h', 'm', 'p']",0,"[0.6148414080089424, 0.7188391509989742, 0.8308371080056531, 1.2148228880105307, 1.4067675030091777]",468.1698745100002,None,468.16499454060687,None,,,,,,,,,,,,P02_ryan_03_17_22,001,2022_Mar_17_1126,test_typingtask_norepeats,2020.2.10,114.99232965869757,
heond,heond,,,,,0,72,72,72,,,,,,,,473.67901068400533,None,"['d', 'e', 'o', 'n', 'd']",0,"[0.817668996998691, 1.1296167120017344, 1.3376321500109043, 1.5456049220083514, 1.8976910620112903]",473.67901068400533,None,473.6751048445993,None,,,,,,,,,,,,P02_ryan_03_17_22,001,2022_Mar_17_1126,test_typingtask_norepeats,2020.2.10,114.99232965869757,
belly,belly,,,,,0,73,73,73,,,,,,,,479.1806478660001,None,"['b', 'e', 'l', 'l', 'y']",1,"[1.06800573199871, 1.292048233008245, 1.5959842890006257, 1.8120748929941328, 2.067971351003507]",479.1806478660001,None,479.1762467336055,None,,,,,,,,,,,,P02_ryan_03_17_22,001,2022_Mar_17_1126,test_typingtask_norepeats,2020.2.10,114.99232965869757,
there,there,,,,,0,74,74,74,,,,,,,,484.6842610540043,None,"['t', 'h', 'e', 'r', 'e']",1,"[0.6204433219972998, 0.732409504998941, 0.892415765003534, 0.972336610997445, 1.076341391002643]",484.6842610540043,None,484.68174282360707,None,,,,,,,,,,,,P02_ryan_03_17_22,001,2022_Mar_17_1126,test_typingtask_norepeats,2020.2.10,114.99232965869757,
about,about,,,,,0,75,75,75,,,,,,,,490.190570908002,None,"['a', 'b', 'o', 'u', 't']",1,"[0.698074837011518, 0.9620898499997566, 1.1221095790097024, 1.21007328601263, 1.3540876320039388]",490.190570908002,None,490.186750743608,None,,,,,,,,,,,,P02_ryan_03_17_22,001,2022_Mar_17_1126,test_typingtask_norepeats,2020.2.10,114.99232965869757,
tithe,tithe,,,,,0,76,76,76,,,,,,,,495.69288887600123,None,"['t', 'i', 'h', 'e']",0,"[0.8598204650043044, 0.9318226460018195, 2.3557004670001334, 2.4597616469982313]",495.69288887600123,None,495.6895503926033,495.7893353010004,,,,,,,,,,,,P02_ryan_03_17_22,001,2022_Mar_17_1126,test_typingtask_norepeats,2020.2.10,114.99232965869757,
cooed,cooed,,,,,0,77,77,77,,,,,,,,501.1888745400065,None,"['c', 'o', 'o', 'e', 'd']",1,"[0.8278832659998443, 1.0757106660021236, 1.2837604060041485, 1.4757043910067296, 1.9717831650050357]",501.1888745400065,None,501.1848809006013,None,,,,,,,,,,,,P02_ryan_03_17_22,001,2022_Mar_17_1126,test_typingtask_norepeats,2020.2.10,114.99232965869757,
puppy,puppy,,,,,0,78,78,78,,,,,,,,506.69453614200756,None,"['p', 'u', 'p', 'p', 'y']",1,"[0.6901722339971457, 0.9141333370062057, 1.1461676049948437, 1.3621891450020485, 1.554149645002326]",506.69453614200756,None,506.6911245576019,None,,,,,,,,,,,,P02_ryan_03_17_22,001,2022_Mar_17_1126,test_typingtask_norepeats,2020.2.10,114.99232965869757,
about,about,,,,,0,79,79,79,,,,,,,,512.1977690259955,None,"['a', 'b', 'o', 'u', 't']",1,"[0.562876989992219, 0.8269332899944857, 0.9948295299982419, 1.0589316209952813, 1.2349250749975909]",512.1977690259955,None,512.1939054976071,None,,,,,,,,,,,,P02_ryan_03_17_22,001,2022_Mar_17_1126,test_typingtask_norepeats,2020.2.10,114.99232965869757,
haole,haole,,,,,0,80,80,80,,,,,,,,517.7031089759985,None,"['h', 'a', 'o', 'l', 'e']",1,"[0.9375586870010011, 1.0574776349967578, 1.3374909279955318, 1.5694786910025869, 1.761593768998864]",517.7031089759985,None,517.699018954602,None,,,,,,,,,,,,P02_ryan_03_17_22,001,2022_Mar_17_1126,test_typingtask_norepeats,2020.2.10,114.99232965869757,
buddy,buddy,,,,,0,81,81,81,,,,,,,,523.2122191939998,None,"['b', 'u', 'd', 'd', 'y']",1,"[0.9083667439990677, 1.0524817170080496, 1.4524873140035197, 1.596449044009205, 1.692375502010691]",523.2122191939998,None,523.2066759276029,523.3087448529986,,,,,,,,,,,,P02_ryan_03_17_22,001,2022_Mar_17_1126,test_typingtask_norepeats,2020.2.10,114.99232965869757,
there,there,,,,,0,82,82,82,,,,,,,,528.7157413889945,None,"['t', 'h', 'e', 'r', 'e']",1,"[0.7169830339989858, 0.8449483629956376, 1.020873515997664, 1.1169193709938554, 1.2289069089893019]",528.7157413889945,None,528.713710613604,None,,,,,,,,,,,,P02_ryan_03_17_22,001,2022_Mar_17_1126,test_typingtask_norepeats,2020.2.10,114.99232965869757,
would,would,,,,,0,83,83,83,,,,,,,,534.2154858139984,None,"['w', 'o', 'u', 'l', 'd']",1,"[0.7052061530121136, 0.8011116180132376, 0.9291872560133925, 1.2091649190115277, 1.329106335004326]",534.2154858139984,None,534.2112554236053,None,,,,,,,,,,,,P02_ryan_03_17_22,001,2022_Mar_17_1126,test_typingtask_norepeats,2020.2.10,114.99232965869757,
theme,theme,,,,,0,84,84,84,,,,,,,,539.7195562550041,None,"['t', 'h', 'e', 'm', 'e']",1,"[0.6570472299936228, 0.7930505039985292, 0.9211066809948534, 1.1850775359926047, 1.3531166479951935]",539.7195562550041,None,539.714774437595,None,,,,,,,,,,,,P02_ryan_03_17_22,001,2022_Mar_17_1126,test_typingtask_norepeats,2020.2.10,114.99232965869757,
kremp,kremp,,,,,0,85,85,85,,,,,,,,545.2246796249965,None,"['k', 'r', 'e', 'm', 'p']",1,"[0.6719875379931182, 0.8559743700025138, 0.9519691530003911, 1.832031835001544, 1.9199784049997106]",545.2246796249965,None,545.2214910045993,None,,,,,,,,,,,,P02_ryan_03_17_22,001,2022_Mar_17_1126,test_typingtask_norepeats,2020.2.10,114.99232965869757,
faqir,faqir,,,,,0,86,86,86,,,,,,,,550.7390535239974,None,"['f', 'a', 'q', 'i', 'r']",1,"[1.2056117280008039, 1.4376002619974315, 2.053580982988933, 2.237567186995875, 2.4375462059979327]",550.7390535239974,None,550.734529182603,None,,,,,,,,,,,,P02_ryan_03_17_22,001,2022_Mar_17_1126,test_typingtask_norepeats,2020.2.10,114.99232965869757,
would,would,,,,,0,87,87,87,,,,,,,,556.2373257199943,None,"['w', 'o', 'u', 'l', 'd']",1,"[0.5793496450060047, 0.6513605780055514, 0.7393497960001696, 0.9552922720031347, 1.0673385270056315]",556.2373257199943,None,556.232733831607,None,,,,,,,,,,,,P02_ryan_03_17_22,001,2022_Mar_17_1126,test_typingtask_norepeats,2020.2.10,114.99232965869757,
cooed,cooed,,,,,0,88,88,88,,,,,,,,561.7475074219983,None,"['c', 'o', 'o', 'e', 'd']",1,"[0.7970966400025645, 0.9970705379964784, 1.1890754060004838, 1.2851502779958537, 1.413402196005336]",561.7475074219983,None,561.7433613855944,None,,,,,,,,,,,,P02_ryan_03_17_22,001,2022_Mar_17_1126,test_typingtask_norepeats,2020.2.10,114.99232965869757,
zibja,zibja,,,,,0,89,89,89,,,,,,,,567.2429472499934,None,"['z', 'i', 'b', 'j', 'a']",1,"[0.9257438409986207, 1.0856563549896237, 1.3576630189927528, 1.5336561320000328, 1.6697842509893235]",567.2429472499934,None,567.2381788215978,None,,,,,,,,,,,,P02_ryan_03_17_22,001,2022_Mar_17_1126,test_typingtask_norepeats,2020.2.10,114.99232965869757,
haole,haole,,,,,0,90,90,90,,,,,,,,572.7560225360066,None,"['h', 'a', 'o', 'l', 'e']",1,"[1.0765714290027972, 1.26062736401218, 1.3965887980011757, 1.6446479690057458, 1.8206475480110385]",572.7560225360066,None,572.7525529466045,None,,,,,,,,,,,,P02_ryan_03_17_22,001,2022_Mar_17_1126,test_typingtask_norepeats,2020.2.10,114.99232965869757,
zibja,zibja,,,,,0,91,91,91,,,,,,,,578.2587382920028,None,"['a', 'z', 'i', 'b', 'j', 'a']",0,"[0.725968949001981, 0.725968949001981, 0.7979101039964007, 1.9898401300015394, 2.0618840740062296, 2.141952019010205]",578.2587382920028,None,578.2548581015988,None,,,,,,,,,,,,P02_ryan_03_17_22,001,2022_Mar_17_1126,test_typingtask_norepeats,2020.2.10,114.99232965869757,
druze,druze,,,,,0,92,92,92,,,,,,,,583.7634266230016,None,"['d', 'r', 'u', 'z', 'e']",1,"[0.8052952199941501, 1.029168821987696, 1.2052253829897381, 1.4372027849894948, 1.685228096001083]",583.7634266230016,None,583.759483202605,None,,,,,,,,,,,,P02_ryan_03_17_22,001,2022_Mar_17_1126,test_typingtask_norepeats,2020.2.10,114.99232965869757,
therm,therm,,,,,0,93,93,93,,,,,,,,589.2638361629943,None,"['t', 'h', 'e', 'r', 'm']",1,"[0.7927953420003178, 0.8808417510008439, 1.2008584340073867, 1.2888279510079883, 1.3527528340055142]",589.2638361629943,None,589.2594591055938,None,,,,,,,,,,,,P02_ryan_03_17_22,001,2022_Mar_17_1126,test_typingtask_norepeats,2020.2.10,114.99232965869757,
heond,heond,,,,,0,94,94,94,,,,,,,,594.7707690840034,None,"['d', 'e', 'o', 'n', 'd']",0,"[0.8138142240059096, 1.0219408060074784, 1.237880758009851, 1.3579296490061097, 1.5739129069988849]",594.7707690840034,None,594.7673104776011,None,,,,,,,,,,,,P02_ryan_03_17_22,001,2022_Mar_17_1126,test_typingtask_norepeats,2020.2.10,114.99232965869757,
think,think,,,,,0,95,95,95,,,,,,,,600.2738653770066,None,"['t', 'h', 'i', 'n', 'k']",1,"[0.6467907540063607, 0.718832084996393, 0.7988551769958576, 0.950826076004887, 1.070811487006722]",600.2738653770066,None,600.2696337286004,None,,,,,,,,,,,,P02_ryan_03_17_22,001,2022_Mar_17_1126,test_typingtask_norepeats,2020.2.10,114.99232965869757,
vodka,vodka,,,,,0,96,96,96,,,,,,,,605.7878652829968,None,"['w', 'o', 'k', 'd', 'a']",0,"[0.6687352049921174, 0.7887256340036402, 1.044832191997557, 2.148777729002177, 2.2048018039931776]",605.7878652829968,None,605.7825231405993,605.8809012130077,,,,,,,,,,,,P02_ryan_03_17_22,001,2022_Mar_17_1126,test_typingtask_norepeats,2020.2.10,114.99232965869757,
edthe,edthe,,,,,0,97,97,97,,,,,,,,611.2925037700043,None,"['e', 'd', 't', 'h', 'e']",1,"[0.8121480139961932, 0.9961818489973666, 1.2042266309872502, 1.3481965299870353, 1.460212996986229]",611.2925037700043,None,611.2890346846077,None,,,,,,,,,,,,P02_ryan_03_17_22,001,2022_Mar_17_1126,test_typingtask_norepeats,2020.2.10,114.99232965869757,
pykka,pykka,,,,,0,98,98,98,,,,,,,,616.7922306679975,None,"['p', 'u', 'k', 'k', 'a']",0,"[0.7284360009944066, 0.9524632939865114, 1.2405043859907892, 1.456444642986753, 1.6404883919894928]",616.7922306679975,None,616.788658546601,None,,,,,,,,,,,,P02_ryan_03_17_22,001,2022_Mar_17_1126,test_typingtask_norepeats,2020.2.10,114.99232965869757,
haole,haole,,,,,0,99,99,99,,,,,,,,622.2915704379993,None,"['h', 'a', 'o', 'l', 'e']",1,"[1.1171363569883397, 1.2932296319922898, 1.3971451099932892, 1.6530273069947725, 1.7890867389942287]",622.2915704379993,None,622.2888105846039,None,,,,,,,,,,,,P02_ryan_03_17_22,001,2022_Mar_17_1126,test_typingtask_norepeats,2020.2.10,114.99232965869757,
cheer,cheer,,,,,0,100,100,100,,,,,,,,627.8074933010066,None,"['c', 'h', 'e', 'e', 'r']",1,"[0.6651984399941284, 0.785139490995789, 1.0171966119960416, 1.1531110989890294, 1.2411309669987531]",627.8074933010066,None,627.8007970685983,627.9010472070077,,,,,,,,,,,,P02_ryan_03_17_22,001,2022_Mar_17_1126,test_typingtask_norepeats,2020.2.10,114.99232965869757,
zibja,zibja,,,,,0,101,101,101,,,,,,,,633.3095533229935,None,"['z', 'i', 'b', 'j', 'a']",1,"[0.8672331200068584, 0.9950739390042145, 1.2271497390029253, 1.339160820003599, 1.4671261509938631]",633.3095533229935,None,633.3058435366081,None,,,,,,,,,,,,P02_ryan_03_17_22,001,2022_Mar_17_1126,test_typingtask_norepeats,2020.2.10,114.99232965869757,
puppy,puppy,,,,,0,102,102,102,,,,,,,,638.8108741769975,None,"['p', 'u', 'p', 'p', 'y']",1,"[1.0618273080035578, 1.2457762840058422, 1.4858454570057802, 1.6458341310062679, 1.805805379000958]",638.8108741769975,None,638.8074124305974,None,,,,,,,,,,,,P02_ryan_03_17_22,001,2022_Mar_17_1126,test_typingtask_norepeats,2020.2.10,114.99232965869757,
isvar,isvar,,,,,0,103,103,103,,,,,,,,644.3194841359946,None,"['i', 'z', 'v', 'a', 'r']",0,"[0.7211779999925056, 0.8090989289921708, 1.1132355559966527, 1.1291902419907274, 1.3852073269954417]",644.3194841359946,None,644.3155211165983,None,,,,,,,,,,,,P02_ryan_03_17_22,001,2022_Mar_17_1126,test_typingtask_norepeats,2020.2.10,114.99232965869757,
vodka,vodka,,,,,0,104,104,104,,,,,,,,649.831297990997,None,"['v', 'o', 'd', 'k', 'a']",1,"[1.2734148500021547, 1.4253802230086876, 1.777382487009163, 1.9293613769987132, 2.0333572710078442]",649.831297990997,None,649.8270589935971,None,,,,,,,,,,,,P02_ryan_03_17_22,001,2022_Mar_17_1126,test_typingtask_norepeats,2020.2.10,114.99232965869757,
cheer,cheer,,,,,0,105,105,105,,,,,,,,655.3317239470052,None,"['c', 'h', 'e', 'e', 'r']",1,"[0.6689701800059993, 0.77290212000662, 1.0129811670049094, 1.1568995279958472, 1.1969239989994094]",655.3317239470052,None,655.3280505085975,None,,,,,,,,,,,,P02_ryan_03_17_22,001,2022_Mar_17_1126,test_typingtask_norepeats,2020.2.10,114.99232965869757,
lucky,lucky,,,,,0,106,106,106,,,,,,,,660.8410150900017,None,"['l', 'u', 'c', 'k', 'y']",1,"[0.7755839949968504, 0.9755942670017248, 1.527609009994194, 1.6156290999933844, 1.799661183002172]",660.8410150900017,None,660.8365560646023,None,,,,,,,,,,,,P02_ryan_03_17_22,001,2022_Mar_17_1126,test_typingtask_norepeats,2020.2.10,114.99232965869757,
belly,belly,,,,,0,107,107,107,,,,,,,,666.3387826200051,None,"['b', 'e', 'l', 'l', 'y']",1,"[0.7499372320016846, 0.8299361829995178, 1.0458855770120863, 1.2458620090037584, 1.325927636004053]",666.3387826200051,None,666.3344313195964,None,,,,,,,,,,,,P02_ryan_03_17_22,001,2022_Mar_17_1126,test_typingtask_norepeats,2020.2.10,114.99232965869757,
therm,therm,,,,,0,108,108,108,,,,,,,,671.8428882349981,None,"['t', 'h', 'e', 'r', 'm']",1,"[0.9017929499968886, 1.021709919004934, 1.261764362003305, 1.3338983410067158, 1.4697897020087112]",671.8428882349981,None,671.8395717326027,None,,,,,,,,,,,,P02_ryan_03_17_22,001,2022_Mar_17_1126,test_typingtask_norepeats,2020.2.10,114.99232965869757,
buddy,buddy,,,,,0,109,109,109,,,,,,,,677.3504105290049,None,"['b', 'u', 'd', 'd', 'y']",1,"[0.9062983580079162, 1.0103310600097757, 1.2661960450059269, 1.410199821999413, 1.5302730960102053]",677.3504105290049,None,677.3473977406072,677.4465648409969,,,,,,,,,,,,P02_ryan_03_17_22,001,2022_Mar_17_1126,test_typingtask_norepeats,2020.2.10,114.99232965869757,
cooed,cooed,,,,,0,110,110,110,,,,,,,,682.856212587998,None,"['c', 'o', 'o', 'e', 'd']",1,"[0.6244441419985378, 0.9284087550040567, 1.0884693240077468, 1.1604769819969079, 1.240464240006986]",682.856212587998,None,682.8523077596008,None,,,,,,,,,,,,P02_ryan_03_17_22,001,2022_Mar_17_1126,test_typingtask_norepeats,2020.2.10,114.99232965869757,
champ,champ,,,,,0,111,111,111,,,,,,,,688.3599216010043,None,"['c', 'h', 'a', 'm', 'p']",1,"[0.8328874430008, 0.9207445649954025, 1.1127975559938932, 1.1767730029969243, 1.2967437829938717]",688.3599216010043,None,688.3552393146063,688.4550287540042,,,,,,,,,,,,P02_ryan_03_17_22,001,2022_Mar_17_1126,test_typingtask_norepeats,2020.2.10,114.99232965869757,
about,about,,,,,0,112,112,112,,,,,,,,693.858716992996,None,"['a', 'b', 'o', 'u', 't']",1,"[0.6139749199937796, 0.8859786190005252, 1.0459236079914263, 1.1259926869970514, 1.2539403029950336]",693.858716992996,None,693.8553391026041,None,,,,,,,,,,,,P02_ryan_03_17_22,001,2022_Mar_17_1126,test_typingtask_norepeats,2020.2.10,114.99232965869757,
druze,druze,,,,,0,113,113,113,,,,,,,,699.3700089399936,None,"['d', 'r', 'u', 'z', 'e']",1,"[0.6947034409968182, 1.0065874680003617, 1.1827100239897845, 1.438620239001466, 1.7186768969986588]",699.3700089399936,None,699.3651381436036,None,,,,,,,,,,,,P02_ryan_03_17_22,001,2022_Mar_17_1126,test_typingtask_norepeats,2020.2.10,114.99232965869757,
cheer,cheer,,,,,0,114,114,114,,,,,,,,704.875057281999,None,"['c', 'h', 'e', 'e', 'r']",1,"[0.6696315209992463, 0.8136542910069693, 1.1255590340006165, 1.2856545640097465, 1.3736051220039371]",704.875057281999,None,704.871044381606,None,,,,,,,,,,,,P02_ryan_03_17_22,001,2022_Mar_17_1126,test_typingtask_norepeats,2020.2.10,114.99232965869757,
there,there,,,,,0,115,115,115,,,,,,,,710.3900410509959,None,"['t', 'h', 'e', 'r', 'e']",1,"[0.7865684139978839, 0.8907484840019606, 1.0906758210039698, 1.1706002129940316, 1.2906724229978863]",710.3900410509959,None,710.3856977396033,710.4906889880076,,,,,,,,,,,,P02_ryan_03_17_22,001,2022_Mar_17_1126,test_typingtask_norepeats,2020.2.10,114.99232965869757,
theme,theme,,,,,0,116,116,116,,,,,,,,715.8878638930037,None,"['t', 'h', 'e', 'm', 'e']",1,"[0.7367857789940899, 0.832841962997918, 1.0808554209943395, 1.1847949189977953, 1.344823549996363]",715.8878638930037,None,715.8834645266004,None,,,,,,,,,,,,P02_ryan_03_17_22,001,2022_Mar_17_1126,test_typingtask_norepeats,2020.2.10,114.99232965869757,
isvar,isvar,,,,,0,117,117,117,,,,,,,,721.3892476949986,None,"['i', 's', 'v', 'a', 'r']",1,"[0.6754012079909444, 0.7874886319914367, 1.043451694000396, 1.0914426899980754, 1.3233763739990536]",721.3892476949986,None,721.3852385866019,721.4872913739964,,,,,,,,,,,,P02_ryan_03_17_22,001,2022_Mar_17_1126,test_typingtask_norepeats,2020.2.10,114.99232965869757,
theme,theme,,,,,0,118,118,118,,,,,,,,726.8863733030012,None,"['t', 'h', 'e', 'm', 'e']",1,"[0.5702928679966135, 0.6502717020048294, 0.8023144320031861, 0.9223412339924835, 1.0743270079983631]",726.8863733030012,None,726.8822287836053,None,,,,,,,,,,,,P02_ryan_03_17_22,001,2022_Mar_17_1126,test_typingtask_norepeats,2020.2.10,114.99232965869757,
haole,haole,,,,,0,119,119,119,,,,,,,,732.3995734259952,None,"['a', 'h', 'o']",0,"[1.609049323000363, 3.0410789620073047, 3.1370973700104514]",732.3995734259952,None,732.3971300856035,None,,,,,,,,,,,,P02_ryan_03_17_22,001,2022_Mar_17_1126,test_typingtask_norepeats,2020.2.10,114.99232965869757,
isvar,isvar,,,,,,,,,0,0,0,0,,,,,,,,,,,,,737.8985370230075,None,766.4043161750014,None,"['i', 's', 'v', 'a', 'r']",1,"[0.6523426060011843, 0.7643920640111901, 0.9883240290073445, 1.0523886950104497, 1.2764071550045628]",766.4043161750014,None,766.4011924222082,None,P02_ryan_03_17_22,001,2022_Mar_17_1126,test_typingtask_norepeats,2020.2.10,114.99232965869757,
cooed,cooed,,,,,,,,,0,1,1,1,,,,,,,,,,,,,,,771.9214443009987,None,"['c', 'o', 'o', 'e', 'd', 'd']",0,"[0.6071425190020818, 0.8392545180104207, 0.9912748180067865, 1.0871533430035925, 1.199246905001928, 1.375316499004839]",771.9214443009987,None,771.9170739186054,None,P02_ryan_03_17_22,001,2022_Mar_17_1126,test_typingtask_norepeats,2020.2.10,114.99232965869757,
heond,heond,,,,,,,,,0,2,2,2,,,,,,,,,,,,,,,777.4316806360002,None,"['h', 'e', 'o', 'n', 'd']",1,"[1.353015619009966, 1.4970265770098194, 1.6329991050006356, 1.7290799580077874, 1.8649873289978132]",777.4316806360002,None,777.4278132846055,None,P02_ryan_03_17_22,001,2022_Mar_17_1126,test_typingtask_norepeats,2020.2.10,114.99232965869757,
puppy,puppy,,,,,,,,,0,3,3,3,,,,,,,,,,,,,,,782.9309984020074,None,"['p', 'u', 'p', 'p', 'y']",1,"[0.6136479060078273, 0.7896760430012364, 1.045634524009074, 1.2056921890034573, 1.4776705109979957]",782.9309984020074,None,782.9265165165968,None,P02_ryan_03_17_22,001,2022_Mar_17_1126,test_typingtask_norepeats,2020.2.10,114.99232965869757,
kremp,kremp,,,,,,,,,0,4,4,4,,,,,,,,,,,,,,,788.4345468539977,None,"['k', 'r', 'e', 'm', 'p']",1,"[0.8061572470032843, 0.9261449979967438, 1.0061145530053182, 1.078099532998749, 1.1900660100072855]",788.4345468539977,None,788.432016588599,None,P02_ryan_03_17_22,001,2022_Mar_17_1126,test_typingtask_norepeats,2020.2.10,114.99232965869757,
tithe,tithe,,,,,,,,,0,5,5,5,,,,,,,,,,,,,,,793.9450297069998,None,"['t', 'i', 'h', 'e']",0,"[1.0476961539970944, 1.1276716360007413, 1.6636637659976259, 1.743561123003019]",793.9450297069998,None,793.9393867516017,794.0431943440053,P02_ryan_03_17_22,001,2022_Mar_17_1126,test_typingtask_norepeats,2020.2.10,114.99232965869757,
about,about,,,,,,,,,0,6,6,6,,,,,,,,,,,,,,,799.4485570010002,None,"['a', 'b', 'o', 'u', 't']",1,"[0.5761376910086256, 0.8240734140126733, 0.928072680006153, 1.0241096079989802, 1.2160586500103818]",799.4485570010002,None,799.4442245275975,None,P02_ryan_03_17_22,001,2022_Mar_17_1126,test_typingtask_norepeats,2020.2.10,114.99232965869757,
buddy,buddy,,,,,,,,,0,7,7,7,,,,,,,,,,,,,,,804.9460918160039,None,"['b', 'u', 'd', 'd', 'y']",1,"[0.8065996840014122, 0.9186333520046901, 1.1505618649971439, 1.2945980630029226, 1.3426149930019164]",804.9460918160039,None,804.9418481785949,805.0416118379944,P02_ryan_03_17_22,001,2022_Mar_17_1126,test_typingtask_norepeats,2020.2.10,114.99232965869757,
edthe,edthe,,,,,,,,,0,8,8,8,,,,,,,,,,,,,,,810.452885303006,None,"['e', 'd', 't', 'h', 'e']",1,"[0.7558270369918318, 0.947832103993278, 1.1238258049997967, 1.2438801029929891, 1.371814940997865]",810.452885303006,None,810.4488162226014,None,P02_ryan_03_17_22,001,2022_Mar_17_1126,test_typingtask_norepeats,2020.2.10,114.99232965869757,
about,about,,,,,,,,,0,9,9,9,,,,,,,,,,,,,,,815.9611103259958,None,"['a', 'b', 'o', 'u', 't']",1,"[0.5355301790114027, 0.7915988480090164, 0.9355096729996148, 0.9995172930066474, 1.4874850550113479]",815.9611103259958,None,815.9569991785945,None,P02_ryan_03_17_22,001,2022_Mar_17_1126,test_typingtask_norepeats,2020.2.10,114.99232965869757,
belly,belly,,,,,,,,,0,10,10,10,,,,,,,,,,,,,,,821.4505129440076,None,"['b', 'e', 'l', 'l', 'y']",1,"[0.6941281119943596, 0.8061569849960506, 1.0381632639910094, 1.1981625979969976, 1.2542001440015156]",821.4505129440076,None,821.4478810816042,None,P02_ryan_03_17_22,001,2022_Mar_17_1126,test_typingtask_norepeats,2020.2.10,114.99232965869757,
lucky,lucky,,,,,,,,,0,11,11,11,,,,,,,,,,,,,,,826.9619620940066,None,"['l', 'u', 'c', 'k', 'y']",1,"[0.6228076710103778, 0.8467032150074374, 1.038625619999948, 1.1587265160051174, 1.3587151000101585]",826.9619620940066,None,826.9574472555948,827.0569197500008,P02_ryan_03_17_22,001,2022_Mar_17_1126,test_typingtask_norepeats,2020.2.10,114.99232965869757,
druze,druze,,,,,,,,,0,12,12,12,,,,,,,,,,,,,,,832.4697133260051,None,"['d', 'r', 'u', 'z', 'e']",1,"[0.7469100500020431, 1.0349953090044437, 1.4429593609966105, 1.5309084089967655, 1.8348804830020526]",832.4697133260051,None,832.4652153035975,None,P02_ryan_03_17_22,001,2022_Mar_17_1126,test_typingtask_norepeats,2020.2.10,114.99232965869757,
zibja,zibja,,,,,,,,,0,13,13,13,,,,,,,,,,,,,,,837.971372643995,None,"['z', 'i', 'b', 'j', 'a']",1,"[1.7012278140027774, 1.797336825999082, 1.989293564009131, 2.2373316430021077, 2.3333153410058003]",837.971372643995,None,837.9663240116031,None,P02_ryan_03_17_22,001,2022_Mar_17_1126,test_typingtask_norepeats,2020.2.10,114.99232965869757,
would,would,,,,,,,,,0,14,14,14,,,,,,,,,,,,,,,843.4762197870004,None,"['w', 'o', 'u', 'l', 'd']",1,"[0.6045066079968819, 0.7004727789899334, 0.7724781669967342, 0.9485028859926388, 0.996481900991057]",843.4762197870004,None,843.4725766586023,None,P02_ryan_03_17_22,001,2022_Mar_17_1126,test_typingtask_norepeats,2020.2.10,114.99232965869757,
belly,belly,,,,,,,,,0,15,15,15,,,,,,,,,,,,,,,848.980271405002,None,"['b', 'e', 'l', 'l', 'y']",1,"[0.6925008859980153, 0.772442264991696, 0.988311547000194, 1.1483317599922884, 1.1884155909938272]",848.980271405002,None,848.9762807135965,849.0757662469987,P02_ryan_03_17_22,001,2022_Mar_17_1126,test_typingtask_norepeats,2020.2.10,114.99232965869757,
haole,haole,,,,,,,,,0,16,16,16,,,,,,,,,,,,,,,854.4839610930067,None,"['h', 'a', 'o', 'l', 'e']",1,"[1.5326988010056084, 1.6366934859979665, 1.7727405720070237, 1.980667384006665, 2.0527128529938636]",854.4839610930067,None,854.4820172156003,None,P02_ryan_03_17_22,001,2022_Mar_17_1126,test_typingtask_norepeats,2020.2.10,114.99232965869757,
kremp,kremp,,,,,,,,,0,17,17,17,,,,,,,,,,,,,,,859.9878679020039,None,"['k', 'r', 'e', 'k', 'm', 'p']",0,"[0.6047947019978892, 0.7328601199988043, 0.8288419419986894, 0.9088016939931549, 1.0368037419975735, 1.1328436600015266]",859.9878679020039,None,859.9825550945941,860.0828047170071,P02_ryan_03_17_22,001,2022_Mar_17_1126,test_typingtask_norepeats,2020.2.10,114.99232965869757,
champ,champ,,,,,,,,,0,18,18,18,,,,,,,,,,,,,,,865.4935716150067,None,"['c', 'h', 'a', 'm', 'p']",1,"[0.6590707809955347, 0.7551035569922533, 0.9470095809956547, 1.0430066550034098, 1.1550272689928534]",865.4935716150067,None,865.4897900675976,None,P02_ryan_03_17_22,001,2022_Mar_17_1126,test_typingtask_norepeats,2020.2.10,114.99232965869757,
cheer,cheer,,,,,,,,,0,19,19,19,,,,,,,,,,,,,,,870.9936568709963,None,"['c', 'h', 'e', 'e', 'r']",1,"[0.7509269239963032, 0.8630636309972033, 1.1029661810025573, 1.2389627060038038, 1.3109813619958004]",870.9936568709963,None,870.9905116676061,None,P02_ryan_03_17_22,001,2022_Mar_17_1126,test_typingtask_norepeats,2020.2.10,114.99232965869757,
think,think,,,,,,,,,0,20,20,20,,,,,,,,,,,,,,,876.4988070020045,None,"['t', 'h', 'i', 'n', 'k']",1,"[0.5899181160057196, 0.6458922080055345, 0.749885939003434, 0.8699352340045152, 0.9979161110095447]",876.4988070020045,None,876.4944956775987,None,P02_ryan_03_17_22,001,2022_Mar_17_1126,test_typingtask_norepeats,2020.2.10,114.99232965869757,
lucky,lucky,,,,,,,,,0,21,21,21,,,,,,,,,,,,,,,882.0053539380024,None,"['l', 'u', 'c', 'k', 'y']",1,"[0.6912980170018272, 0.835341072990559, 1.0913613890006673, 1.1872394849924603, 1.4992931320011849]",882.0053539380024,None,882.0007897766016,None,P02_ryan_03_17_22,001,2022_Mar_17_1126,test_typingtask_norepeats,2020.2.10,114.99232965869757,
heond,heond,,,,,,,,,0,22,22,22,,,,,,,,,,,,,,,887.5054561959987,None,"['h', 'e', 'o', 'n', 'd']",1,"[0.8311288669938222, 0.9352491699974053, 1.0311602089932421, 1.1032863189902855, 1.2311995039926842]",887.5054561959987,None,887.5019617086043,None,P02_ryan_03_17_22,001,2022_Mar_17_1126,test_typingtask_norepeats,2020.2.10,114.99232965869757,
would,would,,,,,,,,,0,23,23,23,,,,,,,,,,,,,,,893.0098890070076,None,"['w', 'o', 'u', 'l', 'd']",1,"[0.5827419940032996, 0.6467427820025478, 0.718782131007174, 0.8866938169958303, 1.0467035960027715]",893.0098890070076,None,893.0060434316081,None,P02_ryan_03_17_22,001,2022_Mar_17_1126,test_typingtask_norepeats,2020.2.10,114.99232965869757,
faqir,faqir,,,,,,,,,0,24,24,24,,,,,,,,,,,,,,,898.5230686410068,None,"['f', 'a', 'q', 'i', 'r']",1,"[1.1655994890024886, 1.2536568060022546, 1.5576879130094312, 1.6696480270038592, 1.8216259949986124]",898.5230686410068,None,898.518453686597,898.6203386270063,P02_ryan_03_17_22,001,2022_Mar_17_1126,test_typingtask_norepeats,2020.2.10,114.99232965869757,
would,would,,,,,,,,,0,25,25,25,,,,,,,,,,,,,,,904.0169990989962,None,"['w', 'o', 'u', 'l', 'd']",1,"[0.5997213239897974, 0.6637260469869943, 0.7357073399907677, 0.9276859449892072, 1.0156759699893882]",904.0169990989962,None,904.0146924015978,None,P02_ryan_03_17_22,001,2022_Mar_17_1126,test_typingtask_norepeats,2020.2.10,114.99232965869757,
lucky,lucky,,,,,,,,,0,26,26,26,,,,,,,,,,,,,,,909.5250362939987,None,"['l', 'u', 'c', 'k', 'y']",1,"[0.6916375589935342, 0.8277075029909611, 1.003641080998932, 1.0996124299999792, 1.251592115004314]",909.5250362939987,None,909.5206585835956,909.6218398079945,P02_ryan_03_17_22,001,2022_Mar_17_1126,test_typingtask_norepeats,2020.2.10,114.99232965869757,
cooed,cooed,,,,,,,,,0,27,27,27,,,,,,,,,,,,,,,915.0301843100024,None,"['c', 'o', 'o', 'e', 'd']",1,"[0.8024611540022306, 1.002542774003814, 1.202464083005907, 1.2584129400056554, 1.5624131700024009]",915.0301843100024,None,915.025948995605,None,P02_ryan_03_17_22,001,2022_Mar_17_1126,test_typingtask_norepeats,2020.2.10,114.99232965869757,
vodka,vodka,,,,,,,,,0,28,28,28,,,,,,,,,,,,,,,920.5373034189979,None,"['v', 'o', 'd', 'k', 'a']",1,"[1.1114022230030969, 1.1992837279976811, 1.535414817990386, 1.623301421990618, 1.7513532919983845]",920.5373034189979,None,920.5324752825952,920.6317146990041,P02_ryan_03_17_22,001,2022_Mar_17_1126,test_typingtask_norepeats,2020.2.10,114.99232965869757,
there,there,,,,,,,,,0,29,29,29,,,,,,,,,,,,,,,926.039718850996,None,"['t', 'h', 'e', 'r', 'e']",1,"[0.544974443007959, 0.6328980960097397, 0.8008929490024457, 0.8889073570026085, 1.0010455919982633]",926.039718850996,None,926.0362534145941,None,P02_ryan_03_17_22,001,2022_Mar_17_1126,test_typingtask_norepeats,2020.2.10,114.99232965869757,
druze,druze,,,,,,,,,0,30,30,30,,,,,,,,,,,,,,,931.5558770979987,None,"['d', 'r', 'u', 'z', 'e']",1,"[0.6207657420018222, 0.8288307429902488, 0.9808504789980361, 1.1007124349998776, 1.2048128599999472]",931.5558770979987,None,931.5496283586078,931.648959579994,P02_ryan_03_17_22,001,2022_Mar_17_1126,test_typingtask_norepeats,2020.2.10,114.99232965869757,
there,there,,,,,,,,,0,31,31,31,,,,,,,,,,,,,,,937.0578887000011,None,"['t', 'h', 'e', 'r', 'e']",1,"[0.5747981199965579, 0.6867689189966768, 0.8547360130032757, 0.9267280469939578, 1.046725449996302]",937.0578887000011,None,937.0541372306004,None,P02_ryan_03_17_22,001,2022_Mar_17_1126,test_typingtask_norepeats,2020.2.10,114.99232965869757,
think,think,,,,,,,,,0,32,32,32,,,,,,,,,,,,,,,942.5560880749981,None,"['t', 'h', 'i', 'n', 'k']",1,"[0.5885985360073391, 0.6685336869995808, 0.8285931459977292, 0.9645881739998003, 1.116491565000615]",942.5560880749981,None,942.5511472826008,942.6507514330006,P02_ryan_03_17_22,001,2022_Mar_17_1126,test_typingtask_norepeats,2020.2.10,114.99232965869757,
druze,druze,,,,,,,,,0,33,33,33,,,,,,,,,,,,,,,948.0620850029954,None,"['d', 'r', 'u', 'z', 'e']",1,"[0.5865762909961632, 0.8186190160049591, 1.0666506020061206, 1.1785662969923578, 1.314593271992635]",948.0620850029954,None,948.0577977025939,None,P02_ryan_03_17_22,001,2022_Mar_17_1126,test_typingtask_norepeats,2020.2.10,114.99232965869757,
heond,heond,,,,,,,,,0,34,34,34,,,,,,,,,,,,,,,953.573309732994,None,"['d', 'e', 'o', 'n', 'd']",0,"[0.6833794990088791, 0.8914256490097614, 1.0033699799969327, 1.0913261870009592, 1.307330894007464]",953.573309732994,None,953.5696920546004,None,P02_ryan_03_17_22,001,2022_Mar_17_1126,test_typingtask_norepeats,2020.2.10,114.99232965869757,
vodka,vodka,,,,,,,,,0,35,35,35,,,,,,,,,,,,,,,959.0868716730038,None,"['v', 'o', 'd', 'k', 'a']",1,"[1.481943061997299, 1.5938637020008173, 1.8977218049985822, 2.0017205189942615, 2.0977670779975597]",959.0868716730038,None,959.0824577916035,None,P02_ryan_03_17_22,001,2022_Mar_17_1126,test_typingtask_norepeats,2020.2.10,114.99232965869757,
haole,haole,,,,,,,,,0,36,36,36,,,,,,,,,,,,,,,964.583452906998,None,"['h', 'a', 'o', 'l', 'e']",1,"[1.297198442989611, 1.393251761997817, 1.6332456169911893, 1.8411467409896431, 1.8491606739989948]",964.583452906998,None,964.5814568506,None,P02_ryan_03_17_22,001,2022_Mar_17_1126,test_typingtask_norepeats,2020.2.10,114.99232965869757,
faqir,faqir,,,,,,,,,0,37,37,37,,,,,,,,,,,,,,,970.0979938560049,None,"['f', 'a', 'q', 'i', 'r']",1,"[0.8146535139967455, 0.8626398779888405, 1.166824853993603, 1.2706842170009622, 1.3427008319995366]",970.0979938560049,None,970.0923788116022,970.1919166389998,P02_ryan_03_17_22,001,2022_Mar_17_1126,test_typingtask_norepeats,2020.2.10,114.99232965869757,
think,think,,,,,,,,,0,38,38,38,,,,,,,,,,,,,,,975.5966599469975,None,"['t', 'h', 'i', 'n', 'k']",1,"[0.7560290429973975, 0.8039577790041221, 0.8839187999983551, 1.0999695909995353, 1.203992434006068]",975.5966599469975,None,975.5927840516058,None,P02_ryan_03_17_22,001,2022_Mar_17_1126,test_typingtask_norepeats,2020.2.10,114.99232965869757,
cooed,cooed,,,,,,,,,0,39,39,39,,,,,,,,,,,,,,,981.0992345679988,None,"['c', 'o', 'o', 'e', 'd']",1,"[0.7813915990118403, 0.9174095080088591, 1.5094777490012348, 1.6454452410107478, 1.8454170309996698]",981.0992345679988,None,981.0948808265937,None,P02_ryan_03_17_22,001,2022_Mar_17_1126,test_typingtask_norepeats,2020.2.10,114.99232965869757,
edthe,edthe,,,,,,,,,0,40,40,40,,,,,,,,,,,,,,,986.6046726719942,None,"['e', 'd', 't', 'h', 'e']",1,"[0.7880208260030486, 0.9800189590023365, 1.1960382329998538, 1.292095151002286, 1.3799329270113958]",986.6046726719942,None,986.6004838696069,None,P02_ryan_03_17_22,001,2022_Mar_17_1126,test_typingtask_norepeats,2020.2.10,114.99232965869757,
haole,haole,,,,,,,,,0,41,41,41,,,,,,,,,,,,,,,992.116912188998,None,"['h', 'a', 'o', 'l', 'e']",1,"[0.82771069399314, 0.9157933130045421, 1.0198067010060186, 1.2597864529961953, 1.3397748319985112]",992.116912188998,None,992.114784013608,None,P02_ryan_03_17_22,001,2022_Mar_17_1126,test_typingtask_norepeats,2020.2.10,114.99232965869757,
zibja,zibja,,,,,,,,,0,42,42,42,,,,,,,,,,,,,,,997.621263848996,None,"['z', 'i', 'b', 'j', 'a']",1,"[0.8594367769983364, 0.955430134999915, 1.2834864030010067, 1.3713288870058022, 1.4673793709953316]",997.621263848996,None,997.6160723416076,None,P02_ryan_03_17_22,001,2022_Mar_17_1126,test_typingtask_norepeats,2020.2.10,114.99232965869757,
buddy,buddy,,,,,,,,,0,43,43,43,,,,,,,,,,,,,,,1003.124601774005,None,"['b', 'u', 'd', 'd', 'y']",1,"[1.2601040150038898, 1.3560793479991844, 1.6280652270070277, 1.7561143550119596, 1.7961801550118253]",1003.124601774005,None,1003.1207528226048,None,P02_ryan_03_17_22,001,2022_Mar_17_1126,test_typingtask_norepeats,2020.2.10,114.99232965869757,
theme,theme,,,,,,,,,0,44,44,44,,,,,,,,,,,,,,,1008.6315595360065,None,"['t', 'h', 'e', 'm', 'e']",1,"[0.7131272019905737, 0.7930604559951462, 1.1531344660033938, 1.2330988479952794, 1.3771111300011398]",1008.6315595360065,None,1008.6271373486059,1008.7274907399988,P02_ryan_03_17_22,001,2022_Mar_17_1126,test_typingtask_norepeats,2020.2.10,114.99232965869757,
therm,therm,,,,,,,,,0,45,45,45,,,,,,,,,,,,,,,1014.1309398599988,None,"['t', 'h', 'e', 'r', 'm']",1,"[0.8137079209991498, 0.8697356979973847, 1.1738601529941661, 1.2377148939995095, 1.325700682005845]",1014.1309398599988,None,1014.1271886225993,None,P02_ryan_03_17_22,001,2022_Mar_17_1126,test_typingtask_norepeats,2020.2.10,114.99232965869757,
tithe,tithe,,,,,,,,,0,46,46,46,,,,,,,,,,,,,,,1019.6388869140064,None,"['t', 'i', 't', 'h', 'e']",1,"[0.8257426140044117, 0.9137903969967738, 1.1058035280002514, 1.57779244199628, 1.6657850290066563]",1019.6388869140064,None,1019.6347593815997,1019.7333066989959,P02_ryan_03_17_22,001,2022_Mar_17_1126,test_typingtask_norepeats,2020.2.10,114.99232965869757,
pykka,pykka,,,,,,,,,0,47,47,47,,,,,,,,,,,,,,,1025.1417983930005,None,"['p', 'y', 'k', 'k', 'a']",1,"[0.8187911929999245, 1.0108153490000404, 1.394878974009771, 1.5949454240035266, 1.722901412009378]",1025.1417983930005,None,1025.1378229366062,None,P02_ryan_03_17_22,001,2022_Mar_17_1126,test_typingtask_norepeats,2020.2.10,114.99232965869757,
theme,theme,,,,,,,,,0,48,48,48,,,,,,,,,,,,,,,1030.6471689010068,None,"['t', 'h', 'e', 'm', 'e']",1,"[0.6254271470097592, 0.6894437360024313, 0.8494870130089112, 0.9375258330110228, 1.0814367700077128]",1030.6471689010068,None,1030.6423500995995,1030.7415978390054,P02_ryan_03_17_22,001,2022_Mar_17_1126,test_typingtask_norepeats,2020.2.10,114.99232965869757,
cheer,cheer,,,,,,,,,0,49,49,49,,,,,,,,,,,,,,,1036.1573717099964,None,"['c', 'h', 'e', 'e', 'r']",1,"[0.6352080270007718, 0.7312238970043836, 1.019303856010083, 1.1793494660087163, 1.2512264070101082]",1036.1573717099964,None,1036.1528956356021,None,P02_ryan_03_17_22,001,2022_Mar_17_1126,test_typingtask_norepeats,2020.2.10,114.99232965869757,
kremp,kremp,,,,,,,,,0,50,50,50,,,,,,,,,,,,,,,1041.6492908530054,None,"['k', 'r', 'e', 'm', 'p']",1,"[0.6633679359947564, 0.8314489159965888, 0.9032986170059303, 0.9434271710051689, 1.0633000270026969]",1041.6492908530054,None,1041.6454047876002,None,P02_ryan_03_17_22,001,2022_Mar_17_1126,test_typingtask_norepeats,2020.2.10,114.99232965869757,
faqir,faqir,,,,,,,,,0,51,51,51,,,,,,,,,,,,,,,1047.1577267090033,None,"['f', 'a', 'q', 'i']",0,"[1.138936242001364, 1.2028780670079868, 1.4909723349992419, 1.578978649005876]",1047.1577267090033,None,1047.1522045776044,1047.254709255998,P02_ryan_03_17_22,001,2022_Mar_17_1126,test_typingtask_norepeats,2020.2.10,114.99232965869757,
heond,heond,,,,,,,,,0,52,52,52,,,,,,,,,,,,,,,1052.6623728450068,None,"['d', 'e', 'o', 'n', 'd']",0,"[0.7303305329987779, 0.938283504001447, 1.0743191000074148, 1.1702205180044984, 1.3382086580095347]",1052.6623728450068,None,1052.6589625306049,None,P02_ryan_03_17_22,001,2022_Mar_17_1126,test_typingtask_norepeats,2020.2.10,114.99232965869757,
pykka,pykka,,,,,,,,,0,53,53,53,,,,,,,,,,,,,,,1058.1565306720004,None,"['p', 'y', 'k', 'k', 'a']",1,"[0.7082048730080714, 0.9642094660084695, 1.4681444210000336, 1.644147413011524, 1.828118749006535]",1058.1565306720004,None,1058.1522133656078,1058.2558387229947,P02_ryan_03_17_22,001,2022_Mar_17_1126,test_typingtask_norepeats,2020.2.10,114.99232965869757,
think,think,,,,,,,,,0,54,54,54,,,,,,,,,,,,,,,1063.6730126280017,None,"['t', 'h', 'i', 'n', 'k']",1,"[0.7596149379969575, 0.807661469996674, 0.8875733599998057, 1.0156810600019526, 1.1357024220051244]",1063.6730126280017,None,1063.6685286706022,1063.7677249489934,P02_ryan_03_17_22,001,2022_Mar_17_1126,test_typingtask_norepeats,2020.2.10,114.99232965869757,
puppy,puppy,,,,,,,,,0,55,55,55,,,,,,,,,,,,,,,1069.1810029640037,None,"['p', 'u', 'p', 'p', 'y']",1,"[0.6436951910000062, 0.811751828994602, 1.0756817609944846, 1.2597086710011354, 1.3875992459943518]",1069.1810029640037,None,1069.1766377016,None,P02_ryan_03_17_22,001,2022_Mar_17_1126,test_typingtask_norepeats,2020.2.10,114.99232965869757,
belly,belly,,,,,,,,,0,56,56,56,,,,,,,,,,,,,,,1074.6840193600074,None,"['b', 'e', 'l', 'l', 'y']",1,"[0.7247123319975799, 0.8126979070075322, 1.068725386998267, 1.2285972200043034, 1.2765638200071407]",1074.6840193600074,None,1074.6812686115998,None,P02_ryan_03_17_22,001,2022_Mar_17_1126,test_typingtask_norepeats,2020.2.10,114.99232965869757,
tithe,tithe,,,,,,,,,0,57,57,57,,,,,,,,,,,,,,,1080.189453703002,None,"['t', 'i', 't', 'h', 'e']",1,"[0.867146539996611, 0.9232080729998415, 1.4832146940025268, 1.715215834992705, 1.7952515579963801]",1080.189453703002,None,1080.1846658856055,None,P02_ryan_03_17_22,001,2022_Mar_17_1126,test_typingtask_norepeats,2020.2.10,114.99232965869757,
vodka,vodka,,,,,,,,,0,58,58,58,,,,,,,,,,,,,,,1085.6969001840043,None,"['v', 'o', 'd', 'k', 'a']",1,"[0.9998011400020914, 1.0717908460064791, 1.2797126520017628, 1.3917359449987998, 1.5117511760035995]",1085.6969001840043,None,1085.6924758165958,1085.7922118069982,P02_ryan_03_17_22,001,2022_Mar_17_1126,test_typingtask_norepeats,2020.2.10,114.99232965869757,
buddy,buddy,,,,,,,,,0,59,59,59,,,,,,,,,,,,,,,1091.203570629994,None,"['b', 'u', 'd', 'd', 'y']",1,"[0.8451505690027261, 0.9650924250017852, 1.2130741709988797, 1.36507696499757, 1.4131132090114988]",1091.203570629994,None,1091.1996817535953,None,P02_ryan_03_17_22,001,2022_Mar_17_1126,test_typingtask_norepeats,2020.2.10,114.99232965869757,
cheer,cheer,,,,,,,,,0,60,60,60,,,,,,,,,,,,,,,1096.7107396500069,None,"['c', 'h', 'e', 'e', 'r']",1,"[0.6658570239960682, 0.7459917859960115, 0.9540305900009116, 1.113939381990349, 1.1459057069878327]",1096.7107396500069,None,1096.7067744156054,1096.8081286899978,P02_ryan_03_17_22,001,2022_Mar_17_1126,test_typingtask_norepeats,2020.2.10,114.99232965869757,
zibja,zibja,,,,,,,,,0,61,61,61,,,,,,,,,,,,,,,1102.205850450002,None,"['z', 'i', 'b', 'j', 'a']",1,"[0.9307723300007638, 1.0588166399975307, 1.2987695680058096, 1.426825752001605, 1.5707962760061491]",1102.205850450002,None,1102.2002030515985,1102.300024917,P02_ryan_03_17_22,001,2022_Mar_17_1126,test_typingtask_norepeats,2020.2.10,114.99232965869757,
tithe,tithe,,,,,,,,,0,62,62,62,,,,,,,,,,,,,,,1107.709967584,None,"['t', 'i', 't', 'h', 'e']",1,"[0.7946816740004579, 0.8586926699936157, 1.0107431249925867, 1.122713553995709, 1.202676139990217]",1107.709967584,None,1107.7062859486002,None,P02_ryan_03_17_22,001,2022_Mar_17_1126,test_typingtask_norepeats,2020.2.10,114.99232965869757,
isvar,isvar,,,,,,,,,0,63,63,63,,,,,,,,,,,,,,,1113.217725095994,None,"['i', 's', 'v', 'a', 'r']",1,"[0.6069858359987848, 0.6948992920079036, 0.9430079120065784, 1.0148509220016422, 1.1829452609963482]",1113.217725095994,None,1113.214561335594,None,P02_ryan_03_17_22,001,2022_Mar_17_1126,test_typingtask_norepeats,2020.2.10,114.99232965869757,
would,would,,,,,,,,,0,64,64,64,,,,,,,,,,,,,,,1118.7264995629957,None,"['w', 'o', 'u', 'l', 'd']",1,"[0.6101832580025075, 0.6502124870021362, 0.754091745999176, 0.9461422140011564, 1.050160318001872]",1118.7264995629957,None,1118.7229754806,None,P02_ryan_03_17_22,001,2022_Mar_17_1126,test_typingtask_norepeats,2020.2.10,114.99232965869757,
buddy,buddy,,,,,,,,,0,65,65,65,,,,,,,,,,,,,,,1124.2256061619992,None,"['b', 'u', 'd', 'd', 'y']",1,"[0.9270947799959686, 1.0231088619912043, 1.2390900739992503, 1.3830519920011284, 1.4389951519988244]",1124.2256061619992,None,1124.2218917305988,None,P02_ryan_03_17_22,001,2022_Mar_17_1126,test_typingtask_norepeats,2020.2.10,114.99232965869757,
edthe,edthe,,,,,,,,,0,66,66,66,,,,,,,,,,,,,,,1129.7402371390053,None,"['e', 'd', 't', 'h', 'e']",1,"[0.7323917680041632, 0.9244648180028889, 1.468347485002596, 1.5804075290070614, 1.6924949070089497]",1129.7402371390053,None,1129.7363222235988,None,P02_ryan_03_17_22,001,2022_Mar_17_1126,test_typingtask_norepeats,2020.2.10,114.99232965869757,
cheer,cheer,,,,,,,,,0,67,67,67,,,,,,,,,,,,,,,1135.2486243530002,None,"['c', 'h', 'e', 'e', 'r']",1,"[0.7680699379998259, 0.9199587759940187, 1.176071308000246, 1.3121374750044197, 1.3840626220044214]",1135.2486243530002,None,1135.2438245446072,None,P02_ryan_03_17_22,001,2022_Mar_17_1126,test_typingtask_norepeats,2020.2.10,114.99232965869757,
isvar,isvar,,,,,,,,,0,68,68,68,,,,,,,,,,,,,,,1140.7418144090043,None,"['i', 's', 'v', 'a', 'r']",1,"[0.714844786998583, 0.7868469439999899, 1.0348986389872152, 1.0748733279906446, 1.282782871989184]",1140.7418144090043,None,1140.7375119715987,None,P02_ryan_03_17_22,001,2022_Mar_17_1126,test_typingtask_norepeats,2020.2.10,114.99232965869757,
belly,belly,,,,,,,,,0,69,69,69,,,,,,,,,,,,,,,1146.2540672260075,None,"['c', 'e', 'l', 'l', 'y']",0,"[0.5625809830089565, 0.7865460540051572, 1.010637993007549, 1.2186178950069007, 1.4025349390140036]",1146.2540672260075,None,1146.2496635716059,None,P02_ryan_03_17_22,001,2022_Mar_17_1126,test_typingtask_norepeats,2020.2.10,114.99232965869757,
would,would,,,,,,,,,0,70,70,70,,,,,,,,,,,,,,,1151.7574308479961,None,"['w', 'o', 'u', 'l', 'd']",1,"[0.6033363099995768, 0.6912557400064543, 0.7711999650055077, 0.9952111470047385, 1.131224225013284]",1151.7574308479961,None,1151.7538067165995,None,P02_ryan_03_17_22,001,2022_Mar_17_1126,test_typingtask_norepeats,2020.2.10,114.99232965869757,
therm,therm,,,,,,,,,0,71,71,71,,,,,,,,,,,,,,,1157.2641349579935,None,"['t', 'h', 'e', 'r', 'm']",1,"[0.5924772070138715, 0.6885618330124998, 0.9125379550096113, 1.0245428180060117, 1.1044924440066097]",1157.2641349579935,None,1157.2599659975938,None,P02_ryan_03_17_22,001,2022_Mar_17_1126,test_typingtask_norepeats,2020.2.10,114.99232965869757,
theme,theme,,,,,,,,,0,72,72,72,,,,,,,,,,,,,,,1162.757050265005,None,"['t', 'h', 'e', 'm', 'e']",1,"[0.7476620079978602, 0.8596370199957164, 1.227606308995746, 1.4036513570026727, 1.6276973399944836]",1162.757050265005,None,1162.7523821285984,1162.8509574089985,P02_ryan_03_17_22,001,2022_Mar_17_1126,test_typingtask_norepeats,2020.2.10,114.99232965869757,
vodka,vodka,,,,,,,,,0,73,73,73,,,,,,,,,,,,,,,1168.2650598129985,None,"['v', 'o', 'd', 'k', 'a']",1,"[1.0236297480005305, 1.1035572520049755, 1.3436293140111957, 1.4315642590081552, 1.5677138260070933]",1168.2650598129985,None,1168.2613060816045,None,P02_ryan_03_17_22,001,2022_Mar_17_1126,test_typingtask_norepeats,2020.2.10,114.99232965869757,
edthe,edthe,,,,,,,,,0,74,74,74,,,,,,,,,,,,,,,1173.7702175769955,None,"['e', 'd', 't', 'h', 'e']",1,"[0.6944433269964065, 0.902424535001046, 1.1344654569984414, 1.262466308005969, 1.3744379260024289]",1173.7702175769955,None,1173.766281926594,None,P02_ryan_03_17_22,001,2022_Mar_17_1126,test_typingtask_norepeats,2020.2.10,114.99232965869757,
belly,belly,,,,,,,,,0,75,75,75,,,,,,,,,,,,,,,1179.2642362110055,None,"['b', 'e', 'l', 'l', 'y']",1,"[0.7764185380074196, 0.8484052340063499, 1.1444572740001604, 1.3124653760023648, 1.3764927220036043]",1179.2642362110055,None,1179.2598602525948,None,P02_ryan_03_17_22,001,2022_Mar_17_1126,test_typingtask_norepeats,2020.2.10,114.99232965869757,
pykka,pykka,,,,,,,,,0,76,76,76,,,,,,,,,,,,,,,1184.7752225089935,None,"['p', 'y', 'k', 'k', 'a']",1,"[0.9614604450034676, 1.1534039520047372, 1.6254366250068415, 1.8094013829977484, 1.9854836610029452]",1184.7752225089935,None,1184.771126397606,None,P02_ryan_03_17_22,001,2022_Mar_17_1126,test_typingtask_norepeats,2020.2.10,114.99232965869757,
isvar,isvar,,,,,,,,,0,77,77,77,,,,,,,,,,,,,,,1190.2812247620022,None,"['i', 's', 'v', 'a', 'r']",1,"[0.6073703489964828, 0.7274290849891258, 0.9753610429906985, 1.031452694995096, 1.2474666670022998]",1190.2812247620022,None,1190.2767708486033,None,P02_ryan_03_17_22,001,2022_Mar_17_1126,test_typingtask_norepeats,2020.2.10,114.99232965869757,
puppy,puppy,,,,,,,,,0,78,78,78,,,,,,,,,,,,,,,1195.7818055030075,None,"['p', 'u', 'p', 'p', 'y']",1,"[0.6987813680025283, 0.9388945249957033, 1.2908803489990532, 1.5069066059950273, 1.6108553649974056]",1195.7818055030075,None,1195.7769321205967,None,P02_ryan_03_17_22,001,2022_Mar_17_1126,test_typingtask_norepeats,2020.2.10,114.99232965869757,
druze,druze,,,,,,,,,0,79,79,79,,,,,,,,,,,,,,,1201.2926429770014,None,"['d', 'r', 'u', 'z', 'e']",1,"[0.8360792640014552, 1.0520947129989509, 1.4040749300038442, 1.4760657000006177, 1.6120141220017103]",1201.2926429770014,None,1201.288204717607,None,P02_ryan_03_17_22,001,2022_Mar_17_1126,test_typingtask_norepeats,2020.2.10,114.99232965869757,
vodka,vodka,,,,,,,,,0,80,80,80,,,,,,,,,,,,,,,1206.7968125379994,None,"['v', 'o', 'd', 'k', 'a']",1,"[0.8838144019973697, 0.9558549719949951, 1.1718604670022614, 1.2598254420008743, 1.3317443999985699]",1206.7968125379994,None,1206.7925354066072,None,P02_ryan_03_17_22,001,2022_Mar_17_1126,test_typingtask_norepeats,2020.2.10,114.99232965869757,
edthe,edthe,,,,,,,,,0,81,81,81,,,,,,,,,,,,,,,1212.2964906059933,None,"['e', 'd', 't', 'h', 'e']",1,"[0.7201749420055421, 0.9362088339985348, 1.1361583280086052, 1.2161880720086629, 1.3201025080052204]",1212.2964906059933,None,1212.2928346655942,None,P02_ryan_03_17_22,001,2022_Mar_17_1126,test_typingtask_norepeats,2020.2.10,114.99232965869757,
therm,therm,,,,,,,,,0,82,82,82,,,,,,,,,,,,,,,1217.7947619070037,None,"['t', 'h', 'e', 'r', 'm']",1,"[0.6378935400134651, 0.7019056090066442, 0.8778615070041269, 0.9658863780059619, 1.0219333860004554]",1217.7947619070037,None,1217.791407796595,1217.8906366330048,P02_ryan_03_17_22,001,2022_Mar_17_1126,test_typingtask_norepeats,2020.2.10,114.99232965869757,
about,about,,,,,,,,,0,83,83,83,,,,,,,,,,,,,,,1223.304926222001,None,"['a', 'b', 'o', 'u', 't']",1,"[0.6077728590025799, 0.815730126996641, 0.9276763200032292, 0.983711470005801, 1.1196756879944587]",1223.304926222001,None,1223.3007292796071,1223.4009457520006,P02_ryan_03_17_22,001,2022_Mar_17_1126,test_typingtask_norepeats,2020.2.10,114.99232965869757,
faqir,faqir,,,,,,,,,0,84,84,84,,,,,,,,,,,,,,,1228.8079811969947,None,"['f', 'a', 'q', 'i', 'r']",1,"[0.768633066007169, 0.8167189240048174, 1.1846235380071448, 1.296729221008718, 1.384732085003634]",1228.8079811969947,None,1228.8034753726067,None,P02_ryan_03_17_22,001,2022_Mar_17_1126,test_typingtask_norepeats,2020.2.10,114.99232965869757,
kremp,kremp,,,,,,,,,0,85,85,85,,,,,,,,,,,,,,,1234.321920500006,None,"['k', 'r', 'e', 'm', 'p']",1,"[0.7506754420028301, 0.9107009900035337, 0.982745586996316, 1.0386787110037403, 1.1587048490036977]",1234.321920500006,None,1234.3178107615938,1234.4168290009984,P02_ryan_03_17_22,001,2022_Mar_17_1126,test_typingtask_norepeats,2020.2.10,114.99232965869757,
about,about,,,,,,,,,0,86,86,86,,,,,,,,,,,,,,,1239.8252131970075,None,"['a', 'b', 'o', 'u', 't']",1,"[0.5994925069971941, 0.8394275110040326, 1.0074908370006597, 1.0713682570058154, 1.2474972930067452]",1239.8252131970075,None,1239.821488760598,None,P02_ryan_03_17_22,001,2022_Mar_17_1126,test_typingtask_norepeats,2020.2.10,114.99232965869757,
druze,druze,,,,,,,,,0,87,87,87,,,,,,,,,,,,,,,1245.3333404180012,None,"['d', 'r', 'u', 'z', 'e']",1,"[0.6272601149976254, 0.8752581139997346, 1.3073412819940131, 1.4192785449995426, 1.699239209992811]",1245.3333404180012,None,1245.3289212985953,None,P02_ryan_03_17_22,001,2022_Mar_17_1126,test_typingtask_norepeats,2020.2.10,114.99232965869757,
tithe,tithe,,,,,,,,,0,88,88,88,,,,,,,,,,,,,,,1250.8407229500008,None,"['t', 'i', 't', 'h', 'e']",1,"[0.8159888090012828, 0.9039481229992816, 1.0878711460100021, 1.2879632380063413, 1.3759048570063896]",1250.8407229500008,None,1250.8367236715974,None,P02_ryan_03_17_22,001,2022_Mar_17_1126,test_typingtask_norepeats,2020.2.10,114.99232965869757,
puppy,puppy,,,,,,,,,0,89,89,89,,,,,,,,,,,,,,,1256.3478267510072,None,"['p', 'u', 'p', 'p', 'y']",1,"[0.620824483994511, 0.7969262160040671, 1.1969376930064755, 1.428808762007975, 1.5408189949957887]",1256.3478267510072,None,1256.343302451595,None,P02_ryan_03_17_22,001,2022_Mar_17_1126,test_typingtask_norepeats,2020.2.10,114.99232965869757,
haole,haole,,,,,,,,,0,90,90,90,,,,,,,,,,,,,,,1261.8394272690057,None,"['h', 'a', 'o', 'l', 'e']",1,"[1.025255915010348, 1.1131608470022911, 1.209274948007078, 1.4172510159987723, 1.4412242180114845]",1261.8394272690057,None,1261.8353242856072,None,P02_ryan_03_17_22,001,2022_Mar_17_1126,test_typingtask_norepeats,2020.2.10,114.99232965869757,
zibja,zibja,,,,,,,,,0,91,91,91,,,,,,,,,,,,,,,1267.3496255380014,None,"['z', 'i', 'b', 'k', 'a']",0,"[1.0910489950038027, 1.211027997007477, 1.8909970579989022, 2.042976021009963, 2.627087023007334]",1267.3496255380014,None,1267.3448333316016,None,P02_ryan_03_17_22,001,2022_Mar_17_1126,test_typingtask_norepeats,2020.2.10,114.99232965869757,
champ,champ,,,,,,,,,0,92,92,92,,,,,,,,,,,,,,,1272.8489310659934,None,"['c', 'h', 'a', 'm', 'p']",1,"[0.6797567720059305, 0.7516794969997136, 0.9036884700035444, 0.9757787599955918, 1.0876734470075462]",1272.8489310659934,None,1272.844420019607,None,P02_ryan_03_17_22,001,2022_Mar_17_1126,test_typingtask_norepeats,2020.2.10,114.99232965869757,
faqir,faqir,,,,,,,,,0,93,93,93,,,,,,,,,,,,,,,1278.3573356559937,None,"['f', 'a', 'q', 'i', 'r']",1,"[0.9073432309960481, 0.9634408359997906, 1.3473203780013137, 1.4593615159974433, 1.5473528349975822]",1278.3573356559937,None,1278.352082559603,1278.451077079997,P02_ryan_03_17_22,001,2022_Mar_17_1126,test_typingtask_norepeats,2020.2.10,114.99232965869757,
haole,haole,,,,,,,,,0,94,94,94,,,,,,,,,,,,,,,1283.857846494997,None,"['h', 'a', 'o', 'l', 'e']",1,"[0.8388129119994119, 0.9028669469989836, 1.0148669670015806, 1.2548475049989065, 1.2868310939957155]",1283.857846494997,None,1283.8545616895979,None,P02_ryan_03_17_22,001,2022_Mar_17_1126,test_typingtask_norepeats,2020.2.10,114.99232965869757,
cooed,cooed,,,,,,,,,0,95,95,95,,,,,,,,,,,,,,,1289.3611637989961,None,"['c', 'o', 'o', 'e', 'd']",1,"[0.5994361140037654, 0.7514228040090529, 0.8874575620138785, 0.9755238400102826, 1.0955241910123732]",1289.3611637989961,None,1289.3572178806032,1289.4567675050057,P02_ryan_03_17_22,001,2022_Mar_17_1126,test_typingtask_norepeats,2020.2.10,114.99232965869757,
buddy,buddy,,,,,,,,,0,96,96,96,,,,,,,,,,,,,,,1294.865377145994,None,"['b', 'u', 'd', 'd', 'y']",1,"[0.9112946720124455, 1.0073286410042783, 1.2473224350105738, 1.3913540830108104, 1.4712976430018898]",1294.865377145994,None,1294.8608233286038,1294.9606760769966,P02_ryan_03_17_22,001,2022_Mar_17_1126,test_typingtask_norepeats,2020.2.10,114.99232965869757,
theme,theme,,,,,,,,,0,97,97,97,,,,,,,,,,,,,,,1300.361925063,None,"['t', 'h', 'e', 'm', 'e']",1,"[0.6147802490013419, 0.686841889997595, 0.8466658559918869, 0.942665697002667, 1.070789290999528]",1300.361925063,None,1300.358101843606,None,P02_ryan_03_17_22,001,2022_Mar_17_1126,test_typingtask_norepeats,2020.2.10,114.99232965869757,
champ,champ,,,,,,,,,0,98,98,98,,,,,,,,,,,,,,,1305.8798742600047,None,"['c', 'h', 'a', 'm', 'p']",1,"[0.6807438090036158, 0.768724655994447, 0.9927042839990463, 1.024767241004156, 1.1286868330062134]",1305.8798742600047,None,1305.8750730645959,1305.9749891550018,P02_ryan_03_17_22,001,2022_Mar_17_1126,test_typingtask_norepeats,2020.2.10,114.99232965869757,
pykka,pykka,,,,,,,,,0,99,99,99,,,,,,,,,,,,,,,1311.3836743260035,None,"['p', 'y', 'k', 'k', 'a']",1,"[0.6249971600045683, 0.760963428998366, 1.0250016619975213, 1.1690185309998924, 1.248989031999372]",1311.3836743260035,None,1311.3787722316017,1311.480514666997,P02_ryan_03_17_22,001,2022_Mar_17_1126,test_typingtask_norepeats,2020.2.10,114.99232965869757,
there,there,,,,,,,,,0,100,100,100,,,,,,,,,,,,,,,1316.8888990900014,None,"['t', 'h', 'e', 'r', 'e']",1,"[0.6077705409988994, 0.6637687289912719, 0.8157589459879091, 0.895790233000298, 0.9758142279897584]",1316.8888990900014,None,1316.885062320606,None,P02_ryan_03_17_22,001,2022_Mar_17_1126,test_typingtask_norepeats,2020.2.10,114.99232965869757,
puppy,puppy,,,,,,,,,0,101,101,101,,,,,,,,,,,,,,,1322.3929566459992,None,"['p', 'u', 'p', 'p', 'y']",1,"[0.6237400200043339, 0.8397174410056323, 1.1757350410043728, 1.359753400000045, 1.4797494810045464]",1322.3929566459992,None,1322.3892737176036,None,P02_ryan_03_17_22,001,2022_Mar_17_1126,test_typingtask_norepeats,2020.2.10,114.99232965869757,
think,think,,,,,,,,,0,102,102,102,,,,,,,,,,,,,,,1327.8973227670067,None,"['t', 'h', 'i', 'n', 'k']",1,"[0.5834458259923849, 0.6313572319922969, 0.7433851309906458, 0.9033786529907957, 1.0393564199912362]",1327.8973227670067,None,1327.893017019608,None,P02_ryan_03_17_22,001,2022_Mar_17_1126,test_typingtask_norepeats,2020.2.10,114.99232965869757,
therm,therm,,,,,,,,,0,103,103,103,,,,,,,,,,,,,,,1333.3963243729959,None,"['t', 'h', 'e', 'r', 'm']",1,"[0.7723709419951774, 0.8363672779960325, 1.0202842709986726, 1.1162827419902897, 1.180376188000082]",1333.3963243729959,None,1333.3925036475964,1333.4928940490063,P02_ryan_03_17_22,001,2022_Mar_17_1126,test_typingtask_norepeats,2020.2.10,114.99232965869757,
isvar,isvar,,,,,,,,,0,104,104,104,,,,,,,,,,,,,,,1338.8976404279965,None,"['i', 's', 'v', 'a', 'r']",1,"[0.639035996995517, 0.7589432289969409, 0.9830401319923112, 1.0469930229883175, 1.2470055039884755]",1338.8976404279965,None,1338.8931651456048,None,P02_ryan_03_17_22,001,2022_Mar_17_1126,test_typingtask_norepeats,2020.2.10,114.99232965869757,
there,there,,,,,,,,,0,105,105,105,,,,,,,,,,,,,,,1344.3905723780044,None,"['t', 'h', 'e', 'r', 'e']",1,"[0.5540593729965622, 0.6260450130066602, 0.8020509710040642, 0.8980144249944715, 1.010134073003428]",1344.3905723780044,None,1344.3863659986062,None,P02_ryan_03_17_22,001,2022_Mar_17_1126,test_typingtask_norepeats,2020.2.10,114.99232965869757,
champ,champ,,,,,,,,,0,106,106,106,,,,,,,,,,,,,,,1349.9067558759998,None,"['c', 'h', 'a', 'm', 'p']",1,"[0.8378878700023051, 0.9179457010031911, 1.0778862080042018, 1.1579127889999654, 1.2698422980029136]",1349.9067558759998,None,1349.9026290185982,None,P02_ryan_03_17_22,001,2022_Mar_17_1126,test_typingtask_norepeats,2020.2.10,114.99232965869757,
pykka,pykka,,,,,,,,,0,107,107,107,,,,,,,,,,,,,,,1355.4122490640002,None,"['p', 'y', 'k', 'k', 'a']",1,"[0.6284527739917394, 0.7883620490028989, 1.1005497019941686, 1.2604415959940525, 1.3484120479988633]",1355.4122490640002,None,1355.4084819905954,None,P02_ryan_03_17_22,001,2022_Mar_17_1126,test_typingtask_norepeats,2020.2.10,114.99232965869757,
cheer,cheer,,,,,,,,,0,108,108,108,,,,,,,,,,,,,,,1360.9188919169974,None,"['c', 'h', 'e', 'e', 'r']",1,"[0.6977842129999772, 0.7857833869929891, 1.1777514379937202, 1.3057811289909296, 1.3857812799979001]",1360.9188919169974,None,1360.9161649435962,None,P02_ryan_03_17_22,001,2022_Mar_17_1126,test_typingtask_norepeats,2020.2.10,114.99232965869757,
therm,therm,,,,,,,,,0,109,109,109,,,,,,,,,,,,,,,1366.4167821279989,None,"['t', 'h', 'e', 'r', 'm']",1,"[0.5998636920121498, 0.6558817810000619, 0.879836599007831, 0.9677973500074586, 1.0478013200045098]",1366.4167821279989,None,1366.4124396366067,None,P02_ryan_03_17_22,001,2022_Mar_17_1126,test_typingtask_norepeats,2020.2.10,114.99232965869757,
cooed,cooed,,,,,,,,,0,110,110,110,,,,,,,,,,,,,,,1371.9168952720065,None,"['c', 'o', 'o', 'e', 'd']",1,"[0.5718168900057208, 0.6757033500034595, 0.8677962520014262, 0.9478282250056509, 1.0597926560003543]",1371.9168952720065,None,1371.9125387086067,None,P02_ryan_03_17_22,001,2022_Mar_17_1126,test_typingtask_norepeats,2020.2.10,114.99232965869757,
about,about,,,,,,,,,0,111,111,111,,,,,,,,,,,,,,,1377.4170857129939,None,"['a', 'b', 'o', 'u', 't']",1,"[0.583607046995894, 0.8076349860057235, 0.9116278470028192, 0.9916123409930151, 1.111569511005655]",1377.4170857129939,None,1377.4120778236072,1377.5124595689995,P02_ryan_03_17_22,001,2022_Mar_17_1126,test_typingtask_norepeats,2020.2.10,114.99232965869757,
lucky,lucky,,,,,,,,,0,112,112,112,,,,,,,,,,,,,,,1382.9313963159948,None,"['l', 'u', 'c', 'k', 'y']",1,"[0.5812819059938192, 0.7411840179993305, 0.9012781189958332, 0.9893237269861856, 1.1732965849951142]",1382.9313963159948,None,1382.9269908076064,None,P02_ryan_03_17_22,001,2022_Mar_17_1126,test_typingtask_norepeats,2020.2.10,114.99232965869757,
kremp,kremp,,,,,,,,,0,113,113,113,,,,,,,,,,,,,,,1388.431530832997,None,"['k', 'r', 'e', 'm', 'p']",1,"[0.721180161999655, 0.8491403609950794, 0.9211227789928671, 0.9771296729886672, 1.0731645339983515]",1388.431530832997,None,1388.4272807805944,None,P02_ryan_03_17_22,001,2022_Mar_17_1126,test_typingtask_norepeats,2020.2.10,114.99232965869757,
heond,heond,,,,,,,,,0,114,114,114,,,,,,,,,,,,,,,1393.9267860719992,None,"['h', 'e', 'o', 'n', 'd']",1,"[1.0178847390052397, 1.1138881670049159, 1.2098321090015816, 1.2738845940039027, 1.369808727002237]",1393.9267860719992,None,1393.9236258575954,None,P02_ryan_03_17_22,001,2022_Mar_17_1126,test_typingtask_norepeats,2020.2.10,114.99232965869757,
zibja,zibja,,,,,,,,,0,115,115,115,,,,,,,,,,,,,,,1399.4378075749992,None,"['z', 'i', 'b', 'j', 'a']",1,"[0.778846060988144, 0.8428402949939482, 1.130873531990801, 1.2348383589996956, 1.346796028999961]",1399.4378075749992,None,1399.4327330205967,1399.5314474949992,P02_ryan_03_17_22,001,2022_Mar_17_1126,test_typingtask_norepeats,2020.2.10,114.99232965869757,
there,there,,,,,,,,,0,116,116,116,,,,,,,,,,,,,,,1404.9420232319972,None,"['t', 'h', 'e', 'r']",0,"[0.6266141150117619, 0.6986466920061503, 0.8426631900074426, 0.9066201540117618]",1404.9420232319972,None,1404.9389207245956,None,P02_ryan_03_17_22,001,2022_Mar_17_1126,test_typingtask_norepeats,2020.2.10,114.99232965869757,
lucky,lucky,,,,,,,,,0,117,117,117,,,,,,,,,,,,,,,1410.4477403329947,None,"['l', 'u', 'c', 'k', 'y']",1,"[0.6649454830039758, 0.8569688889983809, 1.1129515149950748, 1.1848987910052529, 1.3769609519949881]",1410.4477403329947,None,1410.4434033945988,None,P02_ryan_03_17_22,001,2022_Mar_17_1126,test_typingtask_norepeats,2020.2.10,114.99232965869757,
theme,theme,,,,,,,,,0,118,118,118,,,,,,,,,,,,,,,1415.950210430994,None,"['t', 'h', 'e', 'm', 'e']",1,"[0.6824929870053893, 0.7544626370072365, 0.9224856390064815, 1.0583740590082016, 1.194382255009259]",1415.950210430994,None,1415.945792490599,None,P02_ryan_03_17_22,001,2022_Mar_17_1126,test_typingtask_norepeats,2020.2.10,114.99232965869757,
champ,champ,,,,,,,,,0,119,119,119,,,,,,,,,,,,,,,1421.455328504002,None,"['c', 'h', 'a', 'm', 'p']",1,"[0.7532690629886929, 0.8093399009958375, 0.9932829729950754, 1.0572644229978323, 1.1612522849900415]",1421.455328504002,None,1421.4505879645992,1421.5497401720058,P02_ryan_03_17_22,001,2022_Mar_17_1126,test_typingtask_norepeats,2020.2.10,114.99232965869757,
