string,corrAns,practice_trials.thisRepN,practice_trials.thisTrialN,practice_trials.thisN,practice_trials.thisIndex,trials_1.thisRepN,trials_1.thisTrialN,trials_1.thisN,trials_1.thisIndex,trials_2.thisRepN,trials_2.thisTrialN,trials_2.thisN,trials_2.thisIndex,key_resp_0.keys,key_resp_0.corr,key_resp_0.rt,text_1.started,text_1.stopped,key_resp_1.keys,key_resp_1.corr,key_resp_1.rt,key_resp_1.started,key_resp_1.stopped,sound_1A_1.started,sound_1A_1.stopped,break_time.started,break_time.stopped,text_2.started,text_2.stopped,key_resp_2.keys,key_resp_2.corr,key_resp_2.rt,key_resp_2.started,key_resp_2.stopped,sound_1A_2.started,sound_1A_2.stopped,participant,session,date,expName,psychopyVersion,frameRate,
fresh,fresh,0,0,0,0,,,,,,,,,"['f', 'r', 'e', 's', 'h']",1,"[1.1933653380256146, 1.8092649991158396, 2.1854026750661433, 2.5933785850647837, 2.8573197671212256]",,,,,,,,,,,,,,,,,,,,,p03_rmr_03302022,001,2022_Mar_30_1633,test_typingtask_norepeats,2020.2.10,118.25955685678221,
dream,dream,0,1,1,1,,,,,,,,,"['d', 'r', 'e', 'a', 'm']",1,"[1.3589433419983834, 1.9268614519387484, 2.2549333239439875, 2.4629509209189564, 2.982867348007858]",,,,,,,,,,,,,,,,,,,,,p03_rmr_03302022,001,2022_Mar_30_1633,test_typingtask_norepeats,2020.2.10,118.25955685678221,
slime,slime,0,2,2,2,,,,,,,,,"['s', 'l', 'i']",0,"[2.6232062559574842, 3.0872356288600713, 3.343124768929556]",,,,,,,,,,,,,,,,,,,,,p03_rmr_03302022,001,2022_Mar_30_1633,test_typingtask_norepeats,2020.2.10,118.25955685678221,
belly,belly,,,,,0,0,0,0,,,,,,,,72.47637697588652,None,"['b', 'e', 'l', 'l', 'y']",1,"[1.3452880340628326, 1.6972367400303483, 2.177283091004938, 2.3692217860370874, 2.817218953045085]",72.47637697588652,None,72.47048378204926,72.57113389601,,,,,,,,,,,,p03_rmr_03302022,001,2022_Mar_30_1633,test_typingtask_norepeats,2020.2.10,118.25955685678221,
about,about,,,,,0,1,1,1,,,,,,,,77.98039897205308,None,"['a', 'b', 'o', 'u', 't']",1,"[1.4332083398476243, 1.8652077179867774, 2.161271346034482, 2.32926792697981, 2.809141061967239]",77.98039897205308,None,77.97591770396102,78.07726856088266,,,,,,,,,,,,p03_rmr_03302022,001,2022_Mar_30_1633,test_typingtask_norepeats,2020.2.10,118.25955685678221,
puppy,puppy,,,,,0,2,2,2,,,,,,,,83.47820193995722,None,"['p', 'u', 'p', 'p', 'y']",1,"[1.2074602611828595, 1.5113288881257176, 1.7833907820750028, 1.9354570091236383, 2.287333431188017]",83.47820193995722,None,83.47329767190385,83.57228696206585,,,,,,,,,,,,p03_rmr_03302022,001,2022_Mar_30_1633,test_typingtask_norepeats,2020.2.10,118.25955685678221,
druze,druze,,,,,0,3,3,3,,,,,,,,88.99305038293824,None,"['d', 'r', 'u', 'z', 'e']",1,"[1.6205067031551152, 1.9564950421918184, 2.196531252004206, 2.644496282096952, 2.9565860962029546]",88.99305038293824,None,88.98613175286445,89.08697967696935,,,,,,,,,,,,p03_rmr_03302022,001,2022_Mar_30_1633,test_typingtask_norepeats,2020.2.10,118.25955685678221,
there,there,,,,,0,4,4,4,,,,,,,,94.49326239083894,None,"['t', 'h', 'e', 'r', 'e']",1,"[1.1843954059295356, 1.400389586109668, 1.6245307449717075, 1.904405743116513, 2.1763473011087626]",94.49326239083894,None,94.48853988086339,None,,,,,,,,,,,,p03_rmr_03302022,001,2022_Mar_30_1633,test_typingtask_norepeats,2020.2.10,118.25955685678221,
isvar,isvar,,,,,0,5,5,5,,,,,,,,99.99522720789537,None,"['i', 's', 'v', 'a', 'r']",1,"[1.07444086112082, 1.3943192570004612, 1.6023731010500342, 1.7784039590042084, 2.018422291148454]",99.99522720789537,None,99.98860640407074,100.09171731793322,,,,,,,,,,,,p03_rmr_03302022,001,2022_Mar_30_1633,test_typingtask_norepeats,2020.2.10,118.25955685678221,
heond,heond,,,,,0,6,6,6,,,,,,,,105.49206649884582,None,"['h', 'e', 'o', 'n', 'd']",1,"[1.3135706819593906, 1.569549815962091, 1.8335150659549981, 2.217536184936762, 2.649555274983868]",105.49206649884582,None,105.4880923440447,None,,,,,,,,,,,,p03_rmr_03302022,001,2022_Mar_30_1633,test_typingtask_norepeats,2020.2.10,118.25955685678221,
cheer,cheer,,,,,0,7,7,7,,,,,,,,111.00902505591512,None,"['c', 'h', 'e', 'e', 'r']",1,"[1.3405173909850419, 1.5006508419755846, 1.6765346999745816, 1.8285502190701663, 2.164537064032629]",111.00902505591512,None,111.00382095391396,111.1040872009471,,,,,,,,,,,,p03_rmr_03302022,001,2022_Mar_30_1633,test_typingtask_norepeats,2020.2.10,118.25955685678221,
there,there,,,,,0,8,8,8,,,,,,,,116.51272304495797,None,"['t', 'h', 'e', 'r', 'e']",1,"[0.9009303811471909, 1.0528681802097708, 1.2528711180202663, 1.4849524090532213, 1.684859743108973]",116.51272304495797,None,116.50843031706754,None,,,,,,,,,,,,p03_rmr_03302022,001,2022_Mar_30_1633,test_typingtask_norepeats,2020.2.10,118.25955685678221,
theme,theme,,,,,0,9,9,9,,,,,,,,122.01278410386294,None,"['t', 'h', 'e', 'm', 'n', 'e']",0,"[1.0168007069732994, 1.1688937121070921, 1.3207622191403061, 1.5529196981806308, 1.560766460141167, 1.9127621890511364]",122.01278410386294,None,122.00775000804569,122.10842666588724,,,,,,,,,,,,p03_rmr_03302022,001,2022_Mar_30_1633,test_typingtask_norepeats,2020.2.10,118.25955685678221,
tithe,tithe,,,,,0,10,10,10,,,,,,,,127.5290475608781,None,"['t', 'i', 't', 'h', 'e']",1,"[1.3565720689948648, 1.5966082070954144, 1.9407040770165622, 2.2446265700273216, 2.660591955995187]",127.5290475608781,None,127.52430297785904,None,,,,,,,,,,,,p03_rmr_03302022,001,2022_Mar_30_1633,test_typingtask_norepeats,2020.2.10,118.25955685678221,
would,would,,,,,0,11,11,11,,,,,,,,133.03185679088347,None,"['w', 'o', 'u', 'd']",0,"[0.9817554890178144, 1.2537600661162287, 1.4856794339139014, 2.3017719460185617]",133.03185679088347,None,133.02720541905146,133.12733733700588,,,,,,,,,,,,p03_rmr_03302022,001,2022_Mar_30_1633,test_typingtask_norepeats,2020.2.10,118.25955685678221,
vodka,vodka,,,,,0,12,12,12,,,,,,,,138.53517018188722,None,"['v', 'o', 'd', 'k', 'a']",1,"[1.110463029006496, 1.4624077659100294, 1.7664699950255454, 2.030427015852183, 2.3103765009436756]",138.53517018188722,None,138.5306963259587,None,,,,,,,,,,,,p03_rmr_03302022,001,2022_Mar_30_1633,test_typingtask_norepeats,2020.2.10,118.25955685678221,
would,would,,,,,0,13,13,13,,,,,,,,144.04254658706486,None,"['w', 'o', 'u', 'l', 'd']",1,"[1.0270626700948924, 1.3151297189760953, 1.5710792120080441, 1.9950474719516933, 2.2749946180265397]",144.04254658706486,None,144.03723634199704,144.13637498393655,,,,,,,,,,,,p03_rmr_03302022,001,2022_Mar_30_1633,test_typingtask_norepeats,2020.2.10,118.25955685678221,
haole,haole,,,,,0,14,14,14,,,,,,,,149.5527336220257,None,"['h', 'a', 'o', 'l', 'e']",1,"[1.6049041349906474, 1.8928974131122231, 2.2208699949551374, 2.5567960229236633, 2.8048239450436085]",149.5527336220257,None,149.54827774784061,None,,,,,,,,,,,,p03_rmr_03302022,001,2022_Mar_30_1633,test_typingtask_norepeats,2020.2.10,118.25955685678221,
faqir,faqir,,,,,0,15,15,15,,,,,,,,155.06657037092373,None,"['f', 'a', 'q', 'i', 'r']",1,"[1.24304029205814, 1.6030610839370638, 2.0030253778677434, 2.7950983620248735, 3.1310333178844303]",155.06657037092373,None,155.06011188800912,155.16259664599784,,,,,,,,,,,,p03_rmr_03302022,001,2022_Mar_30_1633,test_typingtask_norepeats,2020.2.10,118.25955685678221,
champ,champ,,,,,0,16,16,16,,,,,,,,160.57051035389304,None,"['c', 'h', 'a', 'm', 'p']",1,"[1.3631058039609343, 1.5311273268889636, 1.7230201868806034, 2.25911970785819, 2.6831348319537938]",160.57051035389304,None,160.5656872829655,160.66521753789857,,,,,,,,,,,,p03_rmr_03302022,001,2022_Mar_30_1633,test_typingtask_norepeats,2020.2.10,118.25955685678221,
lucky,lucky,,,,,0,17,17,17,,,,,,,,166.07914477400482,None,"['l', 'u', 'c', 'k', 'u', 'y']",0,"[1.2305254668463022, 1.5024306860286742, 1.9184512658976018, 2.230525900842622, 2.61451796698384, 2.61451796698384]",166.07914477400482,None,166.0741672190139,None,,,,,,,,,,,,p03_rmr_03302022,001,2022_Mar_30_1633,test_typingtask_norepeats,2020.2.10,118.25955685678221,
cooed,cooed,,,,,0,18,18,18,,,,,,,,171.58583936304785,None,"['c', 'o', 'o', 'e', 'd']",1,"[1.1717558309901506, 1.571777970995754, 1.9396913929376751, 2.243798659881577, 2.5396960938815027]",171.58583936304785,None,171.58102464701514,171.6814941498451,,,,,,,,,,,,p03_rmr_03302022,001,2022_Mar_30_1633,test_typingtask_norepeats,2020.2.10,118.25955685678221,
puppy,puppy,,,,,0,19,19,19,,,,,,,,177.09315212606452,None,"['p', 'u', 'p', 'p', 'y']",1,"[1.040396655909717, 1.3684827031102031, 1.696503619896248, 1.8644393030554056, 2.376491060014814]",177.09315212606452,None,177.08809114692266,177.18793554906733,,,,,,,,,,,,p03_rmr_03302022,001,2022_Mar_30_1633,test_typingtask_norepeats,2020.2.10,118.25955685678221,
kremp,kremp,,,,,0,20,20,20,,,,,,,,182.59435120690614,None,"['k', 'r', 'e', 'm', 'p']",1,"[1.7392691920977086, 2.0432449099607766, 2.2351876569446176, 2.371193615021184, 2.7232806209940463]",182.59435120690614,None,182.58945130605716,182.68859911104664,,,,,,,,,,,,p03_rmr_03302022,001,2022_Mar_30_1633,test_typingtask_norepeats,2020.2.10,118.25955685678221,
haole,haole,,,,,0,21,21,21,,,,,,,,188.096418926958,None,"['h', 'a', 'o', 'l', 'e']",1,"[1.2852486979681998, 1.5571712628006935, 2.1331171069759876, 2.405239132931456, 2.5651472308672965]",188.096418926958,None,188.09233872594777,None,,,,,,,,,,,,p03_rmr_03302022,001,2022_Mar_30_1633,test_typingtask_norepeats,2020.2.10,118.25955685678221,
tithe,tithe,,,,,0,22,22,22,,,,,,,,193.60494476696476,None,"['t', 'i', 't', 'h', 'e']",1,"[1.1286774489562958, 1.2405914911068976, 1.560729084070772, 1.8646270660683513, 2.216695260955021]",193.60494476696476,None,193.59986823985818,193.70038934797049,,,,,,,,,,,,p03_rmr_03302022,001,2022_Mar_30_1633,test_typingtask_norepeats,2020.2.10,118.25955685678221,
theme,theme,,,,,0,23,23,23,,,,,,,,199.1167322350666,None,"['t', 'h', 'e', 'm', 'e']",1,"[1.120926981093362, 1.3129257620312274, 1.5609048700425774, 1.8408036520704627, 2.0568419711198658]",199.1167322350666,None,199.1104246669216,199.21355055388995,,,,,,,,,,,,p03_rmr_03302022,001,2022_Mar_30_1633,test_typingtask_norepeats,2020.2.10,118.25955685678221,
think,think,,,,,0,24,24,24,,,,,,,,204.62203172105365,None,"['t', 'h', 'i', 'n', 'k']",1,"[0.9036349509842694, 1.1115118840243667, 1.3275515891145915, 1.5995207310188562, 1.807623540982604]",204.62203172105365,None,204.6172206078423,None,,,,,,,,,,,,p03_rmr_03302022,001,2022_Mar_30_1633,test_typingtask_norepeats,2020.2.10,118.25955685678221,
pykka,pykka,,,,,0,25,25,25,,,,,,,,210.12772207288072,None,"['p', 'y', 'k', 'k', 'a']",1,"[1.0298620578832924, 1.5258761278819293, 2.085959037998691, 2.2618878649082035, 2.4619702419731766]",210.12772207288072,None,210.12154059300664,210.22190725104883,,,,,,,,,,,,p03_rmr_03302022,001,2022_Mar_30_1633,test_typingtask_norepeats,2020.2.10,118.25955685678221,
therm,therm,,,,,0,26,26,26,,,,,,,,215.63417210290208,None,"['t', 'h', 'e', 'r', 'm']",1,"[0.9713570941239595, 1.1474889710079879, 1.38747662701644, 1.7074504890479147, 1.8994543950539082]",215.63417210290208,None,215.62960088092368,None,,,,,,,,,,,,p03_rmr_03302022,001,2022_Mar_30_1633,test_typingtask_norepeats,2020.2.10,118.25955685678221,
haole,haole,,,,,0,27,27,27,,,,,,,,221.1273592200596,None,"['h', 'a', 'o', 'l', 'e']",1,"[1.0381889829877764, 1.3743037770036608, 1.6783048589713871, 1.926194939063862, 2.1183190981391817]",221.1273592200596,None,221.12324837597552,None,,,,,,,,,,,,p03_rmr_03302022,001,2022_Mar_30_1633,test_typingtask_norepeats,2020.2.10,118.25955685678221,
would,would,,,,,0,28,28,28,,,,,,,,226.64206967991777,None,"['w', 'o', 'u', 'l', 'd']",1,"[0.8594674880150706, 1.0515520682092756, 1.2195255521219224, 1.6434880660381168, 2.003574226051569]",226.64206967991777,None,226.6370106199989,226.73666786705144,,,,,,,,,,,,p03_rmr_03302022,001,2022_Mar_30_1633,test_typingtask_norepeats,2020.2.10,118.25955685678221,
zibja,zibja,,,,,0,29,29,29,,,,,,,,232.13779490091838,None,"['z', 'i', 'b', 'j', 'a']",1,"[1.0278350899461657, 1.387889995938167, 2.1318713428918272, 2.4438431749586016, 2.643745274981484]",232.13779490091838,None,232.13095006092917,232.2344879170414,,,,,,,,,,,,p03_rmr_03302022,001,2022_Mar_30_1633,test_typingtask_norepeats,2020.2.10,118.25955685678221,
puppy,puppy,,,,,0,30,30,30,,,,,,,,237.64643819606863,None,"['p', 'u', 'p', 'p', 'y']",1,"[1.0470941599924117, 1.335105051053688, 1.6072683548554778, 1.7911807149648666, 2.0871205979492515]",237.64643819606863,None,237.64094887699466,237.7430600489024,,,,,,,,,,,,p03_rmr_03302022,001,2022_Mar_30_1633,test_typingtask_norepeats,2020.2.10,118.25955685678221,
would,would,,,,,0,31,31,31,,,,,,,,243.14700673590414,None,"['w', 'o', 'u', 'l', 'd']",1,"[0.8506876239553094, 1.0666307089850307, 1.314603899139911, 1.530611441936344, 1.7706275400705636]",243.14700673590414,None,243.1423558888724,243.24333002604544,,,,,,,,,,,,p03_rmr_03302022,001,2022_Mar_30_1633,test_typingtask_norepeats,2020.2.10,118.25955685678221,
champ,champ,,,,,0,32,32,32,,,,,,,,248.64848848688416,None,"['c', 'h', 'a', 'm', 'p']",1,"[1.1731906638015062, 1.3650973578915, 1.5171786989085376, 1.7331862978171557, 1.9571665229741484]",248.64848848688416,None,248.64394984000828,248.7458085140679,,,,,,,,,,,,p03_rmr_03302022,001,2022_Mar_30_1633,test_typingtask_norepeats,2020.2.10,118.25955685678221,
belly,belly,,,,,0,33,33,33,,,,,,,,254.16060256701894,None,"['b', 'e', 'l', 'l', 'y']",1,"[0.8690108060836792, 1.069025008007884, 1.3570215331856161, 1.5010329301003367, 1.7810445260256529]",254.16060256701894,None,254.1551914308453,254.2564651928842,,,,,,,,,,,,p03_rmr_03302022,001,2022_Mar_30_1633,test_typingtask_norepeats,2020.2.10,118.25955685678221,
heond,heond,,,,,0,34,34,34,,,,,,,,259.66423114784993,None,"['h', 'e', 'o', 'n', 'd']",1,"[1.1414130900520831, 1.357350965961814, 1.7414085150230676, 1.9734062559437007, 2.2293761919718236]",259.66423114784993,None,259.65934686388357,None,,,,,,,,,,,,p03_rmr_03302022,001,2022_Mar_30_1633,test_typingtask_norepeats,2020.2.10,118.25955685678221,
lucky,lucky,,,,,0,35,35,35,,,,,,,,265.17602910101414,None,"['l', 'u', 'c', 'k', 'y']",1,"[0.8616404510103166, 1.109531519934535, 1.4776120679453015, 1.6856406559236348, 1.917596949962899]",265.17602910101414,None,265.1705446660286,265.2715252030175,,,,,,,,,,,,p03_rmr_03302022,001,2022_Mar_30_1633,test_typingtask_norepeats,2020.2.10,118.25955685678221,
haole,haole,,,,,0,36,36,36,,,,,,,,270.6822913158685,None,"['h', 'a', 'o', 'l', 'e']",1,"[0.9232616049703211, 1.0993934699799865, 1.3072384630795568, 1.5472365349996835, 1.7473517060279846]",270.6822913158685,None,270.67814582798167,270.7795770599041,,,,,,,,,,,,p03_rmr_03302022,001,2022_Mar_30_1633,test_typingtask_norepeats,2020.2.10,118.25955685678221,
edthe,edthe,,,,,0,37,37,37,,,,,,,,276.1869117519818,None,"['e', 'd', 't', 'h', 'e']",1,"[0.8187655590008944, 1.042761387070641, 1.5546243640128523, 1.7467142750974745, 2.01868833694607]",276.1869117519818,None,276.18215706388,276.2835650560446,,,,,,,,,,,,p03_rmr_03302022,001,2022_Mar_30_1633,test_typingtask_norepeats,2020.2.10,118.25955685678221,
faqir,faqir,,,,,0,38,38,38,,,,,,,,281.686482117977,None,"['f', 'a', 'q', 'i', 'r']",1,"[1.0551750250160694, 1.2150767031125724, 1.6952133080922067, 2.0311500399839133, 2.2471231531817466]",281.686482117977,None,281.68148833399175,281.78262202604674,,,,,,,,,,,,p03_rmr_03302022,001,2022_Mar_30_1633,test_typingtask_norepeats,2020.2.10,118.25955685678221,
tithe,tithe,,,,,0,39,39,39,,,,,,,,287.193408486899,None,"['t', 'i', 't', 'h', 'e']",1,"[1.2041426319628954, 1.5001395179424435, 1.7961350919213146, 2.0762260870542377, 2.3241507280617952]",287.193408486899,None,287.1881738859462,None,,,,,,,,,,,,p03_rmr_03302022,001,2022_Mar_30_1633,test_typingtask_norepeats,2020.2.10,118.25955685678221,
edthe,edthe,,,,,0,40,40,40,,,,,,,,292.70102581894025,None,"['e', 'd', 't', 'h', 'e']",1,"[1.7045949888415635, 2.0005097328685224, 2.400505203055218, 2.5765638479497284, 2.776573573006317]",292.70102581894025,None,292.6972555038752,None,,,,,,,,,,,,p03_rmr_03302022,001,2022_Mar_30_1633,test_typingtask_norepeats,2020.2.10,118.25955685678221,
vodka,vodka,,,,,0,41,41,41,,,,,,,,298.20904277684167,None,"['v', 'o', 'd', 'k', 'a']",1,"[1.060586191015318, 1.33256876305677, 1.5725784031674266, 1.81260666414164, 1.9804866060148925]",298.20904277684167,None,298.203566764039,298.3034662369173,,,,,,,,,,,,p03_rmr_03302022,001,2022_Mar_30_1633,test_typingtask_norepeats,2020.2.10,118.25955685678221,
champ,champ,,,,,0,42,42,42,,,,,,,,303.71576273604296,None,"['c', 'h', 'a', 'm', 'p']",1,"[0.9939065261278301, 1.2418567941058427, 1.4338073739781976, 1.6499027330428362, 1.96989650093019]",303.71576273604296,None,303.71140360997526,303.8125741148833,,,,,,,,,,,,p03_rmr_03302022,001,2022_Mar_30_1633,test_typingtask_norepeats,2020.2.10,118.25955685678221,
kremp,kremp,,,,,0,43,43,43,,,,,,,,309.2171953760553,None,"['k', 'r', 'e', 'm', 'p']",1,"[0.956430034013465, 1.2444353729952127, 1.3563453818205744, 1.4523954410105944, 1.6204424209427088]",309.2171953760553,None,309.2129002700327,309.3133556318935,,,,,,,,,,,,p03_rmr_03302022,001,2022_Mar_30_1633,test_typingtask_norepeats,2020.2.10,118.25955685678221,
cheer,cheer,,,,,0,44,44,44,,,,,,,,314.7195909919683,None,"['c', 'h', 'e', 'e', 'r']",1,"[1.126078438013792, 1.470033214893192, 1.734088007826358, 1.9340230140369385, 2.1900380209553987]",314.7195909919683,None,314.7150032129372,314.8155689870473,,,,,,,,,,,,p03_rmr_03302022,001,2022_Mar_30_1633,test_typingtask_norepeats,2020.2.10,118.25955685678221,
theme,theme,,,,,0,45,45,45,,,,,,,,320.23712258506566,None,"['t', 'h', 'e', 'm', 'e']",1,"[0.9445134829729795, 1.064509006915614, 1.232633588835597, 1.4724998408928514, 1.65649517881684]",320.23712258506566,None,320.2321987450356,320.3333946429193,,,,,,,,,,,,p03_rmr_03302022,001,2022_Mar_30_1633,test_typingtask_norepeats,2020.2.10,118.25955685678221,
vodka,vodka,,,,,0,46,46,46,,,,,,,,325.74275405704975,None,"['v', 'o', 'd', 'k', 'a']",1,"[1.334791302215308, 1.5349299001973122, 1.8468752871267498, 2.078893178142607, 2.278775481041521]",325.74275405704975,None,325.7374858909985,325.8366864148993,,,,,,,,,,,,p03_rmr_03302022,001,2022_Mar_30_1633,test_typingtask_norepeats,2020.2.10,118.25955685678221,
lucky,lucky,,,,,0,47,47,47,,,,,,,,331.246830283897,None,"['l', 'u', 'c', 'k', 'y']",1,"[1.5268545791041106, 1.8947823140770197, 2.2388341322075576, 2.430698303040117, 2.782819562125951]",331.246830283897,None,331.241674443963,331.34360728389584,,,,,,,,,,,,p03_rmr_03302022,001,2022_Mar_30_1633,test_typingtask_norepeats,2020.2.10,118.25955685678221,
edthe,edthe,,,,,0,48,48,48,,,,,,,,336.75259363185614,None,"['e', 'd', 't', 'h', 'e']",1,"[0.9810339491814375, 1.156938519096002, 1.501012786058709, 1.6290818070992827, 1.7889883529860526]",336.75259363185614,None,336.74836508606097,None,,,,,,,,,,,,p03_rmr_03302022,001,2022_Mar_30_1633,test_typingtask_norepeats,2020.2.10,118.25955685678221,
buddy,buddy,,,,,0,49,49,49,,,,,,,,342.26012058905326,None,"['b', 'u', 'd', 'd', 'y']",1,"[0.9854297109413892, 1.169432062888518, 1.4254296438302845, 1.5695541359018534, 1.8494922078680247]",342.26012058905326,None,342.2547056218842,342.3554760599509,,,,,,,,,,,,p03_rmr_03302022,001,2022_Mar_30_1633,test_typingtask_norepeats,2020.2.10,118.25955685678221,
champ,champ,,,,,0,50,50,50,,,,,,,,347.7619124590419,None,"['c', 'h', 'a', 'm', 'p']",1,"[0.8997520729899406, 1.09971432085149, 1.2676280857995152, 1.507760050939396, 1.8037128038704395]",347.7619124590419,None,347.75743803500666,None,,,,,,,,,,,,p03_rmr_03302022,001,2022_Mar_30_1633,test_typingtask_norepeats,2020.2.10,118.25955685678221,
would,would,,,,,0,51,51,51,,,,,,,,353.271242785966,None,"['w', 'o', 'u', 'l', 'd']",1,"[0.8862977060489357, 1.0463005399797112, 1.1983663069549948, 1.4144452209584415, 1.5824151430279016]",353.271242785966,None,353.2663617108716,353.36694785091095,,,,,,,,,,,,p03_rmr_03302022,001,2022_Mar_30_1633,test_typingtask_norepeats,2020.2.10,118.25955685678221,
isvar,isvar,,,,,0,52,52,52,,,,,,,,358.7821543889586,None,"['i', 's', 'v', 'a', 'r']",1,"[0.9514024690724909, 1.111392960185185, 1.319513521157205, 1.4634492250625044, 1.7434053451288491]",358.7821543889586,None,358.7766980510438,358.87892416492105,,,,,,,,,,,,p03_rmr_03302022,001,2022_Mar_30_1633,test_typingtask_norepeats,2020.2.10,118.25955685678221,
think,think,,,,,0,53,53,53,,,,,,,,364.28935718303546,None,"['t', 'h', 'i', 'n', 'k']",1,"[1.0123027220834047, 1.156322439899668, 1.308211478870362, 1.5802676358725876, 1.7642520379740745]",364.28935718303546,None,364.28438553286253,364.38645047391765,,,,,,,,,,,,p03_rmr_03302022,001,2022_Mar_30_1633,test_typingtask_norepeats,2020.2.10,118.25955685678221,
there,there,,,,,0,54,54,54,,,,,,,,369.7949820549693,None,"['t', 'h', 'e', 'r', 'e']",1,"[0.9786925711669028, 1.1225759431254119, 1.314676286187023, 1.4986596701201051, 1.706552712013945]",369.7949820549693,None,369.7907362829661,None,,,,,,,,,,,,p03_rmr_03302022,001,2022_Mar_30_1633,test_typingtask_norepeats,2020.2.10,118.25955685678221,
vodka,vodka,,,,,0,55,55,55,,,,,,,,375.30406448896974,None,"['v', 'o', 'd', 'k', 'a']",1,"[0.7654767269268632, 1.1894952550064772, 1.485556511906907, 1.6855504249688238, 1.8455073779914528]",375.30406448896974,None,375.2987877410138,375.39941207901575,,,,,,,,,,,,p03_rmr_03302022,001,2022_Mar_30_1633,test_typingtask_norepeats,2020.2.10,118.25955685678221,
cheer,cheer,,,,,0,56,56,56,,,,,,,,380.8046118898783,None,"['c', 'h', 'e', 'e', 'r']",1,"[1.0330624370835721, 1.2649424991104752, 1.4730523801408708, 1.6730104330927134, 1.913035131059587]",380.8046118898783,None,380.7996995100053,380.8998042619787,,,,,,,,,,,,p03_rmr_03302022,001,2022_Mar_30_1633,test_typingtask_norepeats,2020.2.10,118.25955685678221,
buddy,buddy,,,,,0,57,57,57,,,,,,,,386.3150486329105,None,"['b', 'u', 'd', 'd', 'y']",1,"[0.8825450940057635, 1.0025109818670899, 1.3945113709196448, 1.5386067179497331, 2.3064920408651233]",386.3150486329105,None,386.30982762391216,386.4123547358904,,,,,,,,,,,,p03_rmr_03302022,001,2022_Mar_30_1633,test_typingtask_norepeats,2020.2.10,118.25955685678221,
belly,belly,,,,,0,58,58,58,,,,,,,,391.8217838979326,None,"['b', 'e', 'l', 'l', 'y']",1,"[0.7438918738625944, 0.9518654108978808, 1.2238965348806232, 1.3758863739203662, 1.831860071979463]",391.8217838979326,None,391.81571229503027,None,,,,,,,,,,,,p03_rmr_03302022,001,2022_Mar_30_1633,test_typingtask_norepeats,2020.2.10,118.25955685678221,
cheer,cheer,,,,,0,59,59,59,,,,,,,,397.3281363369897,None,"['c', 'h', 'e', 'e', 'r']",1,"[0.7975047519430518, 0.9734572698362172, 1.1575013459660113, 1.357402920955792, 1.6135387818794698]",397.3281363369897,None,397.32340832499324,None,,,,,,,,,,,,p03_rmr_03302022,001,2022_Mar_30_1633,test_typingtask_norepeats,2020.2.10,118.25955685678221,
about,about,,,,,0,60,60,60,,,,,,,,402.8343414089177,None,"['a', 'b', 'o', 'u', 't']",1,"[0.7632972078863531, 0.89919653092511, 1.0272641768679023, 1.0673164390027523, 1.275249841855839]",402.8343414089177,None,402.82989080788104,402.9299449669197,,,,,,,,,,,,p03_rmr_03302022,001,2022_Mar_30_1633,test_typingtask_norepeats,2020.2.10,118.25955685678221,
faqir,faqir,,,,,0,61,61,61,,,,,,,,408.3334067449905,None,"['f', 'a', 'q', 'i', 'r']",1,"[1.2002069980371743, 1.3922432349063456, 2.0962367989122868, 2.344137125881389, 2.6322333440184593]",408.3334067449905,None,408.3285866598832,408.4299329009373,,,,,,,,,,,,p03_rmr_03302022,001,2022_Mar_30_1633,test_typingtask_norepeats,2020.2.10,118.25955685678221,
about,about,,,,,0,62,62,62,,,,,,,,413.8343343869783,None,"['a', 'b', 'o', 'u', 't']",1,"[0.8592560330871493, 1.1793370670638978, 1.4832835029810667, 1.6433821911923587, 1.9392075291834772]",413.8343343869783,None,413.83013598204127,413.9300684998743,,,,,,,,,,,,p03_rmr_03302022,001,2022_Mar_30_1633,test_typingtask_norepeats,2020.2.10,118.25955685678221,
therm,therm,,,,,0,63,63,63,,,,,,,,419.34448467800394,None,"['t', 'h', 'e', 'r', 'm']",1,"[0.9651879528537393, 1.1011937139555812, 1.317185578867793, 1.4931687058415264, 1.7411722498945892]",419.34448467800394,None,419.3396764099831,419.4429314059671,,,,,,,,,,,,p03_rmr_03302022,001,2022_Mar_30_1633,test_typingtask_norepeats,2020.2.10,118.25955685678221,
about,about,,,,,0,64,64,64,,,,,,,,424.84391995798796,None,"['a', 'b', 'o', 'u', 't']",1,"[0.969718572916463, 1.3137060578446835, 1.6417168728075922, 1.7776359859853983, 2.1857399370055646]",424.84391995798796,None,424.8390800790163,424.93878107587807,,,,,,,,,,,,p03_rmr_03302022,001,2022_Mar_30_1633,test_typingtask_norepeats,2020.2.10,118.25955685678221,
cooed,cooed,,,,,0,65,65,65,,,,,,,,430.3473436150234,None,"['c', 'o', 'o', 'e', 'd']",1,"[1.090302276890725, 1.4342673420906067, 1.6342938060406595, 1.8903562780469656, 2.154357010964304]",430.3473436150234,None,430.3428274260601,430.4541066749953,,,,,,,,,,,,p03_rmr_03302022,001,2022_Mar_30_1633,test_typingtask_norepeats,2020.2.10,118.25955685678221,
about,about,,,,,0,66,66,66,,,,,,,,435.852249877993,None,"['a', 'b', 'o', 'u', 't']",1,"[0.7853662560228258, 1.0894204070791602, 1.3534190531354398, 1.5372835809830576, 1.8413506960496306]",435.852249877993,None,435.84753713503017,435.94834431493655,,,,,,,,,,,,p03_rmr_03302022,001,2022_Mar_30_1633,test_typingtask_norepeats,2020.2.10,118.25955685678221,
haole,haole,,,,,0,67,67,67,,,,,,,,441.3537761750631,None,"['h', 'a', 'o', 'l', 'e']",1,"[0.9878735351376235, 1.3078342319931835, 1.747789504006505, 2.027868916047737, 2.22785821207799]",441.3537761750631,None,441.34957633006854,None,,,,,,,,,,,,p03_rmr_03302022,001,2022_Mar_30_1633,test_typingtask_norepeats,2020.2.10,118.25955685678221,
tithe,tithe,,,,,0,68,68,68,,,,,,,,446.8617284130305,None,"['t', 'i', 't', 'h', 'e']",1,"[0.9679081600625068, 1.1998940880876034, 1.40795660414733, 1.6479565920308232, 1.863936266163364]",446.8617284130305,None,446.8571615170455,446.9569799739402,,,,,,,,,,,,p03_rmr_03302022,001,2022_Mar_30_1633,test_typingtask_norepeats,2020.2.10,118.25955685678221,
faqir,faqir,,,,,0,69,69,69,,,,,,,,452.36689338297583,None,"['f', 'a', 'q', 'i', 'r']",1,"[1.0946484268642962, 1.3747720269020647, 1.8627028840128332, 2.126770867034793, 2.398770486935973]",452.36689338297583,None,452.36158187899275,452.46342249796726,,,,,,,,,,,,p03_rmr_03302022,001,2022_Mar_30_1633,test_typingtask_norepeats,2020.2.10,118.25955685678221,
there,there,,,,,0,70,70,70,,,,,,,,457.8649222049862,None,"['t', 'h', 'e', 'r', 'e']",1,"[0.8926476889755577, 1.1006246409378946, 1.3006250278558582, 1.5567162379156798, 1.804713028948754]",457.8649222049862,None,457.86090594602285,None,,,,,,,,,,,,p03_rmr_03302022,001,2022_Mar_30_1633,test_typingtask_norepeats,2020.2.10,118.25955685678221,
belly,belly,,,,,0,71,71,71,,,,,,,,463.3705561289098,None,"['b', 'e', 'l', 'l', 'y']",1,"[0.7310451888479292, 0.9391386928036809, 1.1710868088994175, 1.3310574879869819, 1.6510214819572866]",463.3705561289098,None,463.36517294102816,463.46752196201123,,,,,,,,,,,,p03_rmr_03302022,001,2022_Mar_30_1633,test_typingtask_norepeats,2020.2.10,118.25955685678221,
isvar,isvar,,,,,0,72,72,72,,,,,,,,468.8668553000316,None,"['i', 's', 'v', 'a', 'r']",1,"[0.9228011381346732, 1.7626880810130388, 2.0827329421881586, 2.3388159160967916, 2.6267043841071427]",468.8668553000316,None,468.8626161769731,468.96375085785985,,,,,,,,,,,,p03_rmr_03302022,001,2022_Mar_30_1633,test_typingtask_norepeats,2020.2.10,118.25955685678221,
therm,therm,,,,,0,73,73,73,,,,,,,,474.3813736529555,None,"['t', 'h', 'e', 'r', 'm']",1,"[0.9043011728208512, 1.0722408508881927, 1.2483597497921437, 1.952258514938876, 2.1602767708245665]",474.3813736529555,None,474.3769227420213,474.47807148005813,,,,,,,,,,,,p03_rmr_03302022,001,2022_Mar_30_1633,test_typingtask_norepeats,2020.2.10,118.25955685678221,
kremp,kremp,,,,,0,74,74,74,,,,,,,,479.8882164089009,None,"['k', 'r', 'e', 'm', 'p']",1,"[1.013319147983566, 1.3094239700585604, 1.4534604200161994, 1.5413877181708813, 1.7414063911419362]",479.8882164089009,None,479.8826717119897,479.98293677484617,,,,,,,,,,,,p03_rmr_03302022,001,2022_Mar_30_1633,test_typingtask_norepeats,2020.2.10,118.25955685678221,
druze,druze,,,,,0,75,75,75,,,,,,,,485.3895753158722,None,"['d', 'r', 'u', 'z', 'e']",1,"[0.7439813970122486, 0.9840820899698883, 1.4320948689710349, 1.7520716639701277, 1.992028346983716]",485.3895753158722,None,485.3843263439136,485.485716996016,,,,,,,,,,,,p03_rmr_03302022,001,2022_Mar_30_1633,test_typingtask_norepeats,2020.2.10,118.25955685678221,
champ,champ,,,,,0,76,76,76,,,,,,,,490.8861183228437,None,"['c', 'h', 'a', 'm', 'p']",1,"[1.055536394007504, 1.2154881348833442, 1.375468967948109, 1.5594192219432443, 1.8874087689910084]",490.8861183228437,None,490.88123701002917,490.9808216218371,,,,,,,,,,,,p03_rmr_03302022,001,2022_Mar_30_1633,test_typingtask_norepeats,2020.2.10,118.25955685678221,
zibja,zibja,,,,,0,77,77,77,,,,,,,,496.3878502359148,None,"['z', 'i', 'b', 'j', 'a']",1,"[1.0017532540950924, 1.177887432044372, 1.8656905530951917, 2.201680324971676, 2.3697453930508345]",496.3878502359148,None,496.3826453599846,496.4847322239075,,,,,,,,,,,,p03_rmr_03302022,001,2022_Mar_30_1633,test_typingtask_norepeats,2020.2.10,118.25955685678221,
puppy,puppy,,,,,0,78,78,78,,,,,,,,501.8880492739845,None,"['p', 'u', 'p', 'p', 'y']",1,"[1.2775804069824517, 1.5175358490087092, 1.7495157499797642, 1.8936097361147404, 2.1814777010586113]",501.8880492739845,None,501.8830027389573,501.98469540593214,,,,,,,,,,,,p03_rmr_03302022,001,2022_Mar_30_1633,test_typingtask_norepeats,2020.2.10,118.25955685678221,
belly,belly,,,,,0,79,79,79,,,,,,,,507.38766877003945,None,"['b', 'e', 'l', 'l', 'y']",1,"[0.7540025119669735, 0.9219652540050447, 1.1539683628361672, 1.305987651925534, 1.5538845129776746]",507.38766877003945,None,507.38187946591063,507.48381226486526,,,,,,,,,,,,p03_rmr_03302022,001,2022_Mar_30_1633,test_typingtask_norepeats,2020.2.10,118.25955685678221,
zibja,zibja,,,,,0,80,80,80,,,,,,,,512.8984622079879,None,"['z', 'i', 'b', 'j', 'a']",1,"[1.0991981129627675, 1.259075644891709, 1.7552004158496857, 1.9231153298169374, 2.107064137002453]",512.8984622079879,None,512.893421993847,512.996147840051,,,,,,,,,,,,p03_rmr_03302022,001,2022_Mar_30_1633,test_typingtask_norepeats,2020.2.10,118.25955685678221,
pykka,pykka,,,,,0,81,81,81,,,,,,,,518.4030020888895,None,"['p', 'y', 'k', 'k', 'a']",1,"[0.9945466439239681, 1.4826926609966904, 1.8346315799281, 2.0185432529542595, 2.226675799814984]",518.4030020888895,None,518.3980383449467,518.499068605015,,,,,,,,,,,,p03_rmr_03302022,001,2022_Mar_30_1633,test_typingtask_norepeats,2020.2.10,118.25955685678221,
tithe,tithe,,,,,0,82,82,82,,,,,,,,523.9059417739045,None,"['t', 'i', 't', 'h', 'e']",1,"[0.9876835129689425, 1.1636363910511136, 1.3397128749638796, 1.5076476039830595, 1.7157150011043996]",523.9059417739045,None,523.9010642110603,524.0038566419389,,,,,,,,,,,,p03_rmr_03302022,001,2022_Mar_30_1633,test_typingtask_norepeats,2020.2.10,118.25955685678221,
think,think,,,,,0,83,83,83,,,,,,,,529.4148571698461,None,"['t', 'h', 'i', 'n', 'k']",1,"[0.7588035420048982, 0.90272969705984, 1.0067932829260826, 1.2228217190131545, 1.3587928931228817]",529.4148571698461,None,529.4098273138749,529.5131498689298,,,,,,,,,,,,p03_rmr_03302022,001,2022_Mar_30_1633,test_typingtask_norepeats,2020.2.10,118.25955685678221,
zibja,zibja,,,,,0,84,84,84,,,,,,,,534.9234467798378,None,"['z', 'i', 'b', 'j', 'a']",1,"[0.9861987950280309, 1.2182302349247038, 1.578098834026605, 2.2502289060503244, 2.410204437095672]",534.9234467798378,None,534.920021073916,535.02205859893,,,,,,,,,,,,p03_rmr_03302022,001,2022_Mar_30_1633,test_typingtask_norepeats,2020.2.10,118.25955685678221,
lucky,lucky,,,,,0,85,85,85,,,,,,,,540.4281036348548,None,"['l', 'u', 'c', 'k', 'y']",1,"[0.9455527469981462, 1.1775651848874986, 1.5454921738710254, 1.6894486318342388, 1.9615608358290046]",540.4281036348548,None,540.4229184019147,540.5261295768432,,,,,,,,,,,,p03_rmr_03302022,001,2022_Mar_30_1633,test_typingtask_norepeats,2020.2.10,118.25955685678221,
druze,druze,,,,,0,86,86,86,,,,,,,,545.9261171028484,None,"['d', 'r', 'u', 'z', 'e']",1,"[1.375517999054864, 1.6234260010533035, 1.791513292118907, 2.1034878760110587, 2.3275580659974366]",545.9261171028484,None,545.9211986309616,546.0202946448699,,,,,,,,,,,,p03_rmr_03302022,001,2022_Mar_30_1633,test_typingtask_norepeats,2020.2.10,118.25955685678221,
cooed,cooed,,,,,0,87,87,87,,,,,,,,551.4300740219187,None,"['c', 'o', 'o', 'e', 'd']",1,"[1.0315975570119917, 1.3196408478543162, 1.4555592348333448, 1.6315649978350848, 1.7435923980083317]",551.4300740219187,None,551.4252908879658,551.526399069,,,,,,,,,,,,p03_rmr_03302022,001,2022_Mar_30_1633,test_typingtask_norepeats,2020.2.10,118.25955685678221,
druze,druze,,,,,0,88,88,88,,,,,,,,556.9312610949855,None,"['d', 'r', 'u', 'z', 'e']",1,"[1.0903927339240909, 1.3464000090025365, 1.6663906269241124, 1.9463226939551532, 2.194378353888169]",556.9312610949855,None,556.9269218859496,557.0277699430007,,,,,,,,,,,,p03_rmr_03302022,001,2022_Mar_30_1633,test_typingtask_norepeats,2020.2.10,118.25955685678221,
puppy,puppy,,,,,0,89,89,89,,,,,,,,562.4366953428835,None,"['p', 'u', 'p', 'p', 'y']",1,"[0.9769151690416038, 1.2649633130058646, 1.54493800108321, 1.688884095987305, 2.2889393761288375]",562.4366953428835,None,562.4318050379167,562.532446739031,,,,,,,,,,,,p03_rmr_03302022,001,2022_Mar_30_1633,test_typingtask_norepeats,2020.2.10,118.25955685678221,
kremp,kremp,,,,,0,90,90,90,,,,,,,,567.9474569398444,None,"['l', 'r', 'e', 'm', 'p']",0,"[0.9621725061442703, 1.3222347612027079, 1.4342192320618778, 1.5061228941194713, 1.6820955371949822]",567.9474569398444,None,567.9418586499756,568.0442674399819,,,,,,,,,,,,p03_rmr_03302022,001,2022_Mar_30_1633,test_typingtask_norepeats,2020.2.10,118.25955685678221,
buddy,buddy,,,,,0,91,91,91,,,,,,,,573.4458884489723,None,"['b', 'u', 'd', 'd', 'y']",1,"[0.9276762460358441, 1.0956681000534445, 1.615738705964759, 1.7917592639569193, 2.095773739973083]",573.4458884489723,None,573.4402387449751,573.5440241529141,,,,,,,,,,,,p03_rmr_03302022,001,2022_Mar_30_1633,test_typingtask_norepeats,2020.2.10,118.25955685678221,
pykka,pykka,,,,,0,92,92,92,,,,,,,,578.9438375269528,None,"['p', 'y', 'k', 'k', 'a']",1,"[0.9338005688041449, 1.4538373239338398, 2.117712166858837, 2.2937905779108405, 2.549817849881947]",578.9438375269528,None,578.9394199778559,579.0387086069677,,,,,,,,,,,,p03_rmr_03302022,001,2022_Mar_30_1633,test_typingtask_norepeats,2020.2.10,118.25955685678221,
isvar,isvar,,,,,0,93,93,93,,,,,,,,584.4565878128633,None,"['i', 's', 'a', 'v', 'r']",0,"[0.8690904141403735, 1.044944585999474, 1.3170851999893785, 2.46909924200736, 2.925044783158228]",584.4565878128633,None,584.4506103869295,584.5538551618811,,,,,,,,,,,,p03_rmr_03302022,001,2022_Mar_30_1633,test_typingtask_norepeats,2020.2.10,118.25955685678221,
think,think,,,,,0,94,94,94,,,,,,,,589.9568286568392,None,"['t', 'h', 'i', 'n', 'k']",1,"[0.8087880790699273, 0.9447945519350469, 1.0727365070488304, 1.3288070850539953, 1.464830880984664]",589.9568286568392,None,589.9534551608609,590.0528080069926,,,,,,,,,,,,p03_rmr_03302022,001,2022_Mar_30_1633,test_typingtask_norepeats,2020.2.10,118.25955685678221,
kremp,kremp,,,,,0,95,95,95,,,,,,,,595.4571085509378,None,"['l', 'r', 'e', 'm', 'p']",0,"[0.8844245600048453, 1.1245739180594683, 1.2365566960070282, 1.364497272996232, 1.5485752769745886]",595.4571085509378,None,595.4533152128803,None,,,,,,,,,,,,p03_rmr_03302022,001,2022_Mar_30_1633,test_typingtask_norepeats,2020.2.10,118.25955685678221,
heond,heond,,,,,0,96,96,96,,,,,,,,600.9676778358407,None,"['h', 'e', 'o', 'n', 'd']",1,"[1.453972859075293, 1.6139893671497703, 1.8619852310512215, 2.1179965210612863, 2.4140187280718237]",600.9676778358407,None,600.962660823972,601.06529198098,,,,,,,,,,,,p03_rmr_03302022,001,2022_Mar_30_1633,test_typingtask_norepeats,2020.2.10,118.25955685678221,
faqir,faqir,,,,,0,97,97,97,,,,,,,,606.4787852820009,None,"['f', 'a', 'q', 'i', 'r']",1,"[0.894741381984204, 1.102875575888902, 1.6708952179178596, 1.9667431209236383, 2.270776479970664]",606.4787852820009,None,606.4719886419131,606.5760618119966,,,,,,,,,,,,p03_rmr_03302022,001,2022_Mar_30_1633,test_typingtask_norepeats,2020.2.10,118.25955685678221,
edthe,edthe,,,,,0,98,98,98,,,,,,,,611.9722245628946,None,"['e', 'd', 't', 'h', 'e']",1,"[0.8732972370926291, 1.1533561651594937, 1.521317885024473, 1.7054518891964108, 1.9453707330394536]",611.9722245628946,None,611.9695128840627,612.0692014598753,,,,,,,,,,,,p03_rmr_03302022,001,2022_Mar_30_1633,test_typingtask_norepeats,2020.2.10,118.25955685678221,
pykka,pykka,,,,,0,99,99,99,,,,,,,,617.4890141829383,None,"['p', 'y', 'k', 'k', 'a']",1,"[0.9566572341136634, 1.4446606230922043, 1.9086455260403454, 2.100663816090673, 2.276642851997167]",617.4890141829383,None,617.4832577628782,None,,,,,,,,,,,,p03_rmr_03302022,001,2022_Mar_30_1633,test_typingtask_norepeats,2020.2.10,118.25955685678221,
cooed,cooed,,,,,0,100,100,100,,,,,,,,622.986224622,None,"['c', 'o', 'o', 'e', 'd']",1,"[1.075351993786171, 1.419401760911569, 1.5714373879600316, 1.7633486369159073, 1.9634853689931333]",622.986224622,None,622.9815454059514,None,,,,,,,,,,,,p03_rmr_03302022,001,2022_Mar_30_1633,test_typingtask_norepeats,2020.2.10,118.25955685678221,
therm,therm,,,,,0,101,101,101,,,,,,,,628.4928506158758,None,"['t', 'h', 'e', 'r', 'm']",1,"[0.8328641110565513, 0.944796612020582, 1.0806928321253508, 1.2967561080586165, 1.4567164389882237]",628.4928506158758,None,628.4875377400546,628.5875989759807,,,,,,,,,,,,p03_rmr_03302022,001,2022_Mar_30_1633,test_typingtask_norepeats,2020.2.10,118.25955685678221,
pykka,pykka,,,,,0,102,102,102,,,,,,,,634.002974340925,None,"['p', 'y', 'k', 'k', 'a']",1,"[0.8826581579633057, 1.2265587330330163, 1.53869226295501, 1.7066827600356191, 1.8746919808909297]",634.002974340925,None,633.9980434498517,634.0991026009433,,,,,,,,,,,,p03_rmr_03302022,001,2022_Mar_30_1633,test_typingtask_norepeats,2020.2.10,118.25955685678221,
buddy,buddy,,,,,0,103,103,103,,,,,,,,639.499321329873,None,"['b', 'u', 'd', 'd', 'y']",1,"[0.7943086791783571, 0.97829633904621, 1.4023444880731404, 1.5702313401270658, 1.8102763681672513]",639.499321329873,None,639.4932558778906,639.5974289318547,,,,,,,,,,,,p03_rmr_03302022,001,2022_Mar_30_1633,test_typingtask_norepeats,2020.2.10,118.25955685678221,
cooed,cooed,,,,,0,104,104,104,,,,,,,,645.0139513260219,None,"['c', 'o', 'o', 'e', 'd']",1,"[0.8476962859276682, 1.335791490972042, 1.6557212388142943, 1.9596210250165313, 2.039666283875704]",645.0139513260219,None,645.0091435879236,645.1111604219768,,,,,,,,,,,,p03_rmr_03302022,001,2022_Mar_30_1633,test_typingtask_norepeats,2020.2.10,118.25955685678221,
druze,druze,,,,,0,105,105,105,,,,,,,,650.5069079289678,None,"['d', 'r', 'u', 'z', 'e']",1,"[0.890748567180708, 1.1227506010327488, 1.4186959799844772, 1.698726047994569, 1.946759028127417]",650.5069079289678,None,650.5039421678754,650.6030283439904,,,,,,,,,,,,p03_rmr_03302022,001,2022_Mar_30_1633,test_typingtask_norepeats,2020.2.10,118.25955685678221,
heond,heond,,,,,0,106,106,106,,,,,,,,656.0127396460157,None,"['h', 'e', 'o', 'p', 'n', 'd']",0,"[0.8809097250923514, 1.0249149219598621, 1.2408054750412703, 1.2408054750412703, 1.7449017360340804, 1.9208183709997684]",656.0127396460157,None,656.0090703619877,None,,,,,,,,,,,,p03_rmr_03302022,001,2022_Mar_30_1633,test_typingtask_norepeats,2020.2.10,118.25955685678221,
theme,theme,,,,,0,107,107,107,,,,,,,,661.5151361268945,None,"['t', 'h', 'e', 'm', 'e']",1,"[0.8425075828563422, 0.9624876999296248, 1.1784107519779354, 1.4825021978467703, 1.6824969339650124]",661.5151361268945,None,661.5102297389182,661.6125291939825,,,,,,,,,,,,p03_rmr_03302022,001,2022_Mar_30_1633,test_typingtask_norepeats,2020.2.10,118.25955685678221,
isvar,isvar,,,,,0,108,108,108,,,,,,,,667.0273895969149,None,"['i', 's', 'v', 'a', 'r']",1,"[0.9302385209593922, 1.650353766977787, 1.9542892929166555, 2.1622573679778725, 2.4022056800313294]",667.0273895969149,None,667.021911817859,667.1234407939482,,,,,,,,,,,,p03_rmr_03302022,001,2022_Mar_30_1633,test_typingtask_norepeats,2020.2.10,118.25955685678221,
buddy,buddy,,,,,0,109,109,109,,,,,,,,672.5326040450018,None,"['b', 'u', 'd', 'd', 'y']",1,"[0.8650338070001453, 1.0329566979780793, 1.3209379480686039, 1.4970417839940637, 1.7690457480493933]",672.5326040450018,None,672.527405269933,672.6302914898843,,,,,,,,,,,,p03_rmr_03302022,001,2022_Mar_30_1633,test_typingtask_norepeats,2020.2.10,118.25955685678221,
think,think,,,,,0,110,110,110,,,,,,,,678.0376386409625,None,"['t', 'h', 'i', 'n', 'k']",1,"[0.895948285004124, 1.0080415189731866, 1.2320479259360582, 1.5199328938033432, 1.727931025903672]",678.0376386409625,None,678.0326177790063,678.1340859730262,,,,,,,,,,,,p03_rmr_03302022,001,2022_Mar_30_1633,test_typingtask_norepeats,2020.2.10,118.25955685678221,
zibja,zibja,,,,,0,111,111,111,,,,,,,,683.5469639189541,None,"['z', 'i', 'b', 'j', 'a']",1,"[1.114585183095187, 1.31468934006989, 2.122678541112691, 2.3546552800107747, 2.5386018629651517]",683.5469639189541,None,683.5412216738565,683.6452583419159,,,,,,,,,,,,p03_rmr_03302022,001,2022_Mar_30_1633,test_typingtask_norepeats,2020.2.10,118.25955685678221,
therm,therm,,,,,0,112,112,112,,,,,,,,689.0466310409829,None,"['t', 'h', 'e', 'r', 'm']",1,"[0.8309837379492819, 0.9350410958286375, 1.1110176870133728, 1.2549499028827995, 1.398915576050058]",689.0466310409829,None,689.0408263958758,689.1439985858742,,,,,,,,,,,,p03_rmr_03302022,001,2022_Mar_30_1633,test_typingtask_norepeats,2020.2.10,118.25955685678221,
cheer,cheer,,,,,0,113,113,113,,,,,,,,694.5542267798446,None,"['c', 'h', 'e', 'e', 'r']",1,"[0.8114080221857876, 1.0114279801491648, 1.171395051991567, 1.3553171900566667, 1.5553368031978607]",694.5542267798446,None,694.5490576599492,694.6509685688652,,,,,,,,,,,,p03_rmr_03302022,001,2022_Mar_30_1633,test_typingtask_norepeats,2020.2.10,118.25955685678221,
lucky,lucky,,,,,0,114,114,114,,,,,,,,700.0522593699861,None,"['l', 'u', 'c', 'k', 'y']",1,"[0.9773441080469638, 1.21742032491602, 1.585325825959444, 1.73738025710918, 2.0013990779407322]",700.0522593699861,None,700.0473779640394,700.1480639530346,,,,,,,,,,,,p03_rmr_03302022,001,2022_Mar_30_1633,test_typingtask_norepeats,2020.2.10,118.25955685678221,
edthe,edthe,,,,,0,115,115,115,,,,,,,,705.5531955428887,None,"['e', 'd', 't', 'h', 'e']",1,"[0.9324313779361546, 1.140435477020219, 1.4524361619260162, 1.5484764319844544, 1.8525325818918645]",705.5531955428887,None,705.5483010700206,705.648108814843,,,,,,,,,,,,p03_rmr_03302022,001,2022_Mar_30_1633,test_typingtask_norepeats,2020.2.10,118.25955685678221,
vodka,vodka,,,,,0,116,116,116,,,,,,,,711.0656761568971,None,"['v', 'o', 'd', 'k', 'a']",1,"[0.94786586612463, 1.1798653909936547, 1.4119583149440587, 1.603975241072476, 1.7479017449077219]",711.0656761568971,None,711.0613647909137,711.163038484985,,,,,,,,,,,,p03_rmr_03302022,001,2022_Mar_30_1633,test_typingtask_norepeats,2020.2.10,118.25955685678221,
theme,theme,,,,,0,117,117,117,,,,,,,,716.5699725348968,None,"['t', 'h', 'e', 'm', 'e']",1,"[0.7076550889760256, 0.8435905179940164, 1.0036882818676531, 1.2036786689423025, 1.3636409870814532]",716.5699725348968,None,716.5649115890498,716.6662008299027,,,,,,,,,,,,p03_rmr_03302022,001,2022_Mar_30_1633,test_typingtask_norepeats,2020.2.10,118.25955685678221,
heond,heond,,,,,0,118,118,118,,,,,,,,722.068265118869,None,"['h', 'e', 'o', 'n', 'd']",1,"[1.201434190152213, 1.3293598950840533, 1.5293460520915687, 1.7613539691083133, 2.0094151981174946]",722.068265118869,None,722.0635210490087,722.1646315779071,,,,,,,,,,,,p03_rmr_03302022,001,2022_Mar_30_1633,test_typingtask_norepeats,2020.2.10,118.25955685678221,
there,there,,,,,0,119,119,119,,,,,,,,727.5726210679859,None,"['t', 'h', 'e', 'r', 'e']",1,"[1.2810623389668763, 1.41706170886755, 1.592954576946795, 1.8169186988379806, 2.0489556649699807]",727.5726210679859,None,727.5701772049302,None,,,,,,,,,,,,p03_rmr_03302022,001,2022_Mar_30_1633,test_typingtask_norepeats,2020.2.10,118.25955685678221,
pykka,pykka,,,,,,,,,0,0,0,0,,,,,,,,,,,,,733.0730902638752,None,781.5716571249068,None,"['p', 'y', 'k', 'k', 'a']",1,"[1.2900883089751005, 1.530002738814801, 2.0020060988608748, 2.1778755579143763, 2.377897460013628]",781.5716571249068,None,781.5659963409882,None,p03_rmr_03302022,001,2022_Mar_30_1633,test_typingtask_norepeats,2020.2.10,118.25955685678221,
therm,therm,,,,,,,,,0,1,1,1,,,,,,,,,,,,,,,787.0943296770565,None,"['t', 'h', 'e', 'r', 'm']",1,"[0.8953617650549859, 1.0472867761272937, 1.1753350321669132, 1.2793221750762314, 1.5114186611026525]",787.0943296770565,None,787.0892034329241,787.1896419168916,p03_rmr_03302022,001,2022_Mar_30_1633,test_typingtask_norepeats,2020.2.10,118.25955685678221,
lucky,lucky,,,,,,,,,0,2,2,2,,,,,,,,,,,,,,,792.6007461070549,None,"['l', 'u', 'c', 'k', 'y']",1,"[1.308902105083689, 1.5729111470282078, 1.836874061031267, 1.9889256809838116, 2.180844758171588]",792.6007461070549,None,792.5960894369288,792.697480272036,p03_rmr_03302022,001,2022_Mar_30_1633,test_typingtask_norepeats,2020.2.10,118.25955685678221,
puppy,puppy,,,,,,,,,0,3,3,3,,,,,,,,,,,,,,,798.1010898340028,None,"['p', 'u', 'p', 'p', 'y']",1,"[0.832595017971471, 1.064557691803202, 1.2805371650028974, 1.4325254089199007, 1.6165788958314806]",798.1010898340028,None,798.0962398299249,798.1977873749565,p03_rmr_03302022,001,2022_Mar_30_1633,test_typingtask_norepeats,2020.2.10,118.25955685678221,
would,would,,,,,,,,,0,4,4,4,,,,,,,,,,,,,,,803.6110030498821,None,"['w', 'o', 'u', 'l', 'd']",1,"[0.842703351052478, 1.0266947171185166, 1.2106722930911928, 1.3627065201289952, 1.5305799490306526]",803.6110030498821,None,803.6051760239294,803.706780557055,p03_rmr_03302022,001,2022_Mar_30_1633,test_typingtask_norepeats,2020.2.10,118.25955685678221,
tithe,tithe,,,,,,,,,0,5,5,5,,,,,,,,,,,,,,,809.1164105320349,None,"['t', 'i', 't', 'h', 'e']",1,"[0.8892455489840358, 1.1212475788779557, 1.24124636198394, 1.3771740780211985, 1.5051591319497675]",809.1164105320349,None,809.1119962870376,809.2133489828557,p03_rmr_03302022,001,2022_Mar_30_1633,test_typingtask_norepeats,2020.2.10,118.25955685678221,
vodka,vodka,,,,,,,,,0,6,6,6,,,,,,,,,,,,,,,814.6190671280492,None,"['v', 'o', 'd', 'k', 'a']",1,"[0.8266301141120493, 1.0184630330186337, 1.31455116905272, 1.4984719092026353, 1.7065922431647778]",814.6190671280492,None,814.6141770140035,814.7152842679061,p03_rmr_03302022,001,2022_Mar_30_1633,test_typingtask_norepeats,2020.2.10,118.25955685678221,
edthe,edthe,,,,,,,,,0,7,7,7,,,,,,,,,,,,,,,820.1193493478931,None,"['e', 'd', 't', 'h', 'e']",1,"[0.750290194991976, 0.8942844769917428, 1.1582702659070492, 1.302291545085609, 1.3981414909940213]",820.1193493478931,None,820.1152137939586,820.2151308900211,p03_rmr_03302022,001,2022_Mar_30_1633,test_typingtask_norepeats,2020.2.10,118.25955685678221,
isvar,isvar,,,,,,,,,0,8,8,8,,,,,,,,,,,,,,,825.6296985000372,None,"['i', 's', 'v', 'a', 'r']",1,"[0.9119433311279863, 1.1600170221645385, 1.479850305011496, 1.6240009651519358, 1.7838601900730282]",825.6296985000372,None,825.62456948685,825.7274410729297,p03_rmr_03302022,001,2022_Mar_30_1633,test_typingtask_norepeats,2020.2.10,118.25955685678221,
faqir,faqir,,,,,,,,,0,9,9,9,,,,,,,,,,,,,,,831.1392775978893,None,"['f', 'a', 'q', 'i', 'r']",1,"[0.9463428768794984, 1.1463448640424758, 1.6584106609225273, 1.8503466448746622, 2.082330070901662]",831.1392775978893,None,831.1330195099814,831.2377551170066,p03_rmr_03302022,001,2022_Mar_30_1633,test_typingtask_norepeats,2020.2.10,118.25955685678221,
kremp,kremp,,,,,,,,,0,10,10,10,,,,,,,,,,,,,,,836.6481533779297,None,"['k', 'r', 'e', 'm', 'p']",1,"[1.5814048498868942, 1.9094611308537424, 2.1015035228338093, 2.341527275973931, 2.6055079959332943]",836.6481533779297,None,836.6431633278495,836.7451691399328,p03_rmr_03302022,001,2022_Mar_30_1633,test_typingtask_norepeats,2020.2.10,118.25955685678221,
theme,theme,,,,,,,,,0,11,11,11,,,,,,,,,,,,,,,842.1534918139223,None,"['t', 'h', 'e', 'm', 'e']",1,"[0.7801641239784658, 0.9001595349982381, 1.0201623679604381, 1.2281570518389344, 1.380175573984161]",842.1534918139223,None,842.1482544520637,842.2519972959999,p03_rmr_03302022,001,2022_Mar_30_1633,test_typingtask_norepeats,2020.2.10,118.25955685678221,
haole,haole,,,,,,,,,0,12,12,12,,,,,,,,,,,,,,,847.6615360989235,None,"['h', 'a', 'o', 'l', 'e']",1,"[1.0161311510019004, 1.1120374270249158, 1.2801381980534643, 1.5041393591091037, 1.7199991440866143]",847.6615360989235,None,847.6570234638872,None,p03_rmr_03302022,001,2022_Mar_30_1633,test_typingtask_norepeats,2020.2.10,118.25955685678221,
druze,druze,,,,,,,,,0,13,13,13,,,,,,,,,,,,,,,853.1597065979149,None,"['d', 'r', 'u', 'z', 'e']",1,"[0.8138645819853991, 0.9978817040100694, 1.3659452919382602, 1.6780033649411052, 1.8698620598297566]",853.1597065979149,None,853.1549714450026,853.2554374788888,p03_rmr_03302022,001,2022_Mar_30_1633,test_typingtask_norepeats,2020.2.10,118.25955685678221,
there,there,,,,,,,,,0,14,14,14,,,,,,,,,,,,,,,858.6656379678752,None,"['t', 'h', 'e', 'r', 'e']",1,"[0.8440388080198318, 0.9959068759344518, 1.131922580068931, 1.3960378370247781, 1.635946512920782]",858.6656379678752,None,858.661634844984,858.7625653168652,p03_rmr_03302022,001,2022_Mar_30_1633,test_typingtask_norepeats,2020.2.10,118.25955685678221,
haole,haole,,,,,,,,,0,15,15,15,,,,,,,,,,,,,,,864.1773255479056,None,"['h', 'a', 'o', 'l', 'e']",1,"[0.884330022148788, 1.0443447299767286, 1.252288786927238, 1.4923622410278767, 1.6683108429424465]",864.1773255479056,None,864.1720255639171,864.2721266360022,p03_rmr_03302022,001,2022_Mar_30_1633,test_typingtask_norepeats,2020.2.10,118.25955685678221,
cheer,cheer,,,,,,,,,0,16,16,16,,,,,,,,,,,,,,,869.678657325916,None,"['c', 'h', 'e', 'e', 'r']",1,"[1.1510118809528649, 1.2950039019342512, 1.5989573628176004, 1.774920929921791, 1.9509739868808538]",869.678657325916,None,869.6737370509887,869.7761354618706,p03_rmr_03302022,001,2022_Mar_30_1633,test_typingtask_norepeats,2020.2.10,118.25955685678221,
belly,belly,,,,,,,,,0,17,17,17,,,,,,,,,,,,,,,875.1857007029466,None,"['b', 'e', 'l', 'l', 'y']",1,"[0.7399463790934533, 0.9158371191006154, 1.17987393704243, 1.3398798641283065, 1.6520165160764009]",875.1857007029466,None,875.1803808429046,875.282242428977,p03_rmr_03302022,001,2022_Mar_30_1633,test_typingtask_norepeats,2020.2.10,118.25955685678221,
tithe,tithe,,,,,,,,,0,18,18,18,,,,,,,,,,,,,,,880.6968360219616,None,"['t', 'i', 't', 'h', 'e']",1,"[0.8048348401207477, 0.9887775520328432, 1.1248306401539594, 1.2687582611106336, 1.4288387361448258]",880.6968360219616,None,880.6916728378507,880.7936257768888,p03_rmr_03302022,001,2022_Mar_30_1633,test_typingtask_norepeats,2020.2.10,118.25955685678221,
would,would,,,,,,,,,0,19,19,19,,,,,,,,,,,,,,,886.1946377949789,None,"['w', 'o', 'u', 'l', 'd']",1,"[0.7950432531069964, 0.962986984057352, 1.1469801110215485, 1.3710459840949625, 1.6749601420015097]",886.1946377949789,None,886.190000731987,886.2902448880486,p03_rmr_03302022,001,2022_Mar_30_1633,test_typingtask_norepeats,2020.2.10,118.25955685678221,
kremp,kremp,,,,,,,,,0,20,20,20,,,,,,,,,,,,,,,891.703880337067,None,"['k', 'r', 'e', 'm', 'n', 'p']",0,"[1.0777890752069652, 1.2937400911469012, 1.4536881539970636, 1.6376580910291523, 1.6457810860592872, 2.1817568950355053]",891.703880337067,None,891.6985802969663,891.7995918230154,p03_rmr_03302022,001,2022_Mar_30_1633,test_typingtask_norepeats,2020.2.10,118.25955685678221,
druze,druze,,,,,,,,,0,21,21,21,,,,,,,,,,,,,,,897.2142716690432,None,"['d', 'r', 'u', 'z', 'e']",1,"[0.8313373948913068, 1.0873766189906746, 1.2634046368766576, 1.6554029579274356, 1.9913231290411204]",897.2142716690432,None,897.2091686390573,897.3114632798824,p03_rmr_03302022,001,2022_Mar_30_1633,test_typingtask_norepeats,2020.2.10,118.25955685678221,
buddy,buddy,,,,,,,,,0,22,22,22,,,,,,,,,,,,,,,902.7109860279597,None,"['b', 'u', 'd', 'd', 'y']",1,"[0.790639776038006, 0.9986838640179485, 1.374551786109805, 1.5266195929143578, 1.77458252501674]",902.7109860279597,None,902.7061282659648,902.8075344888493,p03_rmr_03302022,001,2022_Mar_30_1633,test_typingtask_norepeats,2020.2.10,118.25955685678221,
think,think,,,,,,,,,0,23,23,23,,,,,,,,,,,,,,,908.2108692219481,None,"['t', 'h', 'i', 'n', 'k']",1,"[0.7866788599640131, 0.8746708100661635, 0.9627881799824536, 1.1067131240852177, 1.2186813990119845]",908.2108692219481,None,908.2065963219153,908.306279100012,p03_rmr_03302022,001,2022_Mar_30_1633,test_typingtask_norepeats,2020.2.10,118.25955685678221,
heond,heond,,,,,,,,,0,24,24,24,,,,,,,,,,,,,,,913.7201983460691,None,"['h', 'e', 'o', 'n', 'd']",1,"[0.8534782340284437, 0.9334715201985091, 1.0614024181850255, 1.1494750510901213, 1.3253790710587054]",913.7201983460691,None,913.7150030690478,913.8161538329441,p03_rmr_03302022,001,2022_Mar_30_1633,test_typingtask_norepeats,2020.2.10,118.25955685678221,
cooed,cooed,,,,,,,,,0,25,25,25,,,,,,,,,,,,,,,919.2229608769994,None,"['c', 'o', 'o', 'e', 'd']",1,"[0.8466669998597354, 1.150609386852011, 1.2946662500035018, 1.4866072910372168, 1.5987170019652694]",919.2229608769994,None,919.2179389519384,919.3206963289995,p03_rmr_03302022,001,2022_Mar_30_1633,test_typingtask_norepeats,2020.2.10,118.25955685678221,
faqir,faqir,,,,,,,,,0,26,26,26,,,,,,,,,,,,,,,924.7308792220429,None,"['f', 'a', 'q', 'i', 'r']",1,"[1.010797391179949, 1.1067728740163147, 1.4587907982058823, 1.6106671411544085, 1.7707801891956478]",924.7308792220429,None,924.7254246899626,924.8291874548886,p03_rmr_03302022,001,2022_Mar_30_1633,test_typingtask_norepeats,2020.2.10,118.25955685678221,
zibja,zibja,,,,,,,,,0,27,27,27,,,,,,,,,,,,,,,930.2377695399337,None,"['z', 'i', 'b', 'j', 'a']",1,"[0.9357623241376132, 1.0558248159941286, 1.263855426106602, 1.4398882030509412, 1.5278377560898662]",930.2377695399337,None,930.2319242810132,None,p03_rmr_03302022,001,2022_Mar_30_1633,test_typingtask_norepeats,2020.2.10,118.25955685678221,
there,there,,,,,,,,,0,28,28,28,,,,,,,,,,,,,,,935.737770257052,None,"['t', 'h', 'e', 'r', 'e']",1,"[0.8198531800881028, 0.9478016879875213, 1.0919048069044948, 1.2678778949193656, 1.4118681750260293]",935.737770257052,None,935.7330815438414,935.8340021749027,p03_rmr_03302022,001,2022_Mar_30_1633,test_typingtask_norepeats,2020.2.10,118.25955685678221,
therm,therm,,,,,,,,,0,29,29,29,,,,,,,,,,,,,,,941.238370281877,None,"['t', 'h', 'e', 'r', 'm']",1,"[0.7432606620714068, 0.8472936360631138, 0.9912797340657562, 1.0713064239826053, 1.2631679140031338]",941.238370281877,None,941.2325316560688,941.3345350818709,p03_rmr_03302022,001,2022_Mar_30_1633,test_typingtask_norepeats,2020.2.10,118.25955685678221,
kremp,kremp,,,,,,,,,0,30,30,30,,,,,,,,,,,,,,,946.7435797508806,None,"['k', 'r', 'e', 'm', 'p']",1,"[1.2620853898115456, 1.5580770887900144, 1.6379693928174675, 1.7259964488912374, 1.8700261928606778]",946.7435797508806,None,946.7383339689346,946.8392689798493,p03_rmr_03302022,001,2022_Mar_30_1633,test_typingtask_norepeats,2020.2.10,118.25955685678221,
edthe,edthe,,,,,,,,,0,31,31,31,,,,,,,,,,,,,,,952.2517024849076,None,"['e', 'd', 't', 'h', 'e']",1,"[0.8658319569658488, 0.9778535340446979, 1.2659451649524271, 1.4099612729623914, 1.5459605660289526]",952.2517024849076,None,952.247327707964,952.346741294954,p03_rmr_03302022,001,2022_Mar_30_1633,test_typingtask_norepeats,2020.2.10,118.25955685678221,
therm,therm,,,,,,,,,0,32,32,32,,,,,,,,,,,,,,,957.75668906793,None,"['t', 'h', 'e', 'r', 'm']",1,"[0.8329406250268221, 0.9369818191044033, 1.0489064799621701, 1.1289478160906583, 1.296883424045518]",957.75668906793,None,957.7536091238959,957.853584705852,p03_rmr_03302022,001,2022_Mar_30_1633,test_typingtask_norepeats,2020.2.10,118.25955685678221,
zibja,zibja,,,,,,,,,0,33,33,33,,,,,,,,,,,,,,,963.2645837229211,None,"['z', 'i', 'b', 'j', 'a']",1,"[1.2931649030651897, 1.4930709199979901, 1.9970388740766793, 2.1090548739302903, 2.2610508140642196]",963.2645837229211,None,963.2593260579976,963.3615813518409,p03_rmr_03302022,001,2022_Mar_30_1633,test_typingtask_norepeats,2020.2.10,118.25955685678221,
isvar,isvar,,,,,,,,,0,34,34,34,,,,,,,,,,,,,,,968.770870846929,None,"['i', 's', 'v', 'a', 'r']",1,"[1.1067720430437475, 1.538775984896347, 1.9467853589449078, 2.2027909730095416, 2.458728597033769]",968.770870846929,None,968.7650883898838,968.8682910408825,p03_rmr_03302022,001,2022_Mar_30_1633,test_typingtask_norepeats,2020.2.10,118.25955685678221,
vodka,vodka,,,,,,,,,0,35,35,35,,,,,,,,,,,,,,,974.2704210199881,None,"['v', 'o', 'd', 'k', 'a']",1,"[0.983101804042235, 1.2312332028523088, 1.6711019019130617, 1.8792300219647586, 2.1432244938332587]",974.2704210199881,None,974.265478042909,974.3668402598705,p03_rmr_03302022,001,2022_Mar_30_1633,test_typingtask_norepeats,2020.2.10,118.25955685678221,
there,there,,,,,,,,,0,36,36,36,,,,,,,,,,,,,,,979.7704186888877,None,"['t', 'h', 'e', 'r', 'e']",1,"[0.7551625620108098, 0.9231930992100388, 1.1632168691139668, 1.3551757670938969, 1.5391663501504809]",979.7704186888877,None,979.7654771208996,979.8664719949011,p03_rmr_03302022,001,2022_Mar_30_1633,test_typingtask_norepeats,2020.2.10,118.25955685678221,
lucky,lucky,,,,,,,,,0,37,37,37,,,,,,,,,,,,,,,985.2779877439607,None,"['l', 'u', 'c', 'k', 'y']",1,"[0.8235612020362169, 1.2076483881101012, 1.4876879130024463, 1.6716713849455118, 1.9116429269779474]",985.2779877439607,None,985.273114342033,985.376591980923,p03_rmr_03302022,001,2022_Mar_30_1633,test_typingtask_norepeats,2020.2.10,118.25955685678221,
puppy,puppy,,,,,,,,,0,38,38,38,,,,,,,,,,,,,,,990.7858644758817,None,"['p', 'u', 'p', 'p', 'y']",1,"[0.843790499959141, 1.0837548850104213, 1.3398671550676227, 1.4918006060179323, 1.7717787160072476]",990.7858644758817,None,990.7809265200282,990.8821760709397,p03_rmr_03302022,001,2022_Mar_30_1633,test_typingtask_norepeats,2020.2.10,118.25955685678221,
pykka,pykka,,,,,,,,,0,39,39,39,,,,,,,,,,,,,,,996.2947780550458,None,"['p', 'y', 'k', 'k', 'a']",1,"[0.8788366268854588, 1.2308563438709825, 1.510878306813538, 1.6707895188592374, 1.8468483958858997]",996.2947780550458,None,996.2894907850074,996.3901111290324,p03_rmr_03302022,001,2022_Mar_30_1633,test_typingtask_norepeats,2020.2.10,118.25955685678221,
think,think,,,,,,,,,0,40,40,40,,,,,,,,,,,,,,,1001.7952200048603,None,"['t', 'h', 'i', 'n', 'k']",1,"[0.8584418101236224, 0.9063179360236973, 1.466342395171523, 1.586305030155927, 1.7224436840042472]",1001.7952200048603,None,1001.7893946990604,1001.890198959969,p03_rmr_03302022,001,2022_Mar_30_1633,test_typingtask_norepeats,2020.2.10,118.25955685678221,
vodka,vodka,,,,,,,,,0,41,41,41,,,,,,,,,,,,,,,1007.2998950658366,None,"['v', 'o', 'd', 'k', 'a']",1,"[0.8657231249380857, 1.0737549769692123, 1.313768794061616, 1.5936876840423793, 1.7456610300578177]",1007.2998950658366,None,1007.2954826718429,None,p03_rmr_03302022,001,2022_Mar_30_1633,test_typingtask_norepeats,2020.2.10,118.25955685678221,
pykka,pykka,,,,,,,,,0,42,42,42,,,,,,,,,,,,,,,1012.8012423608452,None,"['p', 'y', 'k', 'k', 'a']",1,"[0.908430022187531, 1.3964261619839817, 1.692368783056736, 1.8523758791852742, 2.0124294790439308]",1012.8012423608452,None,1012.7967235290213,1012.8982876068912,p03_rmr_03302022,001,2022_Mar_30_1633,test_typingtask_norepeats,2020.2.10,118.25955685678221,
cooed,cooed,,,,,,,,,0,43,43,43,,,,,,,,,,,,,,,1018.3021080149338,None,"['c', 'o', 'o', 'e', 'd']",1,"[0.983449102146551, 1.2795398561283946, 1.4315449320711195, 1.6315423420164734, 1.8234554179944098]",1018.3021080149338,None,1018.2974451559363,1018.3989632590674,p03_rmr_03302022,001,2022_Mar_30_1633,test_typingtask_norepeats,2020.2.10,118.25955685678221,
about,about,,,,,,,,,0,44,44,44,,,,,,,,,,,,,,,1023.8113779379055,None,"['a', 'b', 'o', 'u', 't']",1,"[0.7222824669443071, 0.9302722050342709, 1.12217399594374, 1.1863376048859209, 1.3941796750295907]",1023.8113779379055,None,1023.8058217070298,1023.9104818010237,p03_rmr_03302022,001,2022_Mar_30_1633,test_typingtask_norepeats,2020.2.10,118.25955685678221,
faqir,faqir,,,,,,,,,0,45,45,45,,,,,,,,,,,,,,,1029.3165628309362,None,"['f', 'a', 'q', 'i', 'r']",1,"[1.0171330398879945, 1.5289817249868065, 1.8170813890174031, 2.024999118875712, 2.2090396508574486]",1029.3165628309362,None,1029.3110107300104,1029.4144709140528,p03_rmr_03302022,001,2022_Mar_30_1633,test_typingtask_norepeats,2020.2.10,118.25955685678221,
haole,haole,,,,,,,,,0,46,46,46,,,,,,,,,,,,,,,1034.819587068865,None,"['h', 'a', 'o', 'l', 'e']",1,"[1.0500078641343862, 1.1780736921355128, 1.3220383611042053, 1.5220658599864691, 1.665978480130434]",1034.819587068865,None,1034.8160512398695,None,p03_rmr_03302022,001,2022_Mar_30_1633,test_typingtask_norepeats,2020.2.10,118.25955685678221,
heond,heond,,,,,,,,,0,47,47,47,,,,,,,,,,,,,,,1040.3230935370084,None,"['h', 'e', 'o', 'n', 'd']",1,"[1.1065550029743463, 1.2265330008231103, 1.306565023958683, 1.4505802779458463, 1.7304560458287597]",1040.3230935370084,None,1040.3185376760316,1040.4192127678543,p03_rmr_03302022,001,2022_Mar_30_1633,test_typingtask_norepeats,2020.2.10,118.25955685678221,
therm,therm,,,,,,,,,0,48,48,48,,,,,,,,,,,,,,,1045.8280418149661,None,"['t', 'h', 'e', 'r', 'm']",1,"[0.7776175520848483, 0.9136353631038219, 1.0415854051243514, 1.1296213790774345, 1.3536130611319095]",1045.8280418149661,None,1045.8228673718636,1045.9241505330428,p03_rmr_03302022,001,2022_Mar_30_1633,test_typingtask_norepeats,2020.2.10,118.25955685678221,
think,think,,,,,,,,,0,49,49,49,,,,,,,,,,,,,,,1051.3329721889459,None,"['t', 'h', 'i', 'n', 'k']",1,"[0.8006140270736068, 0.9046986089088023, 1.0006587139796466, 1.160611247876659, 1.2965782498940825]",1051.3329721889459,None,1051.3283960488857,1051.430243276991,p03_rmr_03302022,001,2022_Mar_30_1633,test_typingtask_norepeats,2020.2.10,118.25955685678221,
cooed,cooed,,,,,,,,,0,50,50,50,,,,,,,,,,,,,,,1056.8444950999692,None,"['c', 'o', 'o', 'e', 'd']",1,"[0.8571679398883134, 1.1771912449039519, 1.3611794749740511, 1.8651808518916368, 1.9771665278822184]",1056.8444950999692,None,1056.839202555851,1056.940273643937,p03_rmr_03302022,001,2022_Mar_30_1633,test_typingtask_norepeats,2020.2.10,118.25955685678221,
puppy,puppy,,,,,,,,,0,51,51,51,,,,,,,,,,,,,,,1062.353713270044,None,"['p', 'u', 'p', 'p', 'y']",1,"[0.8359178048558533, 1.1319608658086509, 1.3960048698354512, 1.555941317928955, 1.8198410598561168]",1062.353713270044,None,1062.348745097895,1062.4487697859295,p03_rmr_03302022,001,2022_Mar_30_1633,test_typingtask_norepeats,2020.2.10,118.25955685678221,
cooed,cooed,,,,,,,,,0,52,52,52,,,,,,,,,,,,,,,1067.862938839011,None,"['c', 'o', 'o', 'e', 'd']",1,"[1.1826082719489932, 1.4947257929015905, 1.6546659839805216, 1.8386847828514874, 2.014754582894966]",1067.862938839011,None,1067.8582657489692,1067.957881080918,p03_rmr_03302022,001,2022_Mar_30_1633,test_typingtask_norepeats,2020.2.10,118.25955685678221,
buddy,buddy,,,,,,,,,0,53,53,53,,,,,,,,,,,,,,,1073.3614060368855,None,"['b', 'u', 'd', 'd', 'd', 'y']",0,"[0.7802277440205216, 0.9402449880726635, 1.2202665260992944, 1.3641366579104215, 1.524253164883703, 1.8121978880371898]",1073.3614060368855,None,1073.3557275249855,1073.4598812770564,p03_rmr_03302022,001,2022_Mar_30_1633,test_typingtask_norepeats,2020.2.10,118.25955685678221,
cooed,cooed,,,,,,,,,0,54,54,54,,,,,,,,,,,,,,,1078.8665783000179,None,"['c', 'o', 'o', 'e', 'd']",1,"[0.8990497998893261, 1.1630600660573691, 1.3390432419255376, 1.499073961051181, 1.6989713609218597]",1078.8665783000179,None,1078.8622803660342,1078.9651546429377,p03_rmr_03302022,001,2022_Mar_30_1633,test_typingtask_norepeats,2020.2.10,118.25955685678221,
kremp,kremp,,,,,,,,,0,55,55,55,,,,,,,,,,,,,,,1084.3789300110657,None,"['k', 'r', 'e', 'm', 'p']",1,"[1.4347232789732516, 1.7146982559934258, 1.834764193976298, 1.954731852049008, 2.1307337530888617]",1084.3789300110657,None,1084.373349695024,1084.476935124956,p03_rmr_03302022,001,2022_Mar_30_1633,test_typingtask_norepeats,2020.2.10,118.25955685678221,
lucky,lucky,,,,,,,,,0,56,56,56,,,,,,,,,,,,,,,1089.877275433857,None,"['l', 'u', 'c', 'k', 'y']",1,"[0.7363505328539759, 1.0722751189023256, 1.3843557320069522, 1.5603873159270734, 1.8242882890626788]",1089.877275433857,None,1089.8721969519042,1089.9731753480155,p03_rmr_03302022,001,2022_Mar_30_1633,test_typingtask_norepeats,2020.2.10,118.25955685678221,
there,there,,,,,,,,,0,57,57,57,,,,,,,,,,,,,,,1095.3814886659384,None,"['t', 'h', 'e', 'r', 'e']",1,"[0.7122198040597141, 0.8562821331433952, 1.0081379460170865, 1.2161898319609463, 1.4801720040850341]",1095.3814886659384,None,1095.377612951002,1095.4786151170265,p03_rmr_03302022,001,2022_Mar_30_1633,test_typingtask_norepeats,2020.2.10,118.25955685678221,
buddy,buddy,,,,,,,,,0,58,58,58,,,,,,,,,,,,,,,1100.8810344799422,None,"['b', 'u', 'd', 'd', 'y']",1,"[0.8126116700004786, 0.9326222708914429, 1.2045049469452351, 1.3646383830346167, 1.540612735087052]",1100.8810344799422,None,1100.8754841909044,1100.979664963903,p03_rmr_03302022,001,2022_Mar_30_1633,test_typingtask_norepeats,2020.2.10,118.25955685678221,
haole,haole,,,,,,,,,0,59,59,59,,,,,,,,,,,,,,,1106.3935593629722,None,"['h', 'a', 'o', 'l', 'e']",1,"[1.012115271994844, 1.1161043629981577, 1.2681086100637913, 1.4840641440823674, 1.6761008349712938]",1106.3935593629722,None,1106.3891226910287,1106.4884134170134,p03_rmr_03302022,001,2022_Mar_30_1633,test_typingtask_norepeats,2020.2.10,118.25955685678221,
belly,belly,,,,,,,,,0,60,60,60,,,,,,,,,,,,,,,1111.9013595569413,None,"['b', 'e', 'l', 'l', 'y']",1,"[0.8642900330014527, 1.0162242511287332, 1.3443146019708365, 1.512299007968977, 1.8402392631396651]",1111.9013595569413,None,1111.8965796448988,1111.9993759088684,p03_rmr_03302022,001,2022_Mar_30_1633,test_typingtask_norepeats,2020.2.10,118.25955685678221,
isvar,isvar,,,,,,,,,0,61,61,61,,,,,,,,,,,,,,,1117.4107236908749,None,"['i', 's', 'v', 'a', 'r']",1,"[0.8829408530145884, 1.066817627986893, 1.3148288470692933, 1.4829458789899945, 1.6829451201483607]",1117.4107236908749,None,1117.4047108758473,1117.5062195400242,p03_rmr_03302022,001,2022_Mar_30_1633,test_typingtask_norepeats,2020.2.10,118.25955685678221,
theme,theme,,,,,,,,,0,62,62,62,,,,,,,,,,,,,,,1122.9118320969865,None,"['t', 'h', 'e', 'm', 'e']",1,"[0.8298181109130383, 0.9737270378973335, 1.1338411718606949, 1.3898239908739924, 1.5737798349000514]",1122.9118320969865,None,1122.9068732059327,None,p03_rmr_03302022,001,2022_Mar_30_1633,test_typingtask_norepeats,2020.2.10,118.25955685678221,
tithe,tithe,,,,,,,,,0,63,63,63,,,,,,,,,,,,,,,1128.4186087788548,None,"['t', 'i', 't', 'h', 'e']",1,"[0.8030583770014346, 0.9550525019876659, 1.099004948977381, 1.2590567651204765, 1.4269254109822214]",1128.4186087788548,None,1128.413604670926,1128.5151619268581,p03_rmr_03302022,001,2022_Mar_30_1633,test_typingtask_norepeats,2020.2.10,118.25955685678221,
theme,theme,,,,,,,,,0,64,64,64,,,,,,,,,,,,,,,1133.9235874209553,None,"['t', 'h', 'e', 'm', 'e']",1,"[0.6900826930068433, 0.8019562650006264, 0.9220027320552617, 1.154069344047457, 1.3139770310372114]",1133.9235874209553,None,1133.918965590908,1134.0216122400016,p03_rmr_03302022,001,2022_Mar_30_1633,test_typingtask_norepeats,2020.2.10,118.25955685678221,
champ,champ,,,,,,,,,0,65,65,65,,,,,,,,,,,,,,,1139.426923749037,None,"['c', 'h', 'a', 'm', 'p']",1,"[0.8987506069242954, 1.0267340310383588, 1.1787164630368352, 1.3466814521234483, 1.5226851149927825]",1139.426923749037,None,1139.4220722669502,1139.522529084934,p03_rmr_03302022,001,2022_Mar_30_1633,test_typingtask_norepeats,2020.2.10,118.25955685678221,
zibja,zibja,,,,,,,,,0,66,66,66,,,,,,,,,,,,,,,1144.9286749160383,None,"['z', 'i', 'b', 'j', 'a']",1,"[1.0609808540903032, 1.2050484970677644, 1.460896376054734, 1.7890217760577798, 1.9650134609546512]",1144.9286749160383,None,1144.9227205000584,1145.0272866948508,p03_rmr_03302022,001,2022_Mar_30_1633,test_typingtask_norepeats,2020.2.10,118.25955685678221,
vodka,vodka,,,,,,,,,0,67,67,67,,,,,,,,,,,,,,,1150.4338618719485,None,"['v', 'o', 'd', 'k', 'a']",1,"[0.9476786318700761, 1.1158014880493283, 1.3797622609417886, 1.5877481629140675, 1.7556660890113562]",1150.4338618719485,None,1150.4293509158538,1150.5311846418772,p03_rmr_03302022,001,2022_Mar_30_1633,test_typingtask_norepeats,2020.2.10,118.25955685678221,
tithe,tithe,,,,,,,,,0,68,68,68,,,,,,,,,,,,,,,1155.9403463259805,None,"['t', 'i', 't', 'h', 'e']",1,"[0.7052707220427692, 1.1133433291688561, 1.3692531341221184, 1.4971930470783263, 1.673306757118553]",1155.9403463259805,None,1155.9355407320195,1156.0377999958582,p03_rmr_03302022,001,2022_Mar_30_1633,test_typingtask_norepeats,2020.2.10,118.25955685678221,
lucky,lucky,,,,,,,,,0,69,69,69,,,,,,,,,,,,,,,1161.4470745220315,None,"['l', 'u', 'c', 'k', 'y']",1,"[1.1266022820491344, 1.4385426270309836, 1.7425605300813913, 1.9105146490037441, 2.150599326007068]",1161.4470745220315,None,1161.4420808828668,1161.5447387599852,p03_rmr_03302022,001,2022_Mar_30_1633,test_typingtask_norepeats,2020.2.10,118.25955685678221,
druze,druze,,,,,,,,,0,70,70,70,,,,,,,,,,,,,,,1166.952449696837,None,"['d', 'r', 'u', 'z', 'e']",1,"[0.9090750319883227, 1.1170742029789835, 1.3091370740439743, 1.6451944319996983, 1.8852240829728544]",1166.952449696837,None,1166.947659710911,1167.049935739953,p03_rmr_03302022,001,2022_Mar_30_1633,test_typingtask_norepeats,2020.2.10,118.25955685678221,
belly,belly,,,,,,,,,0,71,71,71,,,,,,,,,,,,,,,1172.4567127998453,None,"['b', 'e', 'l', 'l', 'y']",1,"[0.7729761700611562, 0.876896085916087, 1.1248911449220031, 1.2849549418315291, 1.54098754003644]",1172.4567127998453,None,1172.450623065955,None,p03_rmr_03302022,001,2022_Mar_30_1633,test_typingtask_norepeats,2020.2.10,118.25955685678221,
cheer,cheer,,,,,,,,,0,72,72,72,,,,,,,,,,,,,,,1177.961761316983,None,"['c', 'h', 'e', 'e', 'r']",1,"[0.8199259911198169, 0.9798464220948517, 1.1319166971370578, 1.3238976511638612, 1.4919056210201234]",1177.961761316983,None,1177.9569771029287,1178.0597612590063,p03_rmr_03302022,001,2022_Mar_30_1633,test_typingtask_norepeats,2020.2.10,118.25955685678221,
pykka,pykka,,,,,,,,,0,73,73,73,,,,,,,,,,,,,,,1183.471883371938,None,"['p', 'y', 'k', 'k', 'a']",1,"[0.8137413740623742, 1.141649500001222, 1.485655175987631, 1.6697517780121416, 1.8698146238457412]",1183.471883371938,None,1183.4666248169028,1183.5703991348855,p03_rmr_03302022,001,2022_Mar_30_1633,test_typingtask_norepeats,2020.2.10,118.25955685678221,
edthe,edthe,,,,,,,,,0,74,74,74,,,,,,,,,,,,,,,1188.9780093028676,None,"['e', 'd', 't', 'h', 'e']",1,"[0.7875970669556409, 0.8915306851267815, 1.1316418810747564, 1.251648959936574, 1.3876689679455012]",1188.9780093028676,None,1188.973416368966,1189.074098622892,p03_rmr_03302022,001,2022_Mar_30_1633,test_typingtask_norepeats,2020.2.10,118.25955685678221,
belly,belly,,,,,,,,,0,75,75,75,,,,,,,,,,,,,,,1194.480489804875,None,"['b', 'e', 'l', 'l', 'y']",1,"[0.7651540851220489, 0.8931883920449764, 1.293184748152271, 1.445097606163472, 1.7331857020035386]",1194.480489804875,None,1194.4752933748764,1194.5785311530344,p03_rmr_03302022,001,2022_Mar_30_1633,test_typingtask_norepeats,2020.2.10,118.25955685678221,
cheer,cheer,,,,,,,,,0,76,76,76,,,,,,,,,,,,,,,1199.9806523029692,None,"['c', 'h', 'e', 'e', 'r']",1,"[0.7930231080390513, 0.9850055300630629, 1.1690064170397818, 1.3370015430264175, 1.5129517160821706]",1199.9806523029692,None,1199.9760516979964,1200.0786327240057,p03_rmr_03302022,001,2022_Mar_30_1633,test_typingtask_norepeats,2020.2.10,118.25955685678221,
would,would,,,,,,,,,0,77,77,77,,,,,,,,,,,,,,,1205.4872864959762,None,"['w', 'o', 'u', 'l', 'd']",1,"[0.8463934850879014, 1.0143247949890792, 1.1982495558913797, 1.3664120130706578, 1.5663948869332671]",1205.4872864959762,None,1205.4824817730346,1205.5826315458398,p03_rmr_03302022,001,2022_Mar_30_1633,test_typingtask_norepeats,2020.2.10,118.25955685678221,
there,there,,,,,,,,,0,78,78,78,,,,,,,,,,,,,,,1210.986785280984,None,"['t', 'h', 'e', 'r', 'e']",1,"[0.826834733132273, 0.9708522669970989, 1.1228768969886005, 1.3628662219271064, 1.5787555929273367]",1210.986785280984,None,1210.9826432499335,1211.0823578280397,p03_rmr_03302022,001,2022_Mar_30_1633,test_typingtask_norepeats,2020.2.10,118.25955685678221,
faqir,faqir,,,,,,,,,0,79,79,79,,,,,,,,,,,,,,,1216.4947943759616,None,"['f', 'a', 'q', 'i', 'r']",1,"[0.9268724001012743, 1.0308074071072042, 1.4068701651412994, 1.7667495559435338, 1.9668730981647968]",1216.4947943759616,None,1216.4890741708455,1216.591046551941,p03_rmr_03302022,001,2022_Mar_30_1633,test_typingtask_norepeats,2020.2.10,118.25955685678221,
champ,champ,,,,,,,,,0,80,80,80,,,,,,,,,,,,,,,1221.9978700049687,None,"['c', 'h', 'a', 'm', 'p']",1,"[0.8316749748773873, 1.047729347832501, 1.2637600568123162, 1.5118223479948938, 1.8637576990295202]",1221.9978700049687,None,1221.9929156708763,1222.0949086260516,p03_rmr_03302022,001,2022_Mar_30_1633,test_typingtask_norepeats,2020.2.10,118.25955685678221,
about,about,,,,,,,,,0,81,81,81,,,,,,,,,,,,,,,1227.5014621620066,None,"['a', 'b', 'o', 'u', 't']",1,"[0.8241882370784879, 1.0561651240568608, 1.3122153510339558, 1.4160834299400449, 1.6880660471506417]",1227.5014621620066,None,1227.4965647799195,1227.5994503858965,p03_rmr_03302022,001,2022_Mar_30_1633,test_typingtask_norepeats,2020.2.10,118.25955685678221,
vodka,vodka,,,,,,,,,0,82,82,82,,,,,,,,,,,,,,,1233.0076334429905,None,"['v', 'o', 'd', 'k', 'a']",1,"[0.8460006800014526, 1.0700954589992762, 1.326078720856458, 1.5739915329031646, 1.8220500918105245]",1233.0076334429905,None,1233.0043156219413,None,p03_rmr_03302022,001,2022_Mar_30_1633,test_typingtask_norepeats,2020.2.10,118.25955685678221,
theme,theme,,,,,,,,,0,83,83,83,,,,,,,,,,,,,,,1238.5136819379404,None,"['t', 'h', 'e', 'm', 'e']",1,"[0.7879807339049876, 0.9798757280223072, 1.1398562090471387, 1.387865575030446, 1.5398978109005839]",1238.5136819379404,None,1238.506978709041,1238.6114932480268,p03_rmr_03302022,001,2022_Mar_30_1633,test_typingtask_norepeats,2020.2.10,118.25955685678221,
lucky,lucky,,,,,,,,,0,84,84,84,,,,,,,,,,,,,,,1244.0205857169349,None,"['l', 'u', 'c', 'k', 'y']",1,"[0.7930122700054199, 1.0169526159297675, 1.2971067789476365, 1.489086656132713, 1.7690619640052319]",1244.0205857169349,None,1244.0153071040054,1244.1159451899584,p03_rmr_03302022,001,2022_Mar_30_1633,test_typingtask_norepeats,2020.2.10,118.25955685678221,
heond,heond,,,,,,,,,0,85,85,85,,,,,,,,,,,,,,,1249.523415692849,None,"['h', 'e', 'o', 'n', 'd']",1,"[0.9061322310008109, 1.0421966558787972, 1.2341369718778878, 1.4582737239543349, 1.6502145919948816]",1249.523415692849,None,1249.5210172420134,1249.6206793019082,p03_rmr_03302022,001,2022_Mar_30_1633,test_typingtask_norepeats,2020.2.10,118.25955685678221,
tithe,tithe,,,,,,,,,0,86,86,86,,,,,,,,,,,,,,,1255.0357361249626,None,"['t', 'i', 't', 'h', 'e']",1,"[1.0018724279943854, 1.1539222681894898, 1.3699383521452546, 1.5299026761204004, 1.721885696053505]",1255.0357361249626,None,1255.0309639219427,1255.1335273778532,p03_rmr_03302022,001,2022_Mar_30_1633,test_typingtask_norepeats,2020.2.10,118.25955685678221,
therm,therm,,,,,,,,,0,87,87,87,,,,,,,,,,,,,,,1260.5377412699163,None,"['t', 'h', 'e', 'r', 'm']",1,"[0.7718815610278398, 0.8598918751813471, 1.027945786016062, 1.131938565056771, 1.3158780720550567]",1260.5377412699163,None,1260.5328925198642,1260.6346978868823,p03_rmr_03302022,001,2022_Mar_30_1633,test_typingtask_norepeats,2020.2.10,118.25955685678221,
heond,heond,,,,,,,,,0,88,88,88,,,,,,,,,,,,,,,1266.0447921769228,None,"['h', 'e', 'o', 'n', 'd']",1,"[0.8488331858534366, 0.9607871270272881, 1.0807923439424485, 1.2087934999726713, 1.392880599014461]",1266.0447921769228,None,1266.039668741892,1266.1393426409923,p03_rmr_03302022,001,2022_Mar_30_1633,test_typingtask_norepeats,2020.2.10,118.25955685678221,
haole,haole,,,,,,,,,0,89,89,89,,,,,,,,,,,,,,,1271.5521961709019,None,"['h', 'a', 'o', 'l', 'e']",1,"[1.1654731291346252, 1.3174123840872198, 1.4614805590827018, 1.6934759949799627, 1.853403007145971]",1271.5521961709019,None,1271.5476678319042,1271.6483947020024,p03_rmr_03302022,001,2022_Mar_30_1633,test_typingtask_norepeats,2020.2.10,118.25955685678221,
puppy,puppy,,,,,,,,,0,90,90,90,,,,,,,,,,,,,,,1277.063086115988,None,"['p', 'u', 'p', 'p', 'y']",1,"[0.7985970978625119, 1.0305249909870327, 1.2945392278488725, 1.4625699268653989, 1.6865536868572235]",1277.063086115988,None,1277.057784112892,1277.1603980250657,p03_rmr_03302022,001,2022_Mar_30_1633,test_typingtask_norepeats,2020.2.10,118.25955685678221,
kremp,kremp,,,,,,,,,0,91,91,91,,,,,,,,,,,,,,,1282.5650586788543,None,"['l', 'r', 'e', 'm', 'p']",0,"[1.0166177039500326, 1.2805235218256712, 1.4005049979314208, 1.5044713588431478, 1.6406123128253967]",1282.5650586788543,None,1282.5603956240461,1282.6626409259625,p03_rmr_03302022,001,2022_Mar_30_1633,test_typingtask_norepeats,2020.2.10,118.25955685678221,
isvar,isvar,,,,,,,,,0,92,92,92,,,,,,,,,,,,,,,1288.071908185957,None,"['i', 's', 'v', 'a', 'r']",1,"[0.981794771971181, 1.1417261760216206, 1.4297185530886054, 1.5657391489949077, 1.805760988034308]",1288.071908185957,None,1288.066527112876,1288.1694071488455,p03_rmr_03302022,001,2022_Mar_30_1633,test_typingtask_norepeats,2020.2.10,118.25955685678221,
faqir,faqir,,,,,,,,,0,93,93,93,,,,,,,,,,,,,,,1293.5774735808372,None,"['f', 'a', 'q', 'i', 'r']",1,"[0.9961680420674384, 1.084068600088358, 1.612127497093752, 1.9640643470920622, 2.1401498450431973]",1293.5774735808372,None,1293.5709994230651,1293.673293475993,p03_rmr_03302022,001,2022_Mar_30_1633,test_typingtask_norepeats,2020.2.10,118.25955685678221,
about,about,,,,,,,,,0,94,94,94,,,,,,,,,,,,,,,1299.0744100909214,None,"['a', 'b', 'o', 'u', 't']",1,"[0.8752149830106646, 1.043269261950627, 1.2112391779664904, 1.2752484360244125, 1.7151872150134295]",1299.0744100909214,None,1299.0712194959865,1299.1708745830692,p03_rmr_03302022,001,2022_Mar_30_1633,test_typingtask_norepeats,2020.2.10,118.25955685678221,
buddy,buddy,,,,,,,,,0,95,95,95,,,,,,,,,,,,,,,1304.5894575018901,None,"['b', 'u', 'd', 'd', 'y']",1,"[0.7841114162001759, 0.8961236071772873, 1.1842154741752893, 1.3362103500403464, 1.4801466311328113]",1304.5894575018901,None,1304.5837525730253,None,p03_rmr_03302022,001,2022_Mar_30_1633,test_typingtask_norepeats,2020.2.10,118.25955685678221,
champ,champ,,,,,,,,,0,96,96,96,,,,,,,,,,,,,,,1310.0827832438517,None,"['c', 'h', 'a', 'm', 'p']",1,"[0.7548098049592227, 0.8828229941427708, 1.0027981831226498, 1.170759502099827, 1.28292222507298]",1310.0827832438517,None,1310.0778188200434,1310.1799519208726,p03_rmr_03302022,001,2022_Mar_30_1633,test_typingtask_norepeats,2020.2.10,118.25955685678221,
edthe,edthe,,,,,,,,,0,97,97,97,,,,,,,,,,,,,,,1315.5911977728829,None,"['e', 'd', 'h', 'h', 'e']",0,"[0.7663770441431552, 0.9264320700895041, 1.3984579120296985, 2.5584433500189334, 2.7343861991539598]",1315.5911977728829,None,1315.588182037021,1315.6872780108824,p03_rmr_03302022,001,2022_Mar_30_1633,test_typingtask_norepeats,2020.2.10,118.25955685678221,
would,would,,,,,,,,,0,98,98,98,,,,,,,,,,,,,,,1321.0968401739374,None,"['w', 'o', 'u', 'l', 'd']",1,"[0.8688043029978871, 0.9729430009610951, 1.0928276299964637, 1.2287996909581125, 1.388699479168281]",1321.0968401739374,None,1321.09205371493,1321.1947806009557,p03_rmr_03302022,001,2022_Mar_30_1633,test_typingtask_norepeats,2020.2.10,118.25955685678221,
isvar,isvar,,,,,,,,,0,99,99,99,,,,,,,,,,,,,,,1326.5984356040135,None,"['i', 's', 'v', 'a', 'r']",1,"[0.8233679141849279, 1.039141784189269, 1.271209980128333, 1.3992084111087024, 1.5752460500225425]",1326.5984356040135,None,1326.5933021740288,1326.6954850340262,p03_rmr_03302022,001,2022_Mar_30_1633,test_typingtask_norepeats,2020.2.10,118.25955685678221,
puppy,puppy,,,,,,,,,0,100,100,100,,,,,,,,,,,,,,,1332.1046215428505,None,"['p', 'u', 'p', 'p', 'y']",1,"[0.7809926939662546, 1.028922458877787, 1.2929231429006904, 1.4449828469660133, 1.6849408578127623]",1332.1046215428505,None,1332.099796470045,None,p03_rmr_03302022,001,2022_Mar_30_1633,test_typingtask_norepeats,2020.2.10,118.25955685678221,
about,about,,,,,,,,,0,101,101,101,,,,,,,,,,,,,,,1337.6161880108994,None,"['a', 'b', 'o', 'u', 't']",1,"[0.7414848089683801, 0.8854585699737072, 0.9894203201401979, 1.069403609028086, 1.245485704159364]",1337.6161880108994,None,1337.6113569129025,1337.7125334888697,p03_rmr_03302022,001,2022_Mar_30_1633,test_typingtask_norepeats,2020.2.10,118.25955685678221,
cheer,cheer,,,,,,,,,0,102,102,102,,,,,,,,,,,,,,,1343.1276496499777,None,"['c', 'h', 'e', 'e', 'r']",1,"[0.8619421988260001, 1.0380140938796103, 1.1739183648023754, 1.3579968228004873, 1.5260166488587856]",1343.1276496499777,None,1343.1220234330044,1343.222372517921,p03_rmr_03302022,001,2022_Mar_30_1633,test_typingtask_norepeats,2020.2.10,118.25955685678221,
heond,heond,,,,,,,,,0,103,103,103,,,,,,,,,,,,,,,1348.617410982959,None,"['h', 'e', 'o', 'n', 'd']",1,"[0.8762555960565805, 1.0122642880305648, 1.1001251400448382, 1.2041988619603217, 1.396260614041239]",1348.617410982959,None,1348.6137411720351,1348.7137798890471,p03_rmr_03302022,001,2022_Mar_30_1633,test_typingtask_norepeats,2020.2.10,118.25955685678221,
champ,champ,,,,,,,,,0,104,104,104,,,,,,,,,,,,,,,1354.1303661118727,None,"['c', 'h', 'a', 'm', 'p']",1,"[0.8192608430981636, 0.923184952000156, 1.1392849399708211, 1.3233222390990704, 1.6913161319680512]",1354.1303661118727,None,1354.125727410917,1354.2267690170556,p03_rmr_03302022,001,2022_Mar_30_1633,test_typingtask_norepeats,2020.2.10,118.25955685678221,
belly,belly,,,,,,,,,0,105,105,105,,,,,,,,,,,,,,,1359.6356596429832,None,"['b', 'e', 'l', 'l', 'y']",1,"[0.6898674860130996, 0.8340459691826254, 1.162044403143227, 1.3380026430822909, 1.6338965801987797]",1359.6356596429832,None,1359.6308293550042,1359.7337609929964,p03_rmr_03302022,001,2022_Mar_30_1633,test_typingtask_norepeats,2020.2.10,118.25955685678221,
think,think,,,,,,,,,0,106,106,106,,,,,,,,,,,,,,,1365.1448191509116,None,"['t', 'h', 'i', 'n', 'k']",1,"[0.7888573838863522, 0.8768412149511278, 0.9568432909436524, 1.0927883049007505, 1.2127101749647409]",1365.1448191509116,None,1365.1396145660196,1365.240914089838,p03_rmr_03302022,001,2022_Mar_30_1633,test_typingtask_norepeats,2020.2.10,118.25955685678221,
zibja,zibja,,,,,,,,,0,107,107,107,,,,,,,,,,,,,,,1370.6551718940027,None,"['z', 'i', 'b', 'j', 'a']",1,"[1.1584836340043694, 1.3264516280032694, 1.6704494648147374, 1.8304808710236102, 1.974474499002099]",1370.6551718940027,None,1370.6489093080395,1370.7527211420238,p03_rmr_03302022,001,2022_Mar_30_1633,test_typingtask_norepeats,2020.2.10,118.25955685678221,
druze,druze,,,,,,,,,0,108,108,108,,,,,,,,,,,,,,,1376.1535503459163,None,"['d', 'r', 'u', 'z', 'e']",1,"[1.0681205030996352, 1.2841290670912713, 1.476043401984498, 1.7639970460440964, 1.980031433980912]",1376.1535503459163,None,1376.1494901790516,1376.2495807409286,p03_rmr_03302022,001,2022_Mar_30_1633,test_typingtask_norepeats,2020.2.10,118.25955685678221,
cheer,cheer,,,,,,,,,0,109,109,109,,,,,,,,,,,,,,,1381.6539790320676,None,"['c', 'h', 'e', 'e', 'r']",1,"[0.9276937041431665, 1.055685494095087, 1.21557471412234, 1.391621578950435, 1.5676687711384147]",1381.6539790320676,None,1381.6497023080242,1381.7503271568567,p03_rmr_03302022,001,2022_Mar_30_1633,test_typingtask_norepeats,2020.2.10,118.25955685678221,
about,about,,,,,,,,,0,110,110,110,,,,,,,,,,,,,,,1387.1604613398667,None,"['a', 'b', 'o', 'u', 't', 'r']",0,"[0.7650794419459999, 0.9410779250320047, 1.013211420038715, 1.1011668620631099, 1.3092261359561235, 1.317169473040849]",1387.1604613398667,None,1387.1554490260546,1387.2556002510246,p03_rmr_03302022,001,2022_Mar_30_1633,test_typingtask_norepeats,2020.2.10,118.25955685678221,
champ,champ,,,,,,,,,0,111,111,111,,,,,,,,,,,,,,,1392.6629612839315,None,"['c', 'h', 'a', 'm', 'p']",1,"[1.150697038974613, 1.3186669629067183, 2.2945728639606386, 2.4466271898709238, 2.5906836648937315]",1392.6629612839315,None,1392.6578271270496,1392.7601739780512,p03_rmr_03302022,001,2022_Mar_30_1633,test_typingtask_norepeats,2020.2.10,118.25955685678221,
buddy,buddy,,,,,,,,,0,112,112,112,,,,,,,,,,,,,,,1398.1712340000086,None,"['b', 'u', 'd', 'd', 'y']",1,"[0.7463342640548944, 0.922405838035047, 1.2984216681215912, 1.4584366891067475, 1.6664592591114342]",1398.1712340000086,None,1398.1657445018877,None,p03_rmr_03302022,001,2022_Mar_30_1633,test_typingtask_norepeats,2020.2.10,118.25955685678221,
think,think,,,,,,,,,0,113,113,113,,,,,,,,,,,,,,,1403.6694871438667,None,"['t', 'h', 'i', 'n', 'h', 'k']",0,"[0.8081332959700376, 0.9362003579735756, 0.9761203359812498, 1.1842499980702996, 1.1920662019401789, 1.3281185231171548]",1403.6694871438667,None,1403.665159354941,1403.767094810959,p03_rmr_03302022,001,2022_Mar_30_1633,test_typingtask_norepeats,2020.2.10,118.25955685678221,
would,would,,,,,,,,,0,114,114,114,,,,,,,,,,,,,,,1409.1783514290582,None,"['w', 'o', 'u', 'l', 'd']",1,"[1.0351974868681282, 1.2033268858212978, 1.3153046839870512, 1.5793082378804684, 1.7953547548968345]",1409.1783514290582,None,1409.1728198770666,1409.2737353588454,p03_rmr_03302022,001,2022_Mar_30_1633,test_typingtask_norepeats,2020.2.10,118.25955685678221,
pykka,pykka,,,,,,,,,0,115,115,115,,,,,,,,,,,,,,,1414.6836571700405,None,"['p', 'y', 'k', 'k', 'a']",1,"[0.857942228903994, 1.4420099349226803, 1.81799186184071, 1.9699787278659642, 2.185999674955383]",1414.6836571700405,None,1414.6783318838802,1414.7794714900665,p03_rmr_03302022,001,2022_Mar_30_1633,test_typingtask_norepeats,2020.2.10,118.25955685678221,
edthe,edthe,,,,,,,,,0,116,116,116,,,,,,,,,,,,,,,1420.1940319000278,None,"['e', 'd', 't', 'h', 'e']",1,"[0.8116415040567517, 1.0996134211309254, 1.6115990539547056, 1.7476126980036497, 1.9155665601138026]",1420.1940319000278,None,1420.1895585579564,1420.2889491608366,p03_rmr_03302022,001,2022_Mar_30_1633,test_typingtask_norepeats,2020.2.10,118.25955685678221,
theme,theme,,,,,,,,,0,117,117,117,,,,,,,,,,,,,,,1425.7037874849048,None,"['t', 'h', 'e', 'm', 'e']",1,"[0.7258720400277525, 0.9018820070195943, 1.0298171069007367, 1.2859361490700394, 1.4138201449532062]",1425.7037874849048,None,1425.6987913090502,1425.800169925904,p03_rmr_03302022,001,2022_Mar_30_1633,test_typingtask_norepeats,2020.2.10,118.25955685678221,
zibja,zibja,,,,,,,,,0,118,118,118,,,,,,,,,,,,,,,1431.2018875130452,None,"['z', 'i', 'b', 'j', 'a']",1,"[1.1316559999249876, 1.7477807470131665, 2.043703344883397, 2.363782317843288, 2.611789614893496]",1431.2018875130452,None,1431.1968971688998,1431.2986466318835,p03_rmr_03302022,001,2022_Mar_30_1633,test_typingtask_norepeats,2020.2.10,118.25955685678221,
druze,druze,,,,,,,,,0,119,119,119,,,,,,,,,,,,,,,1436.6996346418746,None,"['d', 'r', 'u', 'z', 'e']",1,"[0.8740379898808897, 1.0900399528909475, 1.2899188839364797, 1.705989952897653, 2.121969763888046]",1436.6996346418746,None,1436.6948450808645,1436.7972074048594,p03_rmr_03302022,001,2022_Mar_30_1633,test_typingtask_norepeats,2020.2.10,118.25955685678221,
