string,corrAns,practice_trials.thisRepN,practice_trials.thisTrialN,practice_trials.thisN,practice_trials.thisIndex,trials_1.thisRepN,trials_1.thisTrialN,trials_1.thisN,trials_1.thisIndex,trials_2.thisRepN,trials_2.thisTrialN,trials_2.thisN,trials_2.thisIndex,key_resp_0.keys,key_resp_0.corr,key_resp_0.rt,text_1.started,text_1.stopped,key_resp_1.keys,key_resp_1.corr,key_resp_1.rt,key_resp_1.started,key_resp_1.stopped,sound_1A_1.started,sound_1A_1.stopped,break_time.started,break_time.stopped,text_2.started,text_2.stopped,key_resp_2.keys,key_resp_2.corr,key_resp_2.rt,key_resp_2.started,key_resp_2.stopped,sound_1A_2.started,sound_1A_2.stopped,participant,session,date,expName,psychopyVersion,frameRate,
fresh,fresh,0,0,0,0,,,,,,,,,"['f', 'r', 'e', 's', 'h']",1,"[1.0903952310000022, 1.2984792319998633, 1.538385498000025, 1.7783963939998557, 2.1065235839998877]",,,,,,,,,,,,,,,,,,,,,p04_AK_04042022,001,2022_Apr_04_1027,test_typingtask_norepeats,2020.2.10,123.30318327996194,
dream,dream,0,1,1,1,,,,,,,,,"['d', 'r', 'e', 'a', 'm']",1,"[2.00686420299985, 2.126845646999982, 2.3747855689998687, 2.6307673740000155, 2.982806098999845]",,,,,,,,,,,,,,,,,,,,,p04_AK_04042022,001,2022_Apr_04_1027,test_typingtask_norepeats,2020.2.10,123.30318327996194,
slime,slime,0,2,2,2,,,,,,,,,"['s', 'l', 'i', 'm', 'e']",1,"[1.8128435759999775, 2.012996552000004, 2.2369632309998906, 2.4049704349999956, 2.5728975469999114]",,,,,,,,,,,,,,,,,,,,,p04_AK_04042022,001,2022_Apr_04_1027,test_typingtask_norepeats,2020.2.10,123.30318327996194,
champ,champ,,,,,0,0,0,0,,,,,,,,79.38885643800018,None,"['c', 'h', 'a', 'm', 'p']",1,"[0.8461853020000945, 0.9982006449999972, 1.1902539370000795, 1.406289906999973, 1.638269437999952]",79.38885643800018,None,79.38537682580014,None,,,,,,,,,,,,p04_AK_04042022,001,2022_Apr_04_1027,test_typingtask_norepeats,2020.2.10,123.30318327996194,
puppy,puppy,,,,,0,1,1,1,,,,,,,,84.88835705400015,None,"['p', 'u', 'p', 'p', 'y']",1,"[1.2987916600000062, 1.570738960999961, 1.8187125460001425, 1.9627246330001071, 2.2027463340000395]",84.88835705400015,None,84.8842573304001,None,,,,,,,,,,,,p04_AK_04042022,001,2022_Apr_04_1027,test_typingtask_norepeats,2020.2.10,123.30318327996194,
tithe,tithe,,,,,0,2,2,2,,,,,,,,90.39787891800006,None,"['t', 'i', 't']",0,"[1.8771467459998803, 2.821122184999922, 3.1891932359999373]",90.39787891800006,None,90.39553217839996,90.49769187400011,,,,,,,,,,,,p04_AK_04042022,001,2022_Apr_04_1027,test_typingtask_norepeats,2020.2.10,123.30318327996194,
vodka,vodka,,,,,0,3,3,3,,,,,,,,95.9007769530001,None,"['v', 'o', 'd', 'k', 'a']",1,"[1.1424156349999066, 1.7183006650000152, 1.934279940000124, 2.222357783999996, 2.4223742159997528]",95.9007769530001,None,95.89429658240017,95.9925726370002,,,,,,,,,,,,p04_AK_04042022,001,2022_Apr_04_1027,test_typingtask_norepeats,2020.2.10,123.30318327996194,
champ,champ,,,,,0,4,4,4,,,,,,,,101.40285890600012,None,"['c', 'h', 'a', 'm', 'p']",1,"[0.9441897830001835, 1.1042551880000246, 1.3362216569998964, 1.5443347569998878, 1.7602207330000965]",101.40285890600012,None,101.39863599839994,None,,,,,,,,,,,,p04_AK_04042022,001,2022_Apr_04_1027,test_typingtask_norepeats,2020.2.10,123.30318327996194,
cheer,cheer,,,,,0,5,5,5,,,,,,,,106.90661539000007,None,"['c', 'h', 'e', 'e', 'r']",1,"[1.3445097589997204, 1.5204570380001314, 1.7284590760000356, 1.888519845999781, 2.0804077249999864]",106.90661539000007,None,106.90341612340019,None,,,,,,,,,,,,p04_AK_04042022,001,2022_Apr_04_1027,test_typingtask_norepeats,2020.2.10,123.30318327996194,
think,think,,,,,0,6,6,6,,,,,,,,112.40620118599986,None,"['t', 'h', 'i', 'n', 'k']",1,"[1.23682565099989, 1.5968846020000456, 1.7329619360002653, 1.8928457269998944, 2.0929286149998916]",112.40620118599986,None,112.40222857340025,None,,,,,,,,,,,,p04_AK_04042022,001,2022_Apr_04_1027,test_typingtask_norepeats,2020.2.10,123.30318327996194,
pykka,pykka,,,,,0,7,7,7,,,,,,,,117.9196652510002,None,"['p', 'y', 'k', 'k', 'a']",1,"[1.3954109139999673, 1.7233663860001798, 1.987361637000049, 2.131482127000254, 2.2994391040001574]",117.9196652510002,None,117.91587662440027,None,,,,,,,,,,,,p04_AK_04042022,001,2022_Apr_04_1027,test_typingtask_norepeats,2020.2.10,123.30318327996194,
buddy,buddy,,,,,0,8,8,8,,,,,,,,123.43322826500003,None,"['b', 'u', 'd', 'd', 'y']",1,"[1.2499058960002003, 1.4739534350001122, 1.7378248750001148, 1.9059208080002463, 2.073985666000226]",123.43322826500003,None,123.42720911440013,None,,,,,,,,,,,,p04_AK_04042022,001,2022_Apr_04_1027,test_typingtask_norepeats,2020.2.10,123.30318327996194,
there,there,,,,,0,9,9,9,,,,,,,,128.93468766399997,None,"['t', 'h', 'e', 'r', 'e']",1,"[0.9163279419999526, 1.0924161019997882, 1.316330146999917, 1.5083934009999211, 1.7563886789998833]",128.93468766399997,None,128.93021872140008,None,,,,,,,,,,,,p04_AK_04042022,001,2022_Apr_04_1027,test_typingtask_norepeats,2020.2.10,123.30318327996194,
theme,theme,,,,,0,10,10,10,,,,,,,,134.437879158,None,"['t', 'h', 'e', 'm', 'e']",1,"[0.9811746699997457, 1.157251155999802, 1.381232283999907, 1.5812451369997689, 1.82921211699977]",134.437879158,None,134.43449491040002,134.538928747,,,,,,,,,,,,p04_AK_04042022,001,2022_Apr_04_1027,test_typingtask_norepeats,2020.2.10,123.30318327996194,
edthe,edthe,,,,,0,11,11,11,,,,,,,,139.9442262250002,None,"['e', 'd', 't', 'h', 'e']",1,"[1.6029177309997067, 1.8188929799998732, 2.066890198999772, 2.22688174599989, 2.3388933389996964]",139.9442262250002,None,139.9404739914001,None,,,,,,,,,,,,p04_AK_04042022,001,2022_Apr_04_1027,test_typingtask_norepeats,2020.2.10,123.30318327996194,
vodka,vodka,,,,,0,12,12,12,,,,,,,,145.44690785199987,None,"['v', 'o', 'd', 'k', 'a']",1,"[1.1160937530003139, 1.308166619000076, 1.5161316779999652, 1.7161476060000496, 1.916151033999995]",145.44690785199987,None,145.4443801014002,None,,,,,,,,,,,,p04_AK_04042022,001,2022_Apr_04_1027,test_typingtask_norepeats,2020.2.10,123.30318327996194,
belly,belly,,,,,0,13,13,13,,,,,,,,150.94542406200003,None,"['b', 'e', 'l', 'l', 'y']",1,"[1.1377125209996848, 1.3217030079999859, 1.5856161429996973, 1.7217032250000557, 1.9776558609996755]",150.94542406200003,None,150.94121178740016,None,,,,,,,,,,,,p04_AK_04042022,001,2022_Apr_04_1027,test_typingtask_norepeats,2020.2.10,123.30318327996194,
cheer,cheer,,,,,0,14,14,14,,,,,,,,156.4523501670003,None,"['c', 'h', 'e', 'e', 'r']",1,"[0.9107906909998746, 1.086800255000071, 1.3026635179999175, 1.4707199370000126, 1.6707275449998633]",156.4523501670003,None,156.44816832740008,None,,,,,,,,,,,,p04_AK_04042022,001,2022_Apr_04_1027,test_typingtask_norepeats,2020.2.10,123.30318327996194,
therm,therm,,,,,0,15,15,15,,,,,,,,161.9529872730002,None,"['t', 'h', 'e', 'r', 'm']",1,"[1.1461357150001277, 1.3221141379999608, 1.514190421999956, 1.6981869480000569, 1.8901596209998388]",161.9529872730002,None,161.9488591294001,None,,,,,,,,,,,,p04_AK_04042022,001,2022_Apr_04_1027,test_typingtask_norepeats,2020.2.10,123.30318327996194,
haole,haole,,,,,0,16,16,16,,,,,,,,167.46004691600024,None,"['h', 'a', 'o', 'l', 'e']",1,"[1.231036437000057, 1.4549888340002326, 1.7191115410000748, 1.935052123999867, 2.1030406159998165]",167.46004691600024,None,167.45605771240008,None,,,,,,,,,,,,p04_AK_04042022,001,2022_Apr_04_1027,test_typingtask_norepeats,2020.2.10,123.30318327996194,
isvar,isvar,,,,,0,17,17,17,,,,,,,,172.96038382200027,None,"['i', 's', 'v', 'a', 'r']",1,"[1.4187658509999892, 1.6266876999998203, 1.8187378229999922, 1.9547267610000745, 2.0987094080001043]",172.96038382200027,None,172.95609125540005,None,,,,,,,,,,,,p04_AK_04042022,001,2022_Apr_04_1027,test_typingtask_norepeats,2020.2.10,123.30318327996194,
about,about,,,,,0,18,18,18,,,,,,,,178.46855688500023,None,"['a', 'b', 'o', 'u', 't']",1,"[1.0785477279996485, 1.2305833919999714, 1.4785725629999433, 1.6305679259999124, 1.8305566099998032]",178.46855688500023,None,178.46407822939983,None,,,,,,,,,,,,p04_AK_04042022,001,2022_Apr_04_1027,test_typingtask_norepeats,2020.2.10,123.30318327996194,
would,would,,,,,0,19,19,19,,,,,,,,183.96892063600012,None,"['w', 'o', 'u', 'l', 'd']",1,"[1.002224641000339, 1.1861108430002787, 1.3380994880003527, 1.5381079530002353, 1.7542243440002494]",183.96892063600012,None,183.9650116773999,None,,,,,,,,,,,,p04_AK_04042022,001,2022_Apr_04_1027,test_typingtask_norepeats,2020.2.10,123.30318327996194,
lucky,lucky,,,,,0,20,20,20,,,,,,,,189.48467759400023,None,"['l', 'u', 'c', 'k', 'y']",1,"[0.9904174869998315, 1.2223775959996601, 1.430456309999954, 1.6064678779998758, 1.8463783279999006]",189.48467759400023,None,189.4800067344002,189.57847874200002,,,,,,,,,,,,p04_AK_04042022,001,2022_Apr_04_1027,test_typingtask_norepeats,2020.2.10,123.30318327996194,
puppy,puppy,,,,,0,21,21,21,,,,,,,,194.97713618000012,None,"['p', 'u', 'p', 'p', 'y']",1,"[1.1142975869997827, 1.3378895099999681, 1.6419645609998952, 1.7860073939996255, 2.0900212039996404]",194.97713618000012,None,194.97134526639985,195.07145957199987,,,,,,,,,,,,p04_AK_04042022,001,2022_Apr_04_1027,test_typingtask_norepeats,2020.2.10,123.30318327996194,
would,would,,,,,0,22,22,22,,,,,,,,200.49203107300013,None,"['w', 'o', 'u', 'l', 'd']",1,"[0.9750448230001894, 1.1591348900001321, 1.319130693000261, 1.487066803000289, 1.7110626460003004]",200.49203107300013,None,200.4883531824001,None,,,,,,,,,,,,p04_AK_04042022,001,2022_Apr_04_1027,test_typingtask_norepeats,2020.2.10,123.30318327996194,
heond,heond,,,,,0,23,23,23,,,,,,,,205.99249239799997,None,"['h', 'e', 'o', 'n', 'd']",1,"[1.338654982999742, 1.5385920169997007, 1.6826073879997239, 1.90657019199989, 2.098643826999705]",205.99249239799997,None,205.98918973839983,None,,,,,,,,,,,,p04_AK_04042022,001,2022_Apr_04_1027,test_typingtask_norepeats,2020.2.10,123.30318327996194,
faqir,faqir,,,,,0,24,24,24,,,,,,,,211.50303069799998,None,"['f', 'a', 'q', 'i', 'r']",1,"[1.859987906999777, 2.1000962719999734, 2.340055696000036, 2.5640777829999024, 2.7720018339996386]",211.50303069799998,None,211.49651549240008,211.5975418630003,,,,,,,,,,,,p04_AK_04042022,001,2022_Apr_04_1027,test_typingtask_norepeats,2020.2.10,123.30318327996194,
cheer,cheer,,,,,0,25,25,25,,,,,,,,217.00740987599988,None,"['c', 'h', 'e', 'e', 'r']",1,"[0.8917332790001637, 1.059622121999837, 1.243705860999853, 1.411681760999727, 1.5797227859998202]",217.00740987599988,None,217.00377368739993,217.1035220450001,,,,,,,,,,,,p04_AK_04042022,001,2022_Apr_04_1027,test_typingtask_norepeats,2020.2.10,123.30318327996194,
isvar,isvar,,,,,0,26,26,26,,,,,,,,222.51849516200014,None,"['i', 's', 'v', 'a', 'r']",1,"[1.148561252000036, 1.348635884000032, 1.524604011000065, 1.6525719199999003, 1.7805853069999102]",222.51849516200014,None,222.51256773540018,222.6117531729999,,,,,,,,,,,,p04_AK_04042022,001,2022_Apr_04_1027,test_typingtask_norepeats,2020.2.10,123.30318327996194,
edthe,edthe,,,,,0,27,27,27,,,,,,,,228.02539566600012,None,"['e', 'd', 't', 'h', 'e']",1,"[1.1937196489998314, 1.3936218479998388, 1.617692254999838, 1.7697045849999995, 1.8737442970000302]",228.02539566600012,None,228.02238688239987,None,,,,,,,,,,,,p04_AK_04042022,001,2022_Apr_04_1027,test_typingtask_norepeats,2020.2.10,123.30318327996194,
about,about,,,,,0,28,28,28,,,,,,,,233.5254293989999,None,"['a', 'b', 'o', 'u', 't']",1,"[0.9416422710000916, 1.1576487649999763, 1.405671127000005, 1.581648413000039, 1.8135822109998117]",233.5254293989999,None,233.5215735253999,None,,,,,,,,,,,,p04_AK_04042022,001,2022_Apr_04_1027,test_typingtask_norepeats,2020.2.10,123.30318327996194,
edthe,edthe,,,,,0,29,29,29,,,,,,,,239.03018473099996,None,"['e', 'd', 't', 'h', 'e']",1,"[1.0529159500001697, 1.2449180130001878, 1.4449088360001952, 1.604931697000211, 1.7248291969999627]",239.03018473099996,None,239.0275109184002,None,,,,,,,,,,,,p04_AK_04042022,001,2022_Apr_04_1027,test_typingtask_norepeats,2020.2.10,123.30318327996194,
haole,haole,,,,,0,30,30,30,,,,,,,,244.53885362100004,None,"['h', 'a', 'o', 'l', 'e']",1,"[1.0962768439999309, 1.272173458999987, 1.6322272780003004, 1.8242720820003342, 2.0082418060001146]",244.53885362100004,None,244.5358328624,None,,,,,,,,,,,,p04_AK_04042022,001,2022_Apr_04_1027,test_typingtask_norepeats,2020.2.10,123.30318327996194,
theme,theme,,,,,0,31,31,31,,,,,,,,250.04785360100027,None,"['t', 'h', 'e', 'm', 'e']",1,"[0.875266080000074, 1.0432528219998858, 1.2351911410000866, 1.4272410779999518, 1.6192737070000476]",250.04785360100027,None,250.04496572340014,None,,,,,,,,,,,,p04_AK_04042022,001,2022_Apr_04_1027,test_typingtask_norepeats,2020.2.10,123.30318327996194,
think,think,,,,,0,32,32,32,,,,,,,,255.55682972699992,None,"['t', 'h', 'i', 'n', 'k']",1,"[1.3262512629999037, 1.526350717999776, 1.7583064999998896, 1.9503154760000143, 2.078318269999727]",255.55682972699992,None,255.5517866354001,255.65190636400007,,,,,,,,,,,,p04_AK_04042022,001,2022_Apr_04_1027,test_typingtask_norepeats,2020.2.10,123.30318327996194,
zibja,zibja,,,,,0,33,33,33,,,,,,,,261.068765882,None,"['z', 'i', 'b', 'j', 'a']",1,"[1.5342638720003379, 1.782308710000052, 2.0142694760002087, 2.2223551910001333, 2.366364920000251]",261.068765882,None,261.0610787504,261.161782036,,,,,,,,,,,,p04_AK_04042022,001,2022_Apr_04_1027,test_typingtask_norepeats,2020.2.10,123.30318327996194,
tithe,tithe,,,,,0,34,34,34,,,,,,,,266.57057301500004,None,"['t', 'i', 't', 'h', 'e']",1,"[1.0884788889998163, 1.5285352079999939, 1.880544030999772, 2.0725130109999554, 2.264573014999769]",266.57057301500004,None,266.5668284294,None,,,,,,,,,,,,p04_AK_04042022,001,2022_Apr_04_1027,test_typingtask_norepeats,2020.2.10,123.30318327996194,
pykka,pykka,,,,,0,35,35,35,,,,,,,,272.0725836670001,None,"['p', 'y', 'k', 'k', 'a']",1,"[1.0664955009997357, 1.378585371999634, 1.6904353799995988, 1.8425192629997582, 2.0265345469997555]",272.0725836670001,None,272.0688151374,None,,,,,,,,,,,,p04_AK_04042022,001,2022_Apr_04_1027,test_typingtask_norepeats,2020.2.10,123.30318327996194,
zibja,zibja,,,,,0,36,36,36,,,,,,,,277.56840036200015,None,"['z', 'i', 'b', 'j', 'a']",1,"[1.258612039000127, 1.4746281970001291, 1.6507113110001228, 1.8106238189998294, 1.9706202309998844]",277.56840036200015,None,277.5629980254001,None,,,,,,,,,,,,p04_AK_04042022,001,2022_Apr_04_1027,test_typingtask_norepeats,2020.2.10,123.30318327996194,
cooed,cooed,,,,,0,37,37,37,,,,,,,,283.08137452799997,None,"['c', 'o', 'o', 'e', 'd']",1,"[1.1377749580001364, 1.4016988590001347, 1.6817482860001292, 2.0017740700000104, 2.217749521999849]",283.08137452799997,None,283.0786399304,None,,,,,,,,,,,,p04_AK_04042022,001,2022_Apr_04_1027,test_typingtask_norepeats,2020.2.10,123.30318327996194,
belly,belly,,,,,0,38,38,38,,,,,,,,288.578171592,None,"['b', 'e', 'l', 'l', 'y']",1,"[0.8729487679997874, 1.040951836000204, 1.264944063999792, 1.4169493590002276, 1.6248988679999457]",288.578171592,None,288.57388882339984,None,,,,,,,,,,,,p04_AK_04042022,001,2022_Apr_04_1027,test_typingtask_norepeats,2020.2.10,123.30318327996194,
kremp,kremp,,,,,0,39,39,39,,,,,,,,294.084257705,None,"['k', 'r', 'e', 'm', 'p']",1,"[1.2468226040000445, 1.4707730690001881, 1.662876598999901, 1.846776559999853, 2.0468900870000653]",294.084257705,None,294.0793640954001,None,,,,,,,,,,,,p04_AK_04042022,001,2022_Apr_04_1027,test_typingtask_norepeats,2020.2.10,123.30318327996194,
puppy,puppy,,,,,0,40,40,40,,,,,,,,299.5897436570001,None,"['p', 'u', 'p', 'p', 'y']",1,"[1.013392482999734, 1.2213140059998295, 1.437338698000076, 1.589276818000144, 1.949351342999762]",299.5897436570001,None,299.5862741633999,None,,,,,,,,,,,,p04_AK_04042022,001,2022_Apr_04_1027,test_typingtask_norepeats,2020.2.10,123.30318327996194,
lucky,lucky,,,,,0,41,41,41,,,,,,,,305.0899376770001,None,"['l', 'u', 'c', 'k', 'y']",1,"[0.9531385499999487, 1.1612079390001782, 1.385185445999923, 1.5452123320001192, 1.8010918290001428]",305.0899376770001,None,305.0858892854001,None,,,,,,,,,,,,p04_AK_04042022,001,2022_Apr_04_1027,test_typingtask_norepeats,2020.2.10,123.30318327996194,
champ,champ,,,,,0,42,42,42,,,,,,,,310.5868408250001,None,"['c', 'h', 'a', 'm', 'p']",1,"[0.920259225999871, 1.0882646009999917, 1.280276952999884, 1.4961556359999122, 1.6643122790001144]",310.5868408250001,None,310.5826338194,None,,,,,,,,,,,,p04_AK_04042022,001,2022_Apr_04_1027,test_typingtask_norepeats,2020.2.10,123.30318327996194,
heond,heond,,,,,0,43,43,43,,,,,,,,316.09733596499996,None,"['h', 'e', 'o', 'n', 'd']",1,"[1.1937548320001952, 1.4416818839999905, 1.6256709310000588, 1.8417159310001807, 2.049779621000198]",316.09733596499996,None,316.09493146040023,None,,,,,,,,,,,,p04_AK_04042022,001,2022_Apr_04_1027,test_typingtask_norepeats,2020.2.10,123.30318327996194,
buddy,buddy,,,,,0,44,44,44,,,,,,,,321.60176004300024,None,"['b', 'u', 'd', 'd', 'y']",1,"[0.9933788820003429, 1.1533147029999782, 1.3933800600002542, 1.569377325000005, 1.801427349000278]",321.60176004300024,None,321.5966647553999,None,,,,,,,,,,,,p04_AK_04042022,001,2022_Apr_04_1027,test_typingtask_norepeats,2020.2.10,123.30318327996194,
cooed,cooed,,,,,0,45,45,45,,,,,,,,327.09780343800026,None,"['c', 'o', 'o', 'e', 'd']",1,"[1.0173123429999578, 1.2973126390002108, 1.60921642600033, 1.9052491420002298, 2.09722555999997]",327.09780343800026,None,327.09550095039987,None,,,,,,,,,,,,p04_AK_04042022,001,2022_Apr_04_1027,test_typingtask_norepeats,2020.2.10,123.30318327996194,
edthe,edthe,,,,,0,46,46,46,,,,,,,,332.6001228470002,None,"['e', 'd', 't', 'h', 'e']",1,"[0.9709906289999708, 1.1709591819999332, 1.4269166629997017, 1.5949592570000277, 1.6990639790001296]",332.6001228470002,None,332.5953680904002,None,,,,,,,,,,,,p04_AK_04042022,001,2022_Apr_04_1027,test_typingtask_norepeats,2020.2.10,123.30318327996194,
cooed,cooed,,,,,0,47,47,47,,,,,,,,338.111646004,None,"['c', 'o', 'o', 'e', 'd']",1,"[0.9314432169999236, 1.2594774009999128, 1.5395350650001092, 1.7714770570000837, 1.9554781809997621]",338.111646004,None,338.10780385239997,None,,,,,,,,,,,,p04_AK_04042022,001,2022_Apr_04_1027,test_typingtask_norepeats,2020.2.10,123.30318327996194,
tithe,tithe,,,,,0,48,48,48,,,,,,,,343.6129513369999,None,"['t', 'i', 't', 'h', 'e']",1,"[1.014161472000069, 1.3181094369997481, 1.6220763440001065, 1.9020847580000009, 2.08619349699984]",343.6129513369999,None,343.6086758653999,None,,,,,,,,,,,,p04_AK_04042022,001,2022_Apr_04_1027,test_typingtask_norepeats,2020.2.10,123.30318327996194,
cheer,cheer,,,,,0,49,49,49,,,,,,,,349.1124450140003,None,"['c', 'h', 'e', 'e', 'r']",1,"[0.7946809830000348, 0.9866887399998632, 1.2026569579998068, 1.4025953099999242, 1.5945776829998977]",349.1124450140003,None,349.1083877024001,None,,,,,,,,,,,,p04_AK_04042022,001,2022_Apr_04_1027,test_typingtask_norepeats,2020.2.10,123.30318327996194,
pykka,pykka,,,,,0,50,50,50,,,,,,,,354.622713771,None,"['p', 'y', 'k', 'k', 'a']",1,"[0.9323695830003089, 1.2364073349999671, 1.5962918280001759, 1.7404302929999176, 1.940388878000249]",354.622713771,None,354.6191143004001,None,,,,,,,,,,,,p04_AK_04042022,001,2022_Apr_04_1027,test_typingtask_norepeats,2020.2.10,123.30318327996194,
druze,druze,,,,,0,51,51,51,,,,,,,,360.1205783170001,None,"['d', 'r', 'u', 'z', 'e']",1,"[1.042444388000149, 1.2505211160000727, 1.4904419650001728, 1.7465823050001745, 2.2505722830001105]",360.1205783170001,None,360.1163634814,None,,,,,,,,,,,,p04_AK_04042022,001,2022_Apr_04_1027,test_typingtask_norepeats,2020.2.10,123.30318327996194,
faqir,faqir,,,,,0,52,52,52,,,,,,,,365.62125083800015,None,"['f', 'a', 'q', 'i', 'r']",1,"[1.1738913020003565, 1.4137669300002926, 1.6378548290003891, 1.8218876610003463, 2.05376423000007]",365.62125083800015,None,365.61680485840026,None,,,,,,,,,,,,p04_AK_04042022,001,2022_Apr_04_1027,test_typingtask_norepeats,2020.2.10,123.30318327996194,
tithe,tithe,,,,,0,53,53,53,,,,,,,,371.13594623699987,None,"['t', 'i', 't', 'h', 'e']",1,"[1.0752118779996636, 1.26712319499984, 1.41913520099979, 1.5952234689998477, 1.7712056909999774]",371.13594623699987,None,371.1316079363999,None,,,,,,,,,,,,p04_AK_04042022,001,2022_Apr_04_1027,test_typingtask_norepeats,2020.2.10,123.30318327996194,
theme,theme,,,,,0,54,54,54,,,,,,,,376.6361255720001,None,"['t', 'h', 'e', 'm', 'e']",1,"[0.9510201470002357, 1.1350162390003788, 1.278988290000143, 1.462924065000152, 1.630998653000006]",376.6361255720001,None,376.63185872039986,None,,,,,,,,,,,,p04_AK_04042022,001,2022_Apr_04_1027,test_typingtask_norepeats,2020.2.10,123.30318327996194,
would,would,,,,,0,55,55,55,,,,,,,,382.1366365189999,None,"['w', 'o', 'u', 'l', 'd']",1,"[0.9864143119998516, 1.1704785580000134, 1.2744745830000284, 1.4343822010000622, 1.6184334559998206]",382.1366365189999,None,382.13254584140014,None,,,,,,,,,,,,p04_AK_04042022,001,2022_Apr_04_1027,test_typingtask_norepeats,2020.2.10,123.30318327996194,
isvar,isvar,,,,,0,56,56,56,,,,,,,,387.65155648799987,None,"['i', 's', 'v', 'a', 'r']",1,"[0.951476298000216, 1.191575929999999, 1.527484946000186, 1.679524211000171, 1.9115436140000384]",387.65155648799987,None,387.64630701840025,387.74519327300027,,,,,,,,,,,,p04_AK_04042022,001,2022_Apr_04_1027,test_typingtask_norepeats,2020.2.10,123.30318327996194,
belly,belly,,,,,0,57,57,57,,,,,,,,393.1585705929999,None,"['b', 'e', 'l', 'l', 'y']",1,"[0.8284981060000973, 0.9965012390002812, 1.2365976570004023, 1.3805715400003464, 1.6204515710001033]",393.1585705929999,None,393.1537005804001,None,,,,,,,,,,,,p04_AK_04042022,001,2022_Apr_04_1027,test_typingtask_norepeats,2020.2.10,123.30318327996194,
kremp,kremp,,,,,0,58,58,58,,,,,,,,398.6571786279999,None,"['k', 'r', 'e', 'm', 'p']",1,"[0.9299657649999062, 1.1539243560000614, 1.3379586480000398, 1.4738415209999403, 1.6099638689997846]",398.6571786279999,None,398.65392877840014,None,,,,,,,,,,,,p04_AK_04042022,001,2022_Apr_04_1027,test_typingtask_norepeats,2020.2.10,123.30318327996194,
isvar,isvar,,,,,0,59,59,59,,,,,,,,404.1551455609999,None,"['i', 's', 'v', 'a', 'r']",1,"[0.8879575729997669, 1.0639037569999346, 1.207980681999743, 1.31995642999982, 1.415884736999942]",404.1551455609999,None,404.1505199644001,None,,,,,,,,,,,,p04_AK_04042022,001,2022_Apr_04_1027,test_typingtask_norepeats,2020.2.10,123.30318327996194,
champ,champ,,,,,0,60,60,60,,,,,,,,409.668776191,None,"['c', 'h', 'a', 'm', 'p']",1,"[0.8542759269998896, 0.9823637240001517, 1.2223416400001952, 1.390278300999853, 1.5502402450001682]",409.668776191,None,409.6642720784001,409.7638502890002,,,,,,,,,,,,p04_AK_04042022,001,2022_Apr_04_1027,test_typingtask_norepeats,2020.2.10,123.30318327996194,
druze,druze,,,,,0,61,61,61,,,,,,,,415.1668565790003,None,"['d', 'r', 'u', 'z', 'e']",1,"[0.8522376720002285, 1.044237613000405, 1.276242583000112, 1.524239057000159, 1.7642686660001345]",415.1668565790003,None,415.1624500524002,None,,,,,,,,,,,,p04_AK_04042022,001,2022_Apr_04_1027,test_typingtask_norepeats,2020.2.10,123.30318327996194,
therm,therm,,,,,0,62,62,62,,,,,,,,420.6723333709999,None,"['t', 'h', 'e', 'r', 'm']",1,"[0.8667519360001279, 1.034813498999938, 1.2026736990001154, 1.386761937999836, 1.5628049639999517]",420.6723333709999,None,420.6691310554,None,,,,,,,,,,,,p04_AK_04042022,001,2022_Apr_04_1027,test_typingtask_norepeats,2020.2.10,123.30318327996194,
lucky,lucky,,,,,0,63,63,63,,,,,,,,426.17335583399995,None,"['l', 'u', 'c', 'k', 'y']",1,"[1.0777731030002542, 1.29373292199989, 1.4216582050003126, 1.565723688000162, 1.7816607190002287]",426.17335583399995,None,426.1698766214002,None,,,,,,,,,,,,p04_AK_04042022,001,2022_Apr_04_1027,test_typingtask_norepeats,2020.2.10,123.30318327996194,
think,think,,,,,0,64,64,64,,,,,,,,431.66839308600015,None,"['t', 'h', 'i', 'n', 'k']",1,"[0.7827474969999457, 0.9586657929999092, 1.1267675680001048, 1.2947410930000842, 1.3826410420001594]",431.66839308600015,None,431.6633308593999,None,,,,,,,,,,,,p04_AK_04042022,001,2022_Apr_04_1027,test_typingtask_norepeats,2020.2.10,123.30318327996194,
lucky,lucky,,,,,0,65,65,65,,,,,,,,437.1737339650001,None,"['l', 'u', 'c', 'k', 'y']",1,"[0.797414568000022, 0.9973946840000281, 1.1493619909997506, 1.2852768560001095, 1.4853630319998956]",437.1737339650001,None,437.17006056539987,None,,,,,,,,,,,,p04_AK_04042022,001,2022_Apr_04_1027,test_typingtask_norepeats,2020.2.10,123.30318327996194,
cooed,cooed,,,,,0,66,66,66,,,,,,,,442.6811489530003,None,"['c', 'o', 'o', 'e', 'd']",1,"[0.7618581260003339, 0.9699454980000155, 1.1460153770003672, 1.34587628700001, 1.5459821990002638]",442.6811489530003,None,442.6783388013999,None,,,,,,,,,,,,p04_AK_04042022,001,2022_Apr_04_1027,test_typingtask_norepeats,2020.2.10,123.30318327996194,
haole,haole,,,,,0,67,67,67,,,,,,,,448.1877747410001,None,"['h', 'a', 'o', 'l', 'e']",1,"[1.0313817629998994, 1.175350139999864, 1.319373078999888, 1.5033112129999608, 1.6154107170000316]",448.1877747410001,None,448.18397734440015,None,,,,,,,,,,,,p04_AK_04042022,001,2022_Apr_04_1027,test_typingtask_norepeats,2020.2.10,123.30318327996194,
pykka,pykka,,,,,0,68,68,68,,,,,,,,453.6839668979999,None,"['p', 'y', 'k', 'k', 'a']",1,"[0.8630983759999253, 1.2231361699996341, 1.527094343999579, 1.6711840969996956, 1.8151591619998726]",453.6839668979999,None,453.67984315840005,None,,,,,,,,,,,,p04_AK_04042022,001,2022_Apr_04_1027,test_typingtask_norepeats,2020.2.10,123.30318327996194,
buddy,buddy,,,,,0,69,69,69,,,,,,,,459.20146847399997,None,"['b', 'u', 'd', 'd', 'y']",1,"[0.8736221509998359, 1.0176259539998682, 1.369571559999713, 1.5696071589995881, 1.7375493579997965]",459.20146847399997,None,459.1963523933999,None,,,,,,,,,,,,p04_AK_04042022,001,2022_Apr_04_1027,test_typingtask_norepeats,2020.2.10,123.30318327996194,
druze,druze,,,,,0,70,70,70,,,,,,,,464.70268256700024,None,"['d', 'r', 'u', 'z', 'e']",1,"[0.8684510349999073, 1.0683604339997146, 1.2124465080000846, 1.4604293909997068, 1.716381932999866]",464.70268256700024,None,464.69828291640016,None,,,,,,,,,,,,p04_AK_04042022,001,2022_Apr_04_1027,test_typingtask_norepeats,2020.2.10,123.30318327996194,
buddy,buddy,,,,,0,71,71,71,,,,,,,,470.204945318,None,"['b', 'u', 'd', 'd', 'y']",1,"[0.822165866999967, 0.9501252119998753, 1.1741523499999857, 1.3421576060000007, 1.4461943119999887]",470.204945318,None,470.20053316440027,470.3034659470002,,,,,,,,,,,,p04_AK_04042022,001,2022_Apr_04_1027,test_typingtask_norepeats,2020.2.10,123.30318327996194,
zibja,zibja,,,,,0,72,72,72,,,,,,,,475.71431084400024,None,"['z', 'i', 'b', 'j', 'a']",1,"[1.0167934559999594, 1.2167116750001696, 1.4088133089999246, 1.5688191809999807, 1.6887049669999215]",475.71431084400024,None,475.71133515740013,475.81058579800015,,,,,,,,,,,,p04_AK_04042022,001,2022_Apr_04_1027,test_typingtask_norepeats,2020.2.10,123.30318327996194,
therm,therm,,,,,0,73,73,73,,,,,,,,481.22396998299996,None,"['t', 'h', 'e', 'r', 'm']",1,"[0.8031502079998063, 0.9712073900000178, 1.1071057300000575, 1.3070980190000228, 1.4031049310001436]",481.22396998299996,None,481.22002574339996,None,,,,,,,,,,,,p04_AK_04042022,001,2022_Apr_04_1027,test_typingtask_norepeats,2020.2.10,123.30318327996194,
puppy,puppy,,,,,0,74,74,74,,,,,,,,486.73409359699986,None,"['p', 'u', 'p', 'p', 'y']",1,"[0.8449483929998678, 1.0609160479998536, 1.245052448000024, 1.4050513560000581, 1.62896951599987]",486.73409359699986,None,486.72922444939996,None,,,,,,,,,,,,p04_AK_04042022,001,2022_Apr_04_1027,test_typingtask_norepeats,2020.2.10,123.30318327996194,
lucky,lucky,,,,,0,75,75,75,,,,,,,,492.2259393500001,None,"['l', 'u', 'c', 'k', 'y']",1,"[0.8571962329997405, 1.0411818139996285, 1.2572083309996742, 1.401230569999825, 1.6252157499998248]",492.2259393500001,None,492.2222531994001,None,,,,,,,,,,,,p04_AK_04042022,001,2022_Apr_04_1027,test_typingtask_norepeats,2020.2.10,123.30318327996194,
cheer,cheer,,,,,0,76,76,76,,,,,,,,497.7372098080002,None,"['c', 'h', 'e', 'e', 'r']",1,"[0.9619302679998327, 1.1218786959998397, 1.3218922339997334, 1.5059708680000767, 1.7139835699999821]",497.7372098080002,None,497.7331707644001,None,,,,,,,,,,,,p04_AK_04042022,001,2022_Apr_04_1027,test_typingtask_norepeats,2020.2.10,123.30318327996194,
would,would,,,,,0,77,77,77,,,,,,,,503.24805231999994,None,"['w', 'o', 'u', 'l', 'd']",1,"[0.859041396000066, 1.01897643600023, 1.1550215330003084, 1.3230644150003172, 1.4750917690003007]",503.24805231999994,None,503.2449608534001,None,,,,,,,,,,,,p04_AK_04042022,001,2022_Apr_04_1027,test_typingtask_norepeats,2020.2.10,123.30318327996194,
therm,therm,,,,,0,78,78,78,,,,,,,,508.7521829959999,None,"['t', 'h', 'e', 'r', 'm']",1,"[0.8509116799996264, 0.9789446419999877, 1.0668895159997192, 1.2429250689997389, 1.3308631349996176]",508.7521829959999,None,508.7483024734,None,,,,,,,,,,,,p04_AK_04042022,001,2022_Apr_04_1027,test_typingtask_norepeats,2020.2.10,123.30318327996194,
about,about,,,,,0,79,79,79,,,,,,,,514.261903459,None,"['a', 'b', 'o', 'u', 't']",1,"[0.8931688910001867, 1.0372021789999053, 1.2050906519998534, 1.3092419820000032, 1.5092351419998522]",514.261903459,None,514.2570941234002,None,,,,,,,,,,,,p04_AK_04042022,001,2022_Apr_04_1027,test_typingtask_norepeats,2020.2.10,123.30318327996194,
think,think,,,,,0,80,80,80,,,,,,,,519.7630822009999,None,"['t', 'h', 'i', 'n', 'k']",1,"[0.808063336000032, 0.9759888290000163, 1.1200288009999895, 1.248056828999779, 1.360062724999807]",519.7630822009999,None,519.7589382304003,None,,,,,,,,,,,,p04_AK_04042022,001,2022_Apr_04_1027,test_typingtask_norepeats,2020.2.10,123.30318327996194,
vodka,vodka,,,,,0,81,81,81,,,,,,,,525.276606784,None,"['v', 'o', 'd', 'k', 'a']",1,"[0.8144059989999732, 1.006395117000011, 1.1824525460001496, 1.3424006889999873, 1.4865160929998638]",525.276606784,None,525.2732667824001,None,,,,,,,,,,,,p04_AK_04042022,001,2022_Apr_04_1027,test_typingtask_norepeats,2020.2.10,123.30318327996194,
champ,champ,,,,,0,82,82,82,,,,,,,,530.781569861,None,"['c', 'h', 'a', 'm', 'p']",1,"[0.8374467039998308, 0.9575058989998979, 1.1175340780000624, 1.237572334000106, 1.349575963999996]",530.781569861,None,530.7779809994003,530.877245248,,,,,,,,,,,,p04_AK_04042022,001,2022_Apr_04_1027,test_typingtask_norepeats,2020.2.10,123.30318327996194,
belly,belly,,,,,0,83,83,83,,,,,,,,536.285421151,None,"['b', 'e', 'l', 'l', 'y']",1,"[0.7736799110002721, 0.9417542199998934, 1.1095826149999084, 1.2537247569998726, 1.4856900560002941]",536.285421151,None,536.2806189454003,None,,,,,,,,,,,,p04_AK_04042022,001,2022_Apr_04_1027,test_typingtask_norepeats,2020.2.10,123.30318327996194,
about,about,,,,,0,84,84,84,,,,,,,,541.7863275040002,None,"['a', 'b', 'o', 'u', 't']",1,"[0.8726828409999143, 1.03282355500005, 1.2328204969999206, 1.368799923000097, 1.5688200429999597]",541.7863275040002,None,541.7815724014002,None,,,,,,,,,,,,p04_AK_04042022,001,2022_Apr_04_1027,test_typingtask_norepeats,2020.2.10,123.30318327996194,
tithe,tithe,,,,,0,85,85,85,,,,,,,,547.2841716700002,None,"['t', 'o', 'i', 't', 'h', 'e']",0,"[0.96682057299995, 1.214943385999959, 1.2389342810001835, 1.4549515200001224, 1.6309926310000264, 1.814895407000222]",547.2841716700002,None,547.2794655164001,None,,,,,,,,,,,,p04_AK_04042022,001,2022_Apr_04_1027,test_typingtask_norepeats,2020.2.10,123.30318327996194,
zibja,zibja,,,,,0,86,86,86,,,,,,,,552.7967415800001,None,"['z', 'i', 'b', 'j', 'a']",1,"[1.046417351999935, 1.2463765909997164, 1.430372511999849, 1.574401337999916, 1.70236258299974]",552.7967415800001,None,552.7917872984002,552.8914616270001,,,,,,,,,,,,p04_AK_04042022,001,2022_Apr_04_1027,test_typingtask_norepeats,2020.2.10,123.30318327996194,
there,there,,,,,0,87,87,87,,,,,,,,558.295644353,None,"['t', 'h', 'e', 'r', 'e']",1,"[0.8594078099999933, 1.019432745999893, 1.1233744750002188, 1.307428032000189, 1.4994362810002713]",558.295644353,None,558.2922520494002,None,,,,,,,,,,,,p04_AK_04042022,001,2022_Apr_04_1027,test_typingtask_norepeats,2020.2.10,123.30318327996194,
druze,druze,,,,,0,88,88,88,,,,,,,,563.7968304580002,None,"['d', 'r', 'u', 'z', 'e']",1,"[0.8543049160002738, 1.0381747330002327, 1.238293418000012, 1.5103169920002983, 1.7742552510003406]",563.7968304580002,None,563.7919199984002,None,,,,,,,,,,,,p04_AK_04042022,001,2022_Apr_04_1027,test_typingtask_norepeats,2020.2.10,123.30318327996194,
kremp,kremp,,,,,0,89,89,89,,,,,,,,569.307852656,None,"['k', 'r', 'e', 'm', 'p']",1,"[1.0392680140002994, 1.223260448000019, 1.4231318580000334, 1.495266876000187, 1.6472590180001134]",569.307852656,None,569.3036839283999,None,,,,,,,,,,,,p04_AK_04042022,001,2022_Apr_04_1027,test_typingtask_norepeats,2020.2.10,123.30318327996194,
buddy,buddy,,,,,0,90,90,90,,,,,,,,574.8072005870001,None,"['b', 'u', 'd', 'd', 'y']",1,"[0.8919445809997342, 1.0438197109997418, 1.2359275879998677, 1.4039131979998274, 1.5398895929997707]",574.8072005870001,None,574.8034942284002,574.9033338370002,,,,,,,,,,,,p04_AK_04042022,001,2022_Apr_04_1027,test_typingtask_norepeats,2020.2.10,123.30318327996194,
haole,haole,,,,,0,91,91,91,,,,,,,,580.310118143,None,"['h', 'a', 'o', 'l', 'e']",1,"[1.1410161009998774, 1.3169322829999146, 1.4610239690000526, 1.6288954090000516, 1.7648802409999007]",580.310118143,None,580.3067195714001,None,,,,,,,,,,,,p04_AK_04042022,001,2022_Apr_04_1027,test_typingtask_norepeats,2020.2.10,123.30318327996194,
faqir,faqir,,,,,0,92,92,92,,,,,,,,585.8227771160002,None,"['f', 'a', 'q', 'i', 'r']",1,"[1.100371118000112, 1.3083452910000233, 1.54035551700008, 1.7243577809999806, 1.9242643830002635]",585.8227771160002,None,585.8181681233999,585.9188518540002,,,,,,,,,,,,p04_AK_04042022,001,2022_Apr_04_1027,test_typingtask_norepeats,2020.2.10,123.30318327996194,
belly,belly,,,,,0,93,93,93,,,,,,,,591.3307424259999,None,"['b', 'e', 'l', 'l', 'y']",1,"[0.776293146000171, 0.9524036620000516, 1.1523339709997344, 1.3044035269999767, 1.5363940759998513]",591.3307424259999,None,591.3255817824,591.4273102690001,,,,,,,,,,,,p04_AK_04042022,001,2022_Apr_04_1027,test_typingtask_norepeats,2020.2.10,123.30318327996194,
isvar,isvar,,,,,0,94,94,94,,,,,,,,596.8408195220002,None,"['i', 's', 'v', 'a', 'r']",1,"[0.9302395310000975, 1.130195676999847, 1.3223225639999328, 1.4022296539997114, 1.5462967729999946]",596.8408195220002,None,596.8367828754002,596.9384035,,,,,,,,,,,,p04_AK_04042022,001,2022_Apr_04_1027,test_typingtask_norepeats,2020.2.10,123.30318327996194,
kremp,kremp,,,,,0,95,95,95,,,,,,,,602.3451737100002,None,"['k', 'r', 'e', 'm', 'p']",1,"[1.01796963400011, 1.2739076200000454, 1.5059159150000596, 1.6899474319998262, 1.8419647359996816]",602.3451737100002,None,602.3403562443999,None,,,,,,,,,,,,p04_AK_04042022,001,2022_Apr_04_1027,test_typingtask_norepeats,2020.2.10,123.30318327996194,
think,think,,,,,0,96,96,96,,,,,,,,607.8451949500002,None,"['t', 'h', 'i', 'n', 'k']",1,"[0.8539439649998712, 1.0299733249999008, 1.246011406999969, 1.4458933860000798, 1.6059217500001068]",607.8451949500002,None,607.8406545964002,607.9399357959999,,,,,,,,,,,,p04_AK_04042022,001,2022_Apr_04_1027,test_typingtask_norepeats,2020.2.10,123.30318327996194,
zibja,zibja,,,,,0,97,97,97,,,,,,,,613.3524065600002,None,"['z', 'i', 'b', 'j', 'a']",1,"[1.1387925210001413, 1.4027410990001954, 1.5627388190000602, 1.7306602120002026, 1.8827366470000015]",613.3524065600002,None,613.3475726324003,None,,,,,,,,,,,,p04_AK_04042022,001,2022_Apr_04_1027,test_typingtask_norepeats,2020.2.10,123.30318327996194,
heond,heond,,,,,0,98,98,98,,,,,,,,618.853335092,None,"['h', 'e', 'o', 'n', 'd']",1,"[1.053697881000062, 1.2937339770001017, 1.4457983880001848, 1.6697225040002195, 1.9578305350000846]",618.853335092,None,618.8496624044,618.9482929940002,,,,,,,,,,,,p04_AK_04042022,001,2022_Apr_04_1027,test_typingtask_norepeats,2020.2.10,123.30318327996194,
kremp,kremp,,,,,0,99,99,99,,,,,,,,624.3678303090003,None,"['k', 'r', 'e', 'm', 'p']",1,"[0.9152001930001461, 1.131297899999936, 1.3152956839999206, 1.4193164520002028, 1.5712473140001748]",624.3678303090003,None,624.3628932034002,624.4631947180003,,,,,,,,,,,,p04_AK_04042022,001,2022_Apr_04_1027,test_typingtask_norepeats,2020.2.10,123.30318327996194,
druze,druze,,,,,0,100,100,100,,,,,,,,629.8692374069999,None,"['d', 'r', 'u', 'z', 'e']",1,"[0.9179068749999715, 1.1499288859999979, 1.365792197999781, 1.597891978000007, 1.8698955459999524]",629.8692374069999,None,629.8647141144,629.9640248769999,,,,,,,,,,,,p04_AK_04042022,001,2022_Apr_04_1027,test_typingtask_norepeats,2020.2.10,123.30318327996194,
theme,theme,,,,,0,101,101,101,,,,,,,,635.3713473559999,None,"['t', 'h', 'e', 'm', 'e']",1,"[0.8637921270001243, 1.0716709889998128, 1.279704651999964, 1.4556953639998937, 1.5516651059997457]",635.3713473559999,None,635.3663575744002,None,,,,,,,,,,,,p04_AK_04042022,001,2022_Apr_04_1027,test_typingtask_norepeats,2020.2.10,123.30318327996194,
haole,haole,,,,,0,102,102,102,,,,,,,,640.872749379,None,"['h', 'a', 'o', 'l', 'e']",1,"[0.9783458120000432, 1.1784070870003234, 1.3702746620001562, 1.5384056570001121, 1.6423628100001224]",640.872749379,None,640.8689597994002,None,,,,,,,,,,,,p04_AK_04042022,001,2022_Apr_04_1027,test_typingtask_norepeats,2020.2.10,123.30318327996194,
puppy,puppy,,,,,0,103,103,103,,,,,,,,646.3819389110001,None,"['p', 'u', 'p', 'p', 'y']",1,"[0.9331050870000581, 1.1651912080001239, 1.397189292999883, 1.5412059410000438, 1.8051738859999205]",646.3819389110001,None,646.3782349494003,646.4772634900003,,,,,,,,,,,,p04_AK_04042022,001,2022_Apr_04_1027,test_typingtask_norepeats,2020.2.10,123.30318327996194,
faqir,faqir,,,,,0,104,104,104,,,,,,,,651.880584191,None,"['f', 'a', 'q', 'i', 'r']",1,"[0.9384691149998616, 1.146461158999955, 1.370549181000115, 1.498578777000148, 1.7145624149998184]",651.880584191,None,651.8757140324,651.9774227159999,,,,,,,,,,,,p04_AK_04042022,001,2022_Apr_04_1027,test_typingtask_norepeats,2020.2.10,123.30318327996194,
about,about,,,,,0,105,105,105,,,,,,,,657.3885496169999,None,"['a', 'b', 'o', 'u', 't']",1,"[0.8545951380001497, 1.0065470270001242, 1.1985665580000386, 1.3105161809999117, 1.5504897920000076]",657.3885496169999,None,657.3837970404,657.4864932309999,,,,,,,,,,,,p04_AK_04042022,001,2022_Apr_04_1027,test_typingtask_norepeats,2020.2.10,123.30318327996194,
vodka,vodka,,,,,0,106,106,106,,,,,,,,662.8840379650003,None,"['v', 'o', 'd', 'k', 'a']",1,"[0.8550316790001489, 1.0551053760000286, 1.238984907000031, 1.4070485970000846, 1.543090088000099]",662.8840379650003,None,662.8791589284,662.977943868,,,,,,,,,,,,p04_AK_04042022,001,2022_Apr_04_1027,test_typingtask_norepeats,2020.2.10,123.30318327996194,
there,there,,,,,0,107,107,107,,,,,,,,668.3862767500002,None,"['t', 'h', 'e', 'r', 'e']",1,"[0.7847857430001568, 0.9528143190000264, 1.1047969999999623, 1.3287639109998963, 1.5608069730001262]",668.3862767500002,None,668.3826596334001,None,,,,,,,,,,,,p04_AK_04042022,001,2022_Apr_04_1027,test_typingtask_norepeats,2020.2.10,123.30318327996194,
theme,theme,,,,,0,108,108,108,,,,,,,,673.894510286,None,"['t', 'h', 'e', 'm', 'e']",1,"[0.8365906150002047, 1.0206283520001307, 1.2045992090002073, 1.340501963999941, 1.4845330570001352]",673.894510286,None,673.8898769634001,None,,,,,,,,,,,,p04_AK_04042022,001,2022_Apr_04_1027,test_typingtask_norepeats,2020.2.10,123.30318327996194,
heond,heond,,,,,0,109,109,109,,,,,,,,679.3985277540003,None,"['h', 'e', 'o', 'n', 'd']",1,"[0.9646203759998571, 1.1404921660000582, 1.276481094999781, 1.4766502590000528, 1.6846230169999217]",679.3985277540003,None,679.3959778023999,None,,,,,,,,,,,,p04_AK_04042022,001,2022_Apr_04_1027,test_typingtask_norepeats,2020.2.10,123.30318327996194,
faqir,faqir,,,,,0,110,110,110,,,,,,,,684.9155202660002,None,"['f', 'a', 'q', 'i', 'r']",1,"[0.9275934849997611, 1.1275890490001075, 1.3515295490001336, 1.511611184999765, 1.743605561000095]",684.9155202660002,None,684.9123494334002,685.0116065760001,,,,,,,,,,,,p04_AK_04042022,001,2022_Apr_04_1027,test_typingtask_norepeats,2020.2.10,123.30318327996194,
cooed,cooed,,,,,0,111,111,111,,,,,,,,690.4189775900002,None,"['c', 'o', 'o', 'e', 'd']",1,"[1.1041249489999245, 1.3601846300002762, 1.528143352999905, 1.7041564609999114, 1.8961582090000775]",690.4189775900002,None,690.4144710203999,None,,,,,,,,,,,,p04_AK_04042022,001,2022_Apr_04_1027,test_typingtask_norepeats,2020.2.10,123.30318327996194,
there,there,,,,,0,112,112,112,,,,,,,,695.919037592,None,"['t', 'h', 'e', 'r', 'e']",1,"[0.8360342050000327, 1.0201201550003134, 1.2040689320001547, 1.388032812000347, 1.5801088910002363]",695.919037592,None,695.9155947294001,None,,,,,,,,,,,,p04_AK_04042022,001,2022_Apr_04_1027,test_typingtask_norepeats,2020.2.10,123.30318327996194,
would,would,,,,,0,113,113,113,,,,,,,,701.4213223859999,None,"['w', 'o', 'u', 'l', 'd']",1,"[0.9098208290001821, 1.0457536210001308, 1.1817561530001512, 1.341833442999814, 1.525780167999983]",701.4213223859999,None,701.4163250504001,701.515146165,,,,,,,,,,,,p04_AK_04042022,001,2022_Apr_04_1027,test_typingtask_norepeats,2020.2.10,123.30318327996194,
there,there,,,,,0,114,114,114,,,,,,,,706.9227963860001,None,"['t', 'h', 'e', 'r', 'e']",1,"[0.8163360499997907, 0.992229567999857, 1.1283186020000358, 1.2803293560000384, 1.4802189699998962]",706.9227963860001,None,706.9197196334002,None,,,,,,,,,,,,p04_AK_04042022,001,2022_Apr_04_1027,test_typingtask_norepeats,2020.2.10,123.30318327996194,
heond,heond,,,,,0,115,115,115,,,,,,,,712.4251977780002,None,"['h', 'e', 'o', 'n', 'd']",1,"[0.93795374299998, 1.0979413860000022, 1.2099310179996792, 1.4100016699999287, 1.6258758499998294]",712.4251977780002,None,712.4221765244,None,,,,,,,,,,,,p04_AK_04042022,001,2022_Apr_04_1027,test_typingtask_norepeats,2020.2.10,123.30318327996194,
therm,therm,,,,,0,116,116,116,,,,,,,,717.9319099340003,None,"['t', 'h', 'e', 'r', 'm']",1,"[0.8632191369997599, 1.0312287369997648, 1.151116362999801, 1.3511669769995933, 1.4871462489995793]",717.9319099340003,None,717.9293640444001,None,,,,,,,,,,,,p04_AK_04042022,001,2022_Apr_04_1027,test_typingtask_norepeats,2020.2.10,123.30318327996194,
pykka,pykka,,,,,0,117,117,117,,,,,,,,723.4380799410003,None,"['p', 'y', 'k', 'k', 'a']",1,"[0.9810460550002063, 1.2690666710000187, 1.5250642959999823, 1.677018622000105, 1.8369434080000246]",723.4380799410003,None,723.4344403794001,None,,,,,,,,,,,,p04_AK_04042022,001,2022_Apr_04_1027,test_typingtask_norepeats,2020.2.10,123.30318327996194,
edthe,edthe,,,,,0,118,118,118,,,,,,,,728.9411072770001,None,"['e', 'd', 't', 'h', 'e']",1,"[0.9499340549996305, 1.1660500230000252, 1.3500686779998432, 1.5099780949999513, 1.597971048999625]",728.9411072770001,None,728.9384393244003,None,,,,,,,,,,,,p04_AK_04042022,001,2022_Apr_04_1027,test_typingtask_norepeats,2020.2.10,123.30318327996194,
vodka,vodka,,,,,0,119,119,119,,,,,,,,734.4393720400001,None,"['v', 'o', 'd', 'k', 'a']",1,"[0.8196333340001729, 1.059767863000161, 1.2837451039999905, 1.4277647690000776, 1.5877871309999136]",734.4393720400001,None,734.4343845484003,734.5365731170002,,,,,,,,,,,,p04_AK_04042022,001,2022_Apr_04_1027,test_typingtask_norepeats,2020.2.10,123.30318327996194,
lucky,lucky,,,,,,,,,0,0,0,0,,,,,,,,,,,,,739.943348648,None,779.170128085,None,"['l', 'u', 'c', 'k', 'y']",1,"[0.9928847930000302, 1.2170528149999882, 1.4169513150000057, 1.560902549000275, 1.7930110229999627]",779.170128085,None,779.1660202638,None,p04_AK_04042022,001,2022_Apr_04_1027,test_typingtask_norepeats,2020.2.10,123.30318327996194,
zibja,zibja,,,,,,,,,0,1,1,1,,,,,,,,,,,,,,,784.6977108359999,None,"['z', 'i', 'b', 'j', 'a']",1,"[1.1614172670001608, 1.385430757999984, 1.7613394169998173, 1.929380521999974, 2.0573952909999207]",784.6977108359999,None,784.6927828754,784.794580258,p04_AK_04042022,001,2022_Apr_04_1027,test_typingtask_norepeats,2020.2.10,123.30318327996194,
would,would,,,,,,,,,0,2,2,2,,,,,,,,,,,,,,,790.192366044,None,"['w', 'o', 'u', 'l', 'd']",1,"[0.866730378000284, 1.0187929769999755, 1.1707743970000593, 1.322723872000097, 1.506758352000361]",790.192366044,None,790.1883263754002,None,p04_AK_04042022,001,2022_Apr_04_1027,test_typingtask_norepeats,2020.2.10,123.30318327996194,
buddy,buddy,,,,,,,,,0,3,3,3,,,,,,,,,,,,,,,795.6956024050003,None,"['b', 'u', 'd', 'd', 'y']",1,"[0.7955503339999268, 0.9474365470000521, 1.1554079770003227, 1.3235468729999411, 1.4515506719999394]",795.6956024050003,None,795.6903147614001,795.7908089300001,p04_AK_04042022,001,2022_Apr_04_1027,test_typingtask_norepeats,2020.2.10,123.30318327996194,
zibja,zibja,,,,,,,,,0,4,4,4,,,,,,,,,,,,,,,801.2054356730002,None,"['z', 'i', 'b', 'j', 'a']",1,"[0.9257022649999271, 1.1097077039999022, 1.2775880680001137, 1.74970739399987, 1.8777151039998898]",801.2054356730002,None,801.2004815634003,801.3021446079999,p04_AK_04042022,001,2022_Apr_04_1027,test_typingtask_norepeats,2020.2.10,123.30318327996194,
puppy,puppy,,,,,,,,,0,5,5,5,,,,,,,,,,,,,,,806.7094126929999,None,"['p', 'u', 'p', 'p', 'y']",1,"[0.9417295350003769, 1.1417241080002896, 1.3495818740002505, 1.4935981780004113, 1.7096630940000068]",806.7094126929999,None,806.7052249893999,None,p04_AK_04042022,001,2022_Apr_04_1027,test_typingtask_norepeats,2020.2.10,123.30318327996194,
kremp,kremp,,,,,,,,,0,6,6,6,,,,,,,,,,,,,,,812.209002118,None,"['k', 'r', 'e', 'm', 'p']",1,"[0.8980111340001713, 1.098092166999777, 1.2821444599999268, 1.3701054429998294, 1.5141519529997822]",812.209002118,None,812.2053580654,812.3049852280003,p04_AK_04042022,001,2022_Apr_04_1027,test_typingtask_norepeats,2020.2.10,123.30318327996194,
lucky,lucky,,,,,,,,,0,7,7,7,,,,,,,,,,,,,,,817.7205748110002,None,"['l', 'u', 'c', 'k', 'y']",1,"[0.8105187649998697, 1.0105759569996735, 1.234445261000019, 1.362561802000073, 1.6105664429996978]",817.7205748110002,None,817.7160920104001,817.8152144520002,p04_AK_04042022,001,2022_Apr_04_1027,test_typingtask_norepeats,2020.2.10,123.30318327996194,
about,about,,,,,,,,,0,8,8,8,,,,,,,,,,,,,,,823.2243660050001,None,"['a', 'b', 'o', 'u', 't']",1,"[0.8587644569997792, 1.0506426799997826, 1.2907623609999064, 1.730765023999993, 1.962702697000168]",823.2243660050001,None,823.2195141783999,823.3213017250002,p04_AK_04042022,001,2022_Apr_04_1027,test_typingtask_norepeats,2020.2.10,123.30318327996194,
belly,belly,,,,,,,,,0,9,9,9,,,,,,,,,,,,,,,828.735793907,None,"['b', 'e', 'l', 'l', 'y']",1,"[0.8432175540001481, 1.0433473440002672, 1.283275354000125, 1.4273435620002601, 1.6833514060003836]",828.735793907,None,828.7308414063999,828.8305767960003,p04_AK_04042022,001,2022_Apr_04_1027,test_typingtask_norepeats,2020.2.10,123.30318327996194,
champ,champ,,,,,,,,,0,10,10,10,,,,,,,,,,,,,,,834.235865982,None,"['c', 'h', 'a', 'm', 'p']",1,"[0.8152354169997125, 0.9512753049998537, 1.1592404610000813, 1.319198165999751, 1.447204253000109]",834.235865982,None,834.2309380684,834.3306764420001,p04_AK_04042022,001,2022_Apr_04_1027,test_typingtask_norepeats,2020.2.10,123.30318327996194,
faqir,faqir,,,,,,,,,0,11,11,11,,,,,,,,,,,,,,,839.7491824690003,None,"['f', 'a', 'q', 'i', 'r']",1,"[0.94983090300002, 1.1499426459999995, 1.3659528190000856, 1.5418397450002885, 1.7578541230000155]",839.7491824690003,None,839.7455046553999,839.8444684060003,p04_AK_04042022,001,2022_Apr_04_1027,test_typingtask_norepeats,2020.2.10,123.30318327996194,
cheer,cheer,,,,,,,,,0,12,12,12,,,,,,,,,,,,,,,845.251525634,None,"['c', 'h', 'e', 'e', 'r']",1,"[0.7834674199998517, 0.9595341570002347, 1.1434982579999087, 1.319608430000244, 1.5194862739999735]",845.251525634,None,845.2467334413999,845.3456867910002,p04_AK_04042022,001,2022_Apr_04_1027,test_typingtask_norepeats,2020.2.10,123.30318327996194,
buddy,buddy,,,,,,,,,0,13,13,13,,,,,,,,,,,,,,,850.7653613700002,None,"['b', 'u', 'd', 'd', 'y']",1,"[0.8777313570003571, 1.013782791000267, 1.2376730280002448, 1.3977353330001279, 1.5497787510003036]",850.7653613700002,None,850.7618720494,850.8628075120002,p04_AK_04042022,001,2022_Apr_04_1027,test_typingtask_norepeats,2020.2.10,123.30318327996194,
lucky,lucky,,,,,,,,,0,14,14,14,,,,,,,,,,,,,,,856.2684518869999,None,"['l', 'u', 'c', 'k', 'y']",1,"[0.8947223720001602, 1.094688916999985, 1.294564378999894, 1.406651826000143, 1.6386363609999535]",856.2684518869999,None,856.2634328503999,None,p04_AK_04042022,001,2022_Apr_04_1027,test_typingtask_norepeats,2020.2.10,123.30318327996194,
theme,theme,,,,,,,,,0,15,15,15,,,,,,,,,,,,,,,861.774117226,None,"['t', 'h', 'e', 'm', 'e']",1,"[0.7649781109998912, 0.9329963300001509, 1.084968839999874, 1.2130806539998957, 1.317012622999755]",861.774117226,None,861.7707780183999,None,p04_AK_04042022,001,2022_Apr_04_1027,test_typingtask_norepeats,2020.2.10,123.30318327996194,
edthe,edthe,,,,,,,,,0,16,16,16,,,,,,,,,,,,,,,867.2775979720002,None,"['e', 'd', 't', 'h', 'e']",1,"[1.1814391610000712, 1.3735034989999804, 1.5095403080003962, 1.6694008920003398, 1.733562109000104]",867.2775979720002,None,867.2742746954003,None,p04_AK_04042022,001,2022_Apr_04_1027,test_typingtask_norepeats,2020.2.10,123.30318327996194,
cooed,cooed,,,,,,,,,0,17,17,17,,,,,,,,,,,,,,,872.782125425,None,"['c', 'o', 'o', 'e', 'd']",1,"[0.8928851929999837, 1.1010428439999487, 1.2610095239997463, 1.4290346909997425, 1.6290281229998982]",872.782125425,None,872.7792970264003,None,p04_AK_04042022,001,2022_Apr_04_1027,test_typingtask_norepeats,2020.2.10,123.30318327996194,
think,think,,,,,,,,,0,18,18,18,,,,,,,,,,,,,,,878.2897643029999,None,"['t', 'h', 'i', 'n', 'k']",1,"[0.8493797569999515, 1.017379850999987, 1.1933119230002376, 1.3773694890001025, 1.52938741700018]",878.2897643029999,None,878.2858312704001,None,p04_AK_04042022,001,2022_Apr_04_1027,test_typingtask_norepeats,2020.2.10,123.30318327996194,
theme,theme,,,,,,,,,0,19,19,19,,,,,,,,,,,,,,,883.7975204080001,None,"['t', 'h', 'e', 'm', 'e']",1,"[0.8135978200002683, 0.9816521120001198, 1.2295049000003928, 1.4215928510002414, 1.6055955730003006]",883.7975204080001,None,883.7917049114002,883.8919392790001,p04_AK_04042022,001,2022_Apr_04_1027,test_typingtask_norepeats,2020.2.10,123.30318327996194,
edthe,edthe,,,,,,,,,0,20,20,20,,,,,,,,,,,,,,,889.3009552270003,None,"['e', 'd', 't', 'h', 'e']",1,"[0.8140435910004271, 1.0141920500000197, 1.2382208670001091, 1.3901987950002876, 1.5341498350003349]",889.3009552270003,None,889.2971877724002,None,p04_AK_04042022,001,2022_Apr_04_1027,test_typingtask_norepeats,2020.2.10,123.30318327996194,
vodka,vodka,,,,,,,,,0,21,21,21,,,,,,,,,,,,,,,894.8061985490001,None,"['v', 'o', 'd', 'k', 'a']",1,"[0.8688586000002942, 1.068844960000206, 1.260946580000109, 1.4369406519999757, 1.604962811000405]",894.8061985490001,None,894.8022408444002,None,p04_AK_04042022,001,2022_Apr_04_1027,test_typingtask_norepeats,2020.2.10,123.30318327996194,
haole,haole,,,,,,,,,0,22,22,22,,,,,,,,,,,,,,,900.3105700510002,None,"['h', 'a', 'o', 'l', 'e']",1,"[0.988551975000064, 1.124426466999921, 1.2844346540000515, 1.452449689000332, 1.5565873999998985]",900.3105700510002,None,900.3074185274003,None,p04_AK_04042022,001,2022_Apr_04_1027,test_typingtask_norepeats,2020.2.10,123.30318327996194,
there,there,,,,,,,,,0,23,23,23,,,,,,,,,,,,,,,905.8086773950001,None,"['t', 'h', 'e', 'r', 'e']",1,"[0.8584704099998817, 1.018401079999876, 1.138418119999642, 1.3224446909998733, 1.4984445390000474]",905.8086773950001,None,905.8047822684001,None,p04_AK_04042022,001,2022_Apr_04_1027,test_typingtask_norepeats,2020.2.10,123.30318327996194,
pykka,pykka,,,,,,,,,0,24,24,24,,,,,,,,,,,,,,,911.321454186,None,"['p', 'y', 'k', 'k', 'a']",1,"[0.8655697789999977, 1.1777192889999242, 1.4415701020002416, 1.593673690000287, 1.7456793490000564]",911.321454186,None,911.3174387544003,911.418061478,p04_AK_04042022,001,2022_Apr_04_1027,test_typingtask_norepeats,2020.2.10,123.30318327996194,
would,would,,,,,,,,,0,25,25,25,,,,,,,,,,,,,,,916.8301507080002,None,"['w', 'o', 'u', 'l', 'd']",1,"[0.9489512169998306, 1.1409242390000145, 1.3089540050000323, 1.4689169289999882, 1.6608606839999993]",916.8301507080002,None,916.8256086414002,None,p04_AK_04042022,001,2022_Apr_04_1027,test_typingtask_norepeats,2020.2.10,123.30318327996194,
belly,belly,,,,,,,,,0,26,26,26,,,,,,,,,,,,,,,922.3293972170002,None,"['b', 'e', 'l', 'l', 'y']",1,"[0.7777396589999626, 0.9537385339999673, 1.1696512520002216, 1.313758214000245, 1.529724632000125]",922.3293972170002,None,922.3246668164,922.424273161,p04_AK_04042022,001,2022_Apr_04_1027,test_typingtask_norepeats,2020.2.10,123.30318327996194,
there,there,,,,,,,,,0,27,27,27,,,,,,,,,,,,,,,927.8350685610001,None,"['t', 'h', 'e', 'r', 'e']",1,"[0.8879721190000964, 1.0560606250001001, 1.176096558000154, 1.359985659999893, 1.5680743110001458]",927.8350685610001,None,927.8304927174003,None,p04_AK_04042022,001,2022_Apr_04_1027,test_typingtask_norepeats,2020.2.10,123.30318327996194,
zibja,zibja,,,,,,,,,0,28,28,28,,,,,,,,,,,,,,,933.3357645220001,None,"['z', 'i', 'b', 'j', 'a']",1,"[1.059400683000149, 1.3152369590002309, 1.6033255319998716, 1.7472355800000514, 1.9233497640002497]",933.3357645220001,None,933.3308503853999,933.4306496639999,p04_AK_04042022,001,2022_Apr_04_1027,test_typingtask_norepeats,2020.2.10,123.30318327996194,
cooed,cooed,,,,,,,,,0,29,29,29,,,,,,,,,,,,,,,938.8419763990003,None,"['c', 'o', 'o', 'e', 'd']",1,"[0.8570412580002085, 1.1131665640000392, 1.2811541119999674, 1.4970762369998738, 1.7131361500000821]",938.8419763990003,None,938.8383525684002,None,p04_AK_04042022,001,2022_Apr_04_1027,test_typingtask_norepeats,2020.2.10,123.30318327996194,
cheer,cheer,,,,,,,,,0,30,30,30,,,,,,,,,,,,,,,944.3487332470002,None,"['c', 'h', 'e', 'e', 'r']",1,"[0.838451773000088, 1.0064012849998107, 1.2143752179999865, 1.3984095800001342, 1.5824095389998547]",944.3487332470002,None,944.3451954114001,944.444692631,p04_AK_04042022,001,2022_Apr_04_1027,test_typingtask_norepeats,2020.2.10,123.30318327996194,
vodka,vodka,,,,,,,,,0,31,31,31,,,,,,,,,,,,,,,949.856613535,None,"['v', 'o', 'd', 'k', 'a']",1,"[0.8344702350000262, 1.042427760999999, 1.2745131029996628, 1.4745143969998935, 1.626406219999808]",949.856613535,None,949.8529061704002,None,p04_AK_04042022,001,2022_Apr_04_1027,test_typingtask_norepeats,2020.2.10,123.30318327996194,
kremp,kremp,,,,,,,,,0,32,32,32,,,,,,,,,,,,,,,955.354445916,None,"['k', 'r', 'e', 'm', 'p']",1,"[0.8645614170000044, 1.0567149809999137, 1.248564473999977, 1.3446606079996855, 1.4805566969998836]",955.354445916,None,955.3504632904,None,p04_AK_04042022,001,2022_Apr_04_1027,test_typingtask_norepeats,2020.2.10,123.30318327996194,
buddy,buddy,,,,,,,,,0,33,33,33,,,,,,,,,,,,,,,960.8686096520003,None,"['b', 'u', 'd', 'd', 'y']",1,"[0.8945482620001712, 1.0705378800003018, 1.638555670000187, 1.8304532970000764, 2.062517102000129]",960.8686096520003,None,960.8627774604,960.963936335,p04_AK_04042022,001,2022_Apr_04_1027,test_typingtask_norepeats,2020.2.10,123.30318327996194,
champ,champ,,,,,,,,,0,34,34,34,,,,,,,,,,,,,,,966.3723051100003,None,"['c', 'h', 'a', 'm', 'p']",1,"[0.7827762629999597, 0.9267692979997264, 1.1187489839999216, 1.2867795519996434, 1.3908029199997145]",966.3723051100003,None,966.3680748264,None,p04_AK_04042022,001,2022_Apr_04_1027,test_typingtask_norepeats,2020.2.10,123.30318327996194,
about,about,,,,,,,,,0,35,35,35,,,,,,,,,,,,,,,971.871400879,None,"['a', 'b', 'o', 'u', 't']",1,"[0.9156784199999493, 1.1396972339998683, 1.3317284710001331, 1.5237514079999528, 1.7797497309998107]",971.871400879,None,971.8671235954001,None,p04_AK_04042022,001,2022_Apr_04_1027,test_typingtask_norepeats,2020.2.10,123.30318327996194,
haole,haole,,,,,,,,,0,36,36,36,,,,,,,,,,,,,,,977.374441489,None,"['h', 'a', 'o', 'l', 'e']",1,"[0.908623556999828, 1.1247350200001165, 1.3246798340001078, 1.5246891920000962, 1.668698743999812]",977.374441489,None,977.3716755234003,None,p04_AK_04042022,001,2022_Apr_04_1027,test_typingtask_norepeats,2020.2.10,123.30318327996194,
heond,heond,,,,,,,,,0,37,37,37,,,,,,,,,,,,,,,982.8863703110003,None,"['h', 'e', 'o', 'n', 'd']",1,"[0.9247661250001329, 1.108763437000107, 1.2206454940001095, 1.4367617060001976, 1.9726763039998332]",982.8863703110003,None,982.8827137114002,None,p04_AK_04042022,001,2022_Apr_04_1027,test_typingtask_norepeats,2020.2.10,123.30318327996194,
isvar,isvar,,,,,,,,,0,38,38,38,,,,,,,,,,,,,,,988.397571144,None,"['i', 's', 'v', 'a', 'r']",1,"[1.0695699020002394, 1.2855679900003452, 1.5014674180001748, 1.6214742100000876, 1.789565142000356]",988.397571144,None,988.3924678544003,988.4927919670001,p04_AK_04042022,001,2022_Apr_04_1027,test_typingtask_norepeats,2020.2.10,123.30318327996194,
heond,heond,,,,,,,,,0,39,39,39,,,,,,,,,,,,,,,993.8945067980001,None,"['h', 'e', 'o', 'n', 'd']",1,"[1.26058153699978, 1.404548259999956, 1.5006125579998297, 1.6925598779998836, 1.8367118269998173]",993.8945067980001,None,993.8904493054,None,p04_AK_04042022,001,2022_Apr_04_1027,test_typingtask_norepeats,2020.2.10,123.30318327996194,
haole,haole,,,,,,,,,0,40,40,40,,,,,,,,,,,,,,,999.4044468170002,None,"['h', 'a', 'o', 'l', 'e']",1,"[1.0626889010000014, 1.222677110999939, 1.3506995910001933, 1.5266713010000785, 1.6626468570002544]",999.4044468170002,None,999.4008691314001,None,p04_AK_04042022,001,2022_Apr_04_1027,test_typingtask_norepeats,2020.2.10,123.30318327996194,
lucky,lucky,,,,,,,,,0,41,41,41,,,,,,,,,,,,,,,1004.9045197329999,None,"['l', 'u', 'c', 'k', 'y']",1,"[0.8186107110000194, 1.010606141000153, 1.202590278000116, 1.3146250959998724, 1.5625871369998094]",1004.9045197329999,None,1004.9006808903999,None,p04_AK_04042022,001,2022_Apr_04_1027,test_typingtask_norepeats,2020.2.10,123.30318327996194,
faqir,faqir,,,,,,,,,0,42,42,42,,,,,,,,,,,,,,,1010.413357185,None,"['f', 'a', 'q', 'i', 'r']",1,"[1.0857339149997642, 1.3338634909996472, 1.5577459859996452, 1.6857182079997983, 1.9258451729997432]",1010.413357185,None,1010.4081564823999,1010.5084226000001,p04_AK_04042022,001,2022_Apr_04_1027,test_typingtask_norepeats,2020.2.10,123.30318327996194,
therm,therm,,,,,,,,,0,43,43,43,,,,,,,,,,,,,,,1015.9177435439999,None,"['t', 'h', 'e', 'r', 'm']",1,"[0.8854152989997601, 1.03734170000007, 1.1412642780001079, 1.325389684000129, 1.4614110600000458]",1015.9177435439999,None,1015.9132936974,None,p04_AK_04042022,001,2022_Apr_04_1027,test_typingtask_norepeats,2020.2.10,123.30318327996194,
belly,belly,,,,,,,,,0,44,44,44,,,,,,,,,,,,,,,1021.4232913220001,None,"['b', 'e', 'l', 'l', 'y']",1,"[0.8118580069999553, 0.9717491209999025, 1.2038459330001388, 1.3398088969997843, 1.5957291429999714]",1021.4232913220001,None,1021.4187797344001,None,p04_AK_04042022,001,2022_Apr_04_1027,test_typingtask_norepeats,2020.2.10,123.30318327996194,
tithe,tithe,,,,,,,,,0,45,45,45,,,,,,,,,,,,,,,1026.9239899689999,None,"['t', 'i', 't', 'h', 'e']",1,"[0.9191281739999795, 1.1831443159999253, 1.4550718390000839, 1.631157809999877, 1.7990151930002867]",1026.9239899689999,None,1026.9201136754002,None,p04_AK_04042022,001,2022_Apr_04_1027,test_typingtask_norepeats,2020.2.10,123.30318327996194,
heond,heond,,,,,,,,,0,46,46,46,,,,,,,,,,,,,,,1032.4280080390001,None,"['h', 'e', 'o', 'n', 'd']",1,"[0.9191060009998182, 1.0629876899997726, 1.1350984850000714, 1.3431216109997877, 1.6390337779998845]",1032.4280080390001,None,1032.4236062143998,None,p04_AK_04042022,001,2022_Apr_04_1027,test_typingtask_norepeats,2020.2.10,123.30318327996194,
buddy,buddy,,,,,,,,,0,47,47,47,,,,,,,,,,,,,,,1037.930958263,None,"['b', 'u', 'd', 'd', 'y']",1,"[0.9281088859997908, 1.0881276270001763, 1.4641723109998566, 1.6401405629999317, 1.8240806110002268]",1037.930958263,None,1037.9262608013998,None,p04_AK_04042022,001,2022_Apr_04_1027,test_typingtask_norepeats,2020.2.10,123.30318327996194,
therm,therm,,,,,,,,,0,48,48,48,,,,,,,,,,,,,,,1043.4425685520002,None,"['t', 'h', 'e', 'r', 'm']",1,"[0.8964852049998626, 1.0485980940002264, 1.1845808769999167, 1.3765696030000072, 1.5365641500002312]",1043.4425685520002,None,1043.4379459504,None,p04_AK_04042022,001,2022_Apr_04_1027,test_typingtask_norepeats,2020.2.10,123.30318327996194,
heond,heond,,,,,,,,,0,49,49,49,,,,,,,,,,,,,,,1048.9453768209999,None,"['h', 'e', 'o', 'n', 'd']",1,"[0.8738066300002174, 1.0337738510002055, 1.09770386900027, 1.3136592500000006, 1.5137364340002932]",1048.9453768209999,None,1048.9414379163998,None,p04_AK_04042022,001,2022_Apr_04_1027,test_typingtask_norepeats,2020.2.10,123.30318327996194,
puppy,puppy,,,,,,,,,0,50,50,50,,,,,,,,,,,,,,,1054.451403748,None,"['p', 'u', 'p', 'p', 'y']",1,"[0.895668723000199, 1.1276816529998541, 1.3516456940001262, 1.495643532000031, 1.7516075849998742]",1054.451403748,None,1054.4468727354,1054.54558174,p04_AK_04042022,001,2022_Apr_04_1027,test_typingtask_norepeats,2020.2.10,123.30318327996194,
champ,champ,,,,,,,,,0,51,51,51,,,,,,,,,,,,,,,1059.95845588,None,"['c', 'h', 'a', 'm', 'p']",1,"[0.7806660010000996, 0.908681642999909, 1.1086804670003403, 1.2365641740002502, 1.3486359349999475]",1059.95845588,None,1059.9537319724002,1060.0552611370001,p04_AK_04042022,001,2022_Apr_04_1027,test_typingtask_norepeats,2020.2.10,123.30318327996194,
druze,druze,,,,,,,,,0,52,52,52,,,,,,,,,,,,,,,1065.4709980620003,None,"['d', 'r', 'u', 'z', 'e']",1,"[0.8760030600001301, 1.068138502000238, 1.2521489790001397, 1.5160503860001882, 1.7481426100002864]",1065.4709980620003,None,1065.4669767064,None,p04_AK_04042022,001,2022_Apr_04_1027,test_typingtask_norepeats,2020.2.10,123.30318327996194,
cooed,cooed,,,,,,,,,0,53,53,53,,,,,,,,,,,,,,,1070.973605169,None,"['c', 'o', 'o', 'e', 'd']",1,"[0.8215519590003169, 1.0135434680000799, 1.1815374350003367, 1.3655400220000047, 1.573551573000259]",1070.973605169,None,1070.9690536884002,None,p04_AK_04042022,001,2022_Apr_04_1027,test_typingtask_norepeats,2020.2.10,123.30318327996194,
pykka,pykka,,,,,,,,,0,54,54,54,,,,,,,,,,,,,,,1076.4863866460003,None,"['p', 'y', 'k', 'k', 'a']",1,"[0.9007390060000944, 1.1806671970002753, 1.4846633750003093, 1.6447582810001222, 1.8927550670000528]",1076.4863866460003,None,1076.4812807244,1076.5802353269999,p04_AK_04042022,001,2022_Apr_04_1027,test_typingtask_norepeats,2020.2.10,123.30318327996194,
tithe,tithe,,,,,,,,,0,55,55,55,,,,,,,,,,,,,,,1081.9859859750002,None,"['t', 'i', 't', 'h', 'e']",1,"[0.8810832069998469, 1.3050561569998536, 1.5290910079997957, 1.7051185300001634, 1.8650930339999832]",1081.9859859750002,None,1081.9817557183999,None,p04_AK_04042022,001,2022_Apr_04_1027,test_typingtask_norepeats,2020.2.10,123.30318327996194,
haole,haole,,,,,,,,,0,56,56,56,,,,,,,,,,,,,,,1087.4933066410001,None,"['h', 'a', 'o', 'l', 'e']",1,"[0.9017624099997192, 1.0617102020000857, 1.1578218649997325, 1.333821713999896, 1.4378199279999535]",1087.4933066410001,None,1087.4894675864,None,p04_AK_04042022,001,2022_Apr_04_1027,test_typingtask_norepeats,2020.2.10,123.30318327996194,
isvar,isvar,,,,,,,,,0,57,57,57,,,,,,,,,,,,,,,1093.001799343,None,"['i', 's', 'v', 'a', 'r']",1,"[0.8413300700003674, 1.0572066240001732, 1.2173056780002298, 1.321292817000085, 1.4654128970000784]",1093.001799343,None,1092.9959153644002,1093.0956495490002,p04_AK_04042022,001,2022_Apr_04_1027,test_typingtask_norepeats,2020.2.10,123.30318327996194,
pykka,pykka,,,,,,,,,0,58,58,58,,,,,,,,,,,,,,,1098.5081776120003,None,"['p', 'y', 'k', 'k', 'a']",1,"[0.9348648560003312, 1.2309589200003757, 1.542861398000241, 1.6869475800003784, 1.894967994000126]",1098.5081776120003,None,1098.5044911664002,1098.605375641,p04_AK_04042022,001,2022_Apr_04_1027,test_typingtask_norepeats,2020.2.10,123.30318327996194,
think,think,,,,,,,,,0,59,59,59,,,,,,,,,,,,,,,1104.0149431810003,None,"['t', 'h', 'i', 'n', 'k']",1,"[0.7802332490000481, 0.9801830500000506, 1.1882072010002958, 1.372163171000011, 1.5002281850001964]",1104.0149431810003,None,1104.0122246934,None,p04_AK_04042022,001,2022_Apr_04_1027,test_typingtask_norepeats,2020.2.10,123.30318327996194,
theme,theme,,,,,,,,,0,60,60,60,,,,,,,,,,,,,,,1109.5195175690003,None,"['t', 'h', 'e', 'm', 'e']",1,"[0.8436311340001339, 1.0196198819999154, 1.275661250000212, 1.4596362709999084, 1.8596228119999978]",1109.5195175690003,None,1109.5152321904,None,p04_AK_04042022,001,2022_Apr_04_1027,test_typingtask_norepeats,2020.2.10,123.30318327996194,
vodka,vodka,,,,,,,,,0,61,61,61,,,,,,,,,,,,,,,1115.0263486800002,None,"['v', 'o', 'd', 'k', 'a']",1,"[0.8726612699997531, 1.024783682999896, 1.2407757659998424, 1.4088082690000192, 1.5528014609999445]",1115.0263486800002,None,1115.0225628264,None,p04_AK_04042022,001,2022_Apr_04_1027,test_typingtask_norepeats,2020.2.10,123.30318327996194,
kremp,kremp,,,,,,,,,0,62,62,62,,,,,,,,,,,,,,,1120.53777548,None,"['k', 'r', 'e', 'm', 'p']",1,"[0.9373832330002188, 1.1692465820001416, 1.345240019999892, 1.4812363050000386, 1.5933687669999017]",1120.53777548,None,1120.5331953714,None,p04_AK_04042022,001,2022_Apr_04_1027,test_typingtask_norepeats,2020.2.10,123.30318327996194,
isvar,isvar,,,,,,,,,0,63,63,63,,,,,,,,,,,,,,,1126.045213445,None,"['i', 's', 'v', 'a', 'r']",1,"[0.8378598999997848, 1.0299432279998655, 1.2219528249997893, 1.2938277539997216, 1.469785297999806]",1126.045213445,None,1126.0403566923999,1126.141052672,p04_AK_04042022,001,2022_Apr_04_1027,test_typingtask_norepeats,2020.2.10,123.30318327996194,
therm,therm,,,,,,,,,0,64,64,64,,,,,,,,,,,,,,,1131.5518756560002,None,"['t', 'h', 'e', 'r', 'm']",1,"[0.8512483389999943, 1.0032396869996774, 1.1792256669996277, 1.3872550669998418, 1.5472499379998226]",1131.5518756560002,None,1131.5476262114,None,p04_AK_04042022,001,2022_Apr_04_1027,test_typingtask_norepeats,2020.2.10,123.30318327996194,
druze,druze,,,,,,,,,0,65,65,65,,,,,,,,,,,,,,,1137.0528558590001,None,"['d', 'r', 'u', 'z', 'e']",1,"[0.8942149340000469, 1.086304274000213, 1.3502806260003126, 1.5982741960001476, 1.8621914129998913]",1137.0528558590001,None,1137.0483701744,1137.148254818,p04_AK_04042022,001,2022_Apr_04_1027,test_typingtask_norepeats,2020.2.10,123.30318327996194,
about,about,,,,,,,,,0,66,66,66,,,,,,,,,,,,,,,1142.5530613409999,None,"['a', 'b', 'o', 'u', 't']",1,"[0.8260350280002058, 1.0179767710001215, 1.233954464999897, 1.4100698170000214, 1.6419682850000754]",1142.5530613409999,None,1142.5481675464,None,p04_AK_04042022,001,2022_Apr_04_1027,test_typingtask_norepeats,2020.2.10,123.30318327996194,
think,think,,,,,,,,,0,67,67,67,,,,,,,,,,,,,,,1148.060770766,None,"['t', 'h', 'i', 'n', 'k']",1,"[0.8623715620001349, 1.046387723999942, 1.2222643869999956, 1.382351362999998, 1.4942307810001694]",1148.060770766,None,1148.0566509704001,None,p04_AK_04042022,001,2022_Apr_04_1027,test_typingtask_norepeats,2020.2.10,123.30318327996194,
champ,champ,,,,,,,,,0,68,68,68,,,,,,,,,,,,,,,1153.568367046,None,"['c', 'h', 'a', 'm', 'p']",1,"[0.7387751830001434, 0.8826549689997591, 1.0667716970001493, 1.2266413140000623, 1.3547686829997474]",1153.568367046,None,1153.5633397614,1153.663051671,p04_AK_04042022,001,2022_Apr_04_1027,test_typingtask_norepeats,2020.2.10,123.30318327996194,
cooed,cooed,,,,,,,,,0,69,69,69,,,,,,,,,,,,,,,1159.071105526,None,"['c', 'o', 'o', 'e', 'd']",1,"[0.8040769130002445, 1.011949143000038, 1.1560412650001126, 1.2760386350000772, 1.4999153280000428]",1159.071105526,None,1159.0663221093998,1159.165950666,p04_AK_04042022,001,2022_Apr_04_1027,test_typingtask_norepeats,2020.2.10,123.30318327996194,
think,think,,,,,,,,,0,70,70,70,,,,,,,,,,,,,,,1164.5777869209999,None,"['t', 'h', 'i', 'n', 'k']",1,"[0.8651919600001747, 1.049186931999884, 1.2173023720001765, 1.3692004409999754, 1.4811912649997794]",1164.5777869209999,None,1164.5738093864,None,p04_AK_04042022,001,2022_Apr_04_1027,test_typingtask_norepeats,2020.2.10,123.30318327996194,
druze,druze,,,,,,,,,0,71,71,71,,,,,,,,,,,,,,,1170.082061365,None,"['d', 'r', 'u', 'z', 'e']",1,"[0.7849556850001136, 1.0650812609997047, 1.2170772439999382, 1.5369568179999078, 1.8890377519996946]",1170.082061365,None,1170.0787871954,1170.178169637,p04_AK_04042022,001,2022_Apr_04_1027,test_typingtask_norepeats,2020.2.10,123.30318327996194,
pykka,pykka,,,,,,,,,0,72,72,72,,,,,,,,,,,,,,,1175.5827027110001,None,"['p', 'y', 'k', 'k', 'a']",1,"[0.8684314279998944, 1.1803772989997015, 1.4844397359997856, 1.6443952999998146, 1.82047210599967]",1175.5827027110001,None,1175.5802159314,None,p04_AK_04042022,001,2022_Apr_04_1027,test_typingtask_norepeats,2020.2.10,123.30318327996194,
there,there,,,,,,,,,0,73,73,73,,,,,,,,,,,,,,,1181.096852512,None,"['t', 'h', 'e', 'r', 'e']",1,"[0.7782553090000874, 0.9542323000000579, 1.098285921000297, 1.3142567170002621, 1.4982040950003466]",1181.096852512,None,1181.0921923714002,None,p04_AK_04042022,001,2022_Apr_04_1027,test_typingtask_norepeats,2020.2.10,123.30318327996194,
cooed,cooed,,,,,,,,,0,74,74,74,,,,,,,,,,,,,,,1186.60364061,None,"['c', 'o', 'o', 'e', 'd']",1,"[0.7674732980003682, 0.9835058230000868, 1.1353824920001898, 1.2795646170002328, 1.5035074110001005]",1186.60364061,None,1186.5998288673998,None,p04_AK_04042022,001,2022_Apr_04_1027,test_typingtask_norepeats,2020.2.10,123.30318327996194,
tithe,tithe,,,,,,,,,0,75,75,75,,,,,,,,,,,,,,,1192.1017902330002,None,"['t', 'i', 't', 'h', 'e']",1,"[0.837284116000319, 1.0212868410003466, 1.1653379449999193, 1.3093064640002012, 1.501356880000003]",1192.1017902330002,None,1192.0972151324002,1192.1964310629999,p04_AK_04042022,001,2022_Apr_04_1027,test_typingtask_norepeats,2020.2.10,123.30318327996194,
cheer,cheer,,,,,,,,,0,76,76,76,,,,,,,,,,,,,,,1197.614656982,None,"['c', 'h', 'e', 'e', 'r']",1,"[0.820450234999953, 0.95649711499982, 1.1403468909998082, 1.3004315089997363, 1.4924170799999956]",1197.614656982,None,1197.6103605664,None,p04_AK_04042022,001,2022_Apr_04_1027,test_typingtask_norepeats,2020.2.10,123.30318327996194,
theme,theme,,,,,,,,,0,77,77,77,,,,,,,,,,,,,,,1203.1096485340001,None,"['t', 'h', 'e', 'm', 'e']",1,"[0.7974307100002989, 0.9813560850002432, 1.1413807190001535, 1.2534062849999827, 1.3815236400000686]",1203.1096485340001,None,1203.1054395354001,None,p04_AK_04042022,001,2022_Apr_04_1027,test_typingtask_norepeats,2020.2.10,123.30318327996194,
about,about,,,,,,,,,0,78,78,78,,,,,,,,,,,,,,,1208.6196249480001,None,"['a', 'b', 'o', 'u', 't']",1,"[0.8234226689996831, 0.9913919519999581, 1.191423321000002, 1.3434974329998113, 1.5275452229998336]",1208.6196249480001,None,1208.6149362534,1208.713996785,p04_AK_04042022,001,2022_Apr_04_1027,test_typingtask_norepeats,2020.2.10,123.30318327996194,
puppy,puppy,,,,,,,,,0,79,79,79,,,,,,,,,,,,,,,1214.120430406,None,"['p', 'u', 'p', 'p', 'y']",1,"[0.9146869410001273, 1.1625821560000986, 1.3866984109999976, 1.5227162520000093, 1.7706997459999911]",1214.120430406,None,1214.1163767914002,None,p04_AK_04042022,001,2022_Apr_04_1027,test_typingtask_norepeats,2020.2.10,123.30318327996194,
there,there,,,,,,,,,0,80,80,80,,,,,,,,,,,,,,,1219.619511791,None,"['t', 'h', 'e', 'r', 'e']",1,"[0.8315313680000145, 1.0156378939996102, 1.1275894039999912, 1.3195842269997229, 1.4876043469998876]",1219.619511791,None,1219.6158080963999,None,p04_AK_04042022,001,2022_Apr_04_1027,test_typingtask_norepeats,2020.2.10,123.30318327996194,
tithe,tithe,,,,,,,,,0,81,81,81,,,,,,,,,,,,,,,1225.1244524740002,None,"['t', 'i', 't', 'h', 'e']",1,"[0.7906865059999291, 0.9426947319998362, 1.0866718039997068, 1.1906142259999797, 1.4386012609998033]",1225.1244524740002,None,1225.1208162333999,None,p04_AK_04042022,001,2022_Apr_04_1027,test_typingtask_norepeats,2020.2.10,123.30318327996194,
lucky,lucky,,,,,,,,,0,82,82,82,,,,,,,,,,,,,,,1230.631462903,None,"['l', 'u', 'c', 'k', 'y']",1,"[0.7796645290000015, 0.9956447280001157, 1.179701059999843, 1.3075491340000553, 1.531668376000198]",1230.631462903,None,1230.6288436744,None,p04_AK_04042022,001,2022_Apr_04_1027,test_typingtask_norepeats,2020.2.10,123.30318327996194,
champ,champ,,,,,,,,,0,83,83,83,,,,,,,,,,,,,,,1236.131488246,None,"['c', 'h', 'a', 'm', 'p']",1,"[0.8156677590000072, 0.9435863420003443, 1.1275477890003458, 1.2956271800003378, 1.4075308030000997]",1236.131488246,None,1236.1264406444,1236.2269133830002,p04_AK_04042022,001,2022_Apr_04_1027,test_typingtask_norepeats,2020.2.10,123.30318327996194,
druze,druze,,,,,,,,,0,84,84,84,,,,,,,,,,,,,,,1241.6359913180002,None,"['d', 'r', 'u', 'z', 'e']",1,"[0.7910875350003153, 0.9911323650003396, 1.1910843380001097, 1.3991412970003694, 1.6550867380001364]",1241.6359913180002,None,1241.6311575953998,1241.7305482110003,p04_AK_04042022,001,2022_Apr_04_1027,test_typingtask_norepeats,2020.2.10,123.30318327996194,
therm,therm,,,,,,,,,0,85,85,85,,,,,,,,,,,,,,,1247.1380181320003,None,"['t', 'h', 'e', 'r', 'm']",1,"[0.8971276319998651, 1.0812109710000186, 1.2410370769998735, 1.417057861000103, 1.5931195119997028]",1247.1380181320003,None,1247.1336592514,None,p04_AK_04042022,001,2022_Apr_04_1027,test_typingtask_norepeats,2020.2.10,123.30318327996194,
kremp,kremp,,,,,,,,,0,86,86,86,,,,,,,,,,,,,,,1252.652978886,None,"['k', 'r', 'e', 'm', 'p']",1,"[0.9341343240002971, 1.1420610510003826, 1.3580296620002628, 1.5101841550003883, 1.65417874700006]",1252.652978886,None,1252.6476830334002,1252.747135667,p04_AK_04042022,001,2022_Apr_04_1027,test_typingtask_norepeats,2020.2.10,123.30318327996194,
cheer,cheer,,,,,,,,,0,87,87,87,,,,,,,,,,,,,,,1258.1489833430003,None,"['c', 'h', 'e', 'e', 'r']",1,"[0.8221517910001239, 0.9580783080000401, 1.1661337539999295, 1.3340392600002815, 1.5420162160003201]",1258.1489833430003,None,1258.1457448203998,None,p04_AK_04042022,001,2022_Apr_04_1027,test_typingtask_norepeats,2020.2.10,123.30318327996194,
isvar,isvar,,,,,,,,,0,88,88,88,,,,,,,,,,,,,,,1263.660291646,None,"['i', 's', 'v', 'a', 'r']",1,"[0.9028961300000446, 1.0787975210000695, 1.3027887970001757, 1.398819259999982, 1.5347819050002727]",1263.660291646,None,1263.6548293643998,1263.7576400760001,p04_AK_04042022,001,2022_Apr_04_1027,test_typingtask_norepeats,2020.2.10,123.30318327996194,
would,would,,,,,,,,,0,89,89,89,,,,,,,,,,,,,,,1269.1688474160003,None,"['w', 'o', 'u', 'l', 'd']",1,"[0.8582971369996812, 1.0661520429998745, 1.2181703040000684, 1.3862773910000215, 1.554300972999954]",1269.1688474160003,None,1269.1638585514,1269.2635326729999,p04_AK_04042022,001,2022_Apr_04_1027,test_typingtask_norepeats,2020.2.10,123.30318327996194,
cheer,cheer,,,,,,,,,0,90,90,90,,,,,,,,,,,,,,,1274.6720745,None,"['c', 'h', 'e', 'e', 'r']",1,"[0.8110609850000401, 0.9630627139999888, 1.139056705999792, 1.3150267050000366, 1.499030945999948]",1274.6720745,None,1274.6669329263998,None,p04_AK_04042022,001,2022_Apr_04_1027,test_typingtask_norepeats,2020.2.10,123.30318327996194,
edthe,edthe,,,,,,,,,0,91,91,91,,,,,,,,,,,,,,,1280.1739625900002,None,"['e', 'd', 't', 'h', 'e']",1,"[0.7650960360001591, 0.9730435520000356, 1.141176367999833, 1.3011738420000256, 1.3651991299998372]",1280.1739625900002,None,1280.1710960324,None,p04_AK_04042022,001,2022_Apr_04_1027,test_typingtask_norepeats,2020.2.10,123.30318327996194,
would,would,,,,,,,,,0,92,92,92,,,,,,,,,,,,,,,1285.6716698830003,None,"['w', 'o', 'u', 'l', 'd']",1,"[0.8434063640002023, 1.0114342990000296, 1.147473244000139, 1.2994351550000829, 1.4514192650003679]",1285.6716698830003,None,1285.6680009084,None,p04_AK_04042022,001,2022_Apr_04_1027,test_typingtask_norepeats,2020.2.10,123.30318327996194,
zibja,zibja,,,,,,,,,0,93,93,93,,,,,,,,,,,,,,,1291.1798476249999,None,"['z', 'i', 'b', 'j', 'a']",1,"[0.9912245680002343, 1.223301291000098, 1.4392439070002183, 1.5672992200002227, 1.7191654990001553]",1291.1798476249999,None,1291.1748463423999,1291.277453677,p04_AK_04042022,001,2022_Apr_04_1027,test_typingtask_norepeats,2020.2.10,123.30318327996194,
edthe,edthe,,,,,,,,,0,94,94,94,,,,,,,,,,,,,,,1296.681838354,None,"['e', 'd', 't', 'h', 'e']",1,"[0.7692334859998482, 0.9771832940000422, 1.1452860760000476, 1.2972161960001358, 1.3853426679997938]",1296.681838354,None,1296.6792793264,None,p04_AK_04042022,001,2022_Apr_04_1027,test_typingtask_norepeats,2020.2.10,123.30318327996194,
buddy,buddy,,,,,,,,,0,95,95,95,,,,,,,,,,,,,,,1302.1866201220002,None,"['b', 'u', 'd', 'd', 'y']",1,"[0.8884784310002942, 1.016393330000028, 1.1925121640001635, 1.3683946969999852, 1.4964409520002846]",1302.1866201220002,None,1302.1820424664,1302.281213337,p04_AK_04042022,001,2022_Apr_04_1027,test_typingtask_norepeats,2020.2.10,123.30318327996194,
heond,heond,,,,,,,,,0,96,96,96,,,,,,,,,,,,,,,1307.6909305730003,None,"['h', 'e', 'o', 'n', 'd']",1,"[0.8641412370002399, 0.9842137260002346, 1.0560858080002617, 1.232211701000324, 1.3121779269999934]",1307.6909305730003,None,1307.6876933164,None,p04_AK_04042022,001,2022_Apr_04_1027,test_typingtask_norepeats,2020.2.10,123.30318327996194,
puppy,puppy,,,,,,,,,0,97,97,97,,,,,,,,,,,,,,,1313.1877056670003,None,"['p', 'u', 'p', 'p', 'y']",1,"[0.8474021140000332, 1.071411937999983, 1.2553005710001344, 1.399449347999962, 1.687308185999882]",1313.1877056670003,None,1313.1833039644,None,p04_AK_04042022,001,2022_Apr_04_1027,test_typingtask_norepeats,2020.2.10,123.30318327996194,
faqir,faqir,,,,,,,,,0,98,98,98,,,,,,,,,,,,,,,1318.6922826460002,None,"['f', 'a', 'q', 'i', 'r']",1,"[0.9428809589999219, 1.0788679649999722, 1.3028953049997654, 1.462750928999867, 1.6468521429997054]",1318.6922826460002,None,1318.6874226464,1318.7889220270001,p04_AK_04042022,001,2022_Apr_04_1027,test_typingtask_norepeats,2020.2.10,123.30318327996194,
tithe,tithe,,,,,,,,,0,99,99,99,,,,,,,,,,,,,,,1324.191572431,None,"['t', 'i', 't', 'h', 'e']",1,"[0.8514488050000182, 1.01150322400008, 1.1556543480000983, 1.259663692000231, 1.4674377090000235]",1324.191572431,None,1324.1879765764,1324.2889430400003,p04_AK_04042022,001,2022_Apr_04_1027,test_typingtask_norepeats,2020.2.10,123.30318327996194,
faqir,faqir,,,,,,,,,0,100,100,100,,,,,,,,,,,,,,,1329.710328036,None,"['f', 'a', 'q', 'i', 'r']",1,"[0.8447425330000442, 0.9647839509998448, 1.3086827669999366, 1.4926811270001963, 1.6927071350000915]",1329.710328036,None,1329.7058249753998,1329.8056737660002,p04_AK_04042022,001,2022_Apr_04_1027,test_typingtask_norepeats,2020.2.10,123.30318327996194,
vodka,vodka,,,,,,,,,0,101,101,101,,,,,,,,,,,,,,,1335.208810028,None,"['v', 'o', 'd', 'k', 'a']",1,"[0.8502096800002619, 1.018329967000227, 1.2102168280002843, 1.4263361590001296, 1.4662775430001602]",1335.208810028,None,1335.2056988344,None,p04_AK_04042022,001,2022_Apr_04_1027,test_typingtask_norepeats,2020.2.10,123.30318327996194,
pykka,pykka,,,,,,,,,0,102,102,102,,,,,,,,,,,,,,,1340.716232568,None,"['p', 'y', 'k', 'k', 'a']",1,"[0.8068615570000475, 1.1348988609997832, 1.4068954729996221, 1.5588328239996372, 1.7268634509996446]",1340.716232568,None,1340.7132837374,1340.8120194790001,p04_AK_04042022,001,2022_Apr_04_1027,test_typingtask_norepeats,2020.2.10,123.30318327996194,
think,think,,,,,,,,,0,103,103,103,,,,,,,,,,,,,,,1346.2149328379999,None,"['t', 'h', 'i', 'n', 'k']",1,"[0.780110238999896, 0.948215257999891, 1.1241295489999175, 1.2762150829998973, 1.3640694010000516]",1346.2149328379999,None,1346.2101064604,None,p04_AK_04042022,001,2022_Apr_04_1027,test_typingtask_norepeats,2020.2.10,123.30318327996194,
druze,druze,,,,,,,,,0,104,104,104,,,,,,,,,,,,,,,1351.728424146,None,"['d', 'r', 'u', 'z', 'e']",1,"[0.8586414090000289, 1.0506426930000998, 1.250660672000322, 1.4747140480003509, 1.7387228659999892]",1351.728424146,None,1351.7239624514002,None,p04_AK_04042022,001,2022_Apr_04_1027,test_typingtask_norepeats,2020.2.10,123.30318327996194,
haole,haole,,,,,,,,,0,105,105,105,,,,,,,,,,,,,,,1357.2357339420003,None,"['h', 'a', 'o', 'l', 'e']",1,"[0.9593112359998486, 1.0954418849996728, 1.239372636999633, 1.4073890579998078, 1.503384898999684]",1357.2357339420003,None,1357.2312208244,None,p04_AK_04042022,001,2022_Apr_04_1027,test_typingtask_norepeats,2020.2.10,123.30318327996194,
about,about,,,,,,,,,0,106,106,106,,,,,,,,,,,,,,,1362.7386083920003,None,"['a', 'b', 'o', 'u', 't']",1,"[0.9845385670000724, 1.1443842970002152, 1.3444182580001325, 1.5045195560001048, 1.696429782999985]",1362.7386083920003,None,1362.7348672664,None,p04_AK_04042022,001,2022_Apr_04_1027,test_typingtask_norepeats,2020.2.10,123.30318327996194,
edthe,edthe,,,,,,,,,0,107,107,107,,,,,,,,,,,,,,,1368.244090558,None,"['e', 'd', 't', 'h', 'e']",1,"[0.8310115189997305, 1.0149623899997096, 1.1349499269999797, 1.2870521359996019, 1.3670351219998338]",1368.244090558,None,1368.2401842684,None,p04_AK_04042022,001,2022_Apr_04_1027,test_typingtask_norepeats,2020.2.10,123.30318327996194,
faqir,faqir,,,,,,,,,0,108,108,108,,,,,,,,,,,,,,,1373.7533584310002,None,"['f', 'a', 'q', 'i', 'r']",1,"[0.8736882569996851, 1.0178039819998048, 1.225738645999627, 1.3697240599999532, 1.5538302079999085]",1373.7533584310002,None,1373.7481607103998,1373.84742756,p04_AK_04042022,001,2022_Apr_04_1027,test_typingtask_norepeats,2020.2.10,123.30318327996194,
therm,therm,,,,,,,,,0,109,109,109,,,,,,,,,,,,,,,1379.2496958090003,None,"['t', 'h', 'e', 'r', 'm']",1,"[0.8093719299999975, 0.9533556329997737, 1.0653226310000719, 1.2574514019997878, 1.4253227889998925]",1379.2496958090003,None,1379.2470029984,None,p04_AK_04042022,001,2022_Apr_04_1027,test_typingtask_norepeats,2020.2.10,123.30318327996194,
belly,belly,,,,,,,,,0,110,110,110,,,,,,,,,,,,,,,1384.7471398710002,None,"['b', 'e', 'l', 'l', 'y']",1,"[0.7199686540002403, 0.8719680170001993, 1.0479508570001599, 1.1759499540003162, 1.3760274989999743]",1384.7471398710002,None,1384.7422330344,1384.841743756,p04_AK_04042022,001,2022_Apr_04_1027,test_typingtask_norepeats,2020.2.10,123.30318327996194,
isvar,isvar,,,,,,,,,0,111,111,111,,,,,,,,,,,,,,,1390.258117921,None,"['i', 's', 'v', 'a', 'r']",1,"[0.8249421290001919, 0.993008404000193, 1.1770258760002434, 1.2809690910003155, 1.4330183890001535]",1390.258117921,None,1390.2540826194002,1390.3545371810003,p04_AK_04042022,001,2022_Apr_04_1027,test_typingtask_norepeats,2020.2.10,123.30318327996194,
puppy,puppy,,,,,,,,,0,112,112,112,,,,,,,,,,,,,,,1395.7624484320002,None,"['p', 'u', 'p', 'p', 'y']",1,"[1.0645513479998954, 1.2726649049996013, 1.4965472099997896, 1.648625004999758, 1.9045725490000223]",1395.7624484320002,None,1395.7577915404001,1395.857956141,p04_AK_04042022,001,2022_Apr_04_1027,test_typingtask_norepeats,2020.2.10,123.30318327996194,
vodka,vodka,,,,,,,,,0,113,113,113,,,,,,,,,,,,,,,1401.2721938420002,None,"['v', 'o', 'd', 'k', 'a']",1,"[0.9869985919999635, 1.2268816499999957, 1.4109519059998092, 1.5789466000001084, 1.6909408769997754]",1401.2721938420002,None,1401.2683943664,None,p04_AK_04042022,001,2022_Apr_04_1027,test_typingtask_norepeats,2020.2.10,123.30318327996194,
there,there,,,,,,,,,0,114,114,114,,,,,,,,,,,,,,,1406.776936179,None,"['t', 'h', 'e', 'r', 'e']",1,"[0.8501662329999817, 1.0182156470000336, 1.1622135220000018, 1.3781998709996515, 1.5621990329996152]",1406.776936179,None,1406.7731073704,None,p04_AK_04042022,001,2022_Apr_04_1027,test_typingtask_norepeats,2020.2.10,123.30318327996194,
belly,belly,,,,,,,,,0,115,115,115,,,,,,,,,,,,,,,1412.281166375,None,"['b', 'e', 'l', 'l', 'y']",1,"[0.7859451529998296, 0.9458399710001686, 1.1059638430001542, 1.2499664709998797, 1.489980143000139]",1412.281166375,None,1412.2761645113999,1412.378052404,p04_AK_04042022,001,2022_Apr_04_1027,test_typingtask_norepeats,2020.2.10,123.30318327996194,
kremp,kremp,,,,,,,,,0,116,116,116,,,,,,,,,,,,,,,1417.77936996,None,"['k', 'r', 'e', 'm', 'p']",1,"[0.8957752999999684, 1.1117037369999707, 1.2877206189996286, 1.4637328609996985, 1.5917646309999327]",1417.77936996,None,1417.7757338744002,None,p04_AK_04042022,001,2022_Apr_04_1027,test_typingtask_norepeats,2020.2.10,123.30318327996194,
would,would,,,,,,,,,0,117,117,117,,,,,,,,,,,,,,,1423.2882613190002,None,"['w', 'o', 'u', 'l', 'd']",1,"[0.7868461019997994, 0.9948921209997934, 1.1468836409999312, 1.298880926000038, 1.442862034999962]",1423.2882613190002,None,1423.2836752084002,None,p04_AK_04042022,001,2022_Apr_04_1027,test_typingtask_norepeats,2020.2.10,123.30318327996194,
zibja,zibja,,,,,,,,,0,118,118,118,,,,,,,,,,,,,,,1428.803021116,None,"['z', 'i', 'b', 'j', 'a']",1,"[1.008163642999989, 1.208115135999833, 1.4799918530002287, 1.6001099089999116, 1.768152543999804]",1428.803021116,None,1428.7983914574,1428.89823069,p04_AK_04042022,001,2022_Apr_04_1027,test_typingtask_norepeats,2020.2.10,123.30318327996194,
theme,theme,,,,,,,,,0,119,119,119,,,,,,,,,,,,,,,1434.303159295,None,"['t', 'h', 'e', 'm', 'e']",1,"[0.883927993999805, 1.0519113850000394, 1.2039683379998678, 1.315845506000187, 1.4599729219999062]",1434.303159295,None,1434.2984453324,1434.39804686,p04_AK_04042022,001,2022_Apr_04_1027,test_typingtask_norepeats,2020.2.10,123.30318327996194,
