,sID,Trial #,string,bi_1,bi_2,bi_3,bi_4,key_resp.keys.1,key_resp.keys.2,key_resp.keys.3,key_resp.keys.4,key_resp.keys.5,key_resp.keys.6,key_resp.keys.7,key_resp.rt.1,key_resp.rt.2,key_resp.rt.3,key_resp.rt.4,key_resp.rt.5,key_resp.rt.6,key_resp.rt.7,resp_string,WF Type,BF Type
0,83,0,faqir,fa,aq,qi,ir,f,a,q,u,i,r,space,0.776513110846281,1.3125112038105726,1.6004348541609943,1.8565499358810484,2.0565158440731466,2.4405303332023323,3.336453589145094,faquirspace,lowwf,lowbf
1,83,1,buddy,bu,ud,dd,dy,b,u,d,d,y,,,0.9891649540513754,1.2371817077510059,1.5011144718155265,1.629108587745577,1.8211726769804955,0.0,0.0,buddy,highwf,lowbf
2,83,2,puppy,pu,up,pp,py,p,u,p,p,y,,,1.0013953782618046,1.2332997103221714,2.329308602027595,2.4733789460733533,2.593288779258728,0.0,0.0,puppy,medwf,lowbf
3,83,3,haole,ha,ao,ol,le,h,a,o,l,e,,,0.8295734650455415,1.2376692998223007,1.5095583978109062,1.7095562820322812,1.7976525956764817,0.0,0.0,haole,lowwf,medbf
4,83,4,therm,th,he,er,rm,t,h,e,r,m,,,0.7855328163132071,0.9294991539791226,1.1374479793012142,1.2495606429874897,1.4014973561279476,0.0,0.0,therm,lowwf,highbf
5,83,5,there,th,he,er,re,t,h,e,r,e,,,0.6535685230046511,0.7974914750084281,0.9015689170919359,0.9975146614015102,1.1254458562470973,0.0,0.0,there,highwf,highbf
6,83,6,belly,be,el,ll,ly,b,e,l,l,y,,,0.7053195158950984,1.0013500661589205,1.2253072471357882,1.3774047149345279,1.4733823710121214,0.0,0.0,belly,medwf,medbf
7,83,7,think,th,hi,in,nk,t,h,i,n,k,,,0.7172022233717144,0.9092118972912431,1.0692938519641757,1.2692533740773797,1.4533153921365738,0.0,0.0,think,highwf,highbf
8,83,8,vodka,vo,od,dk,ka,v,o,d,k,a,,,0.8655782057903707,1.0815615439787507,1.4255666858516634,1.5775059079751372,1.745604510884732,0.0,0.0,vodka,medwf,lowbf
9,83,9,faqir,fa,aq,qi,ir,f,a,q,i,r,,,0.885635114274919,1.3015501513145864,1.6376919280737638,1.9015515963546932,2.053616809193045,0.0,0.0,faqir,lowwf,lowbf
10,83,10,tithe,ti,it,th,he,t,i,t,h,e,,,0.9217514800839126,1.0896656732074916,1.209642309229821,1.3376890309154987,1.4577622739598155,0.0,0.0,tithe,lowwf,highbf
11,83,11,faqir,fa,aq,qi,ir,f,a,q,i,r,,,0.7496582013554871,1.1336561222560704,1.3496308350004256,1.5736479670740664,1.7175547564402223,0.0,0.0,faqir,lowwf,lowbf
12,83,12,tithe,ti,it,th,he,t,i,t,h,e,,,0.7536875018849969,0.8895841049961746,1.0175737319514155,1.1536736506968737,1.257650785613805,0.0,0.0,tithe,lowwf,highbf
13,83,13,puppy,pu,up,pp,py,p,u,p,p,y,,,0.9574213279411197,1.173384577035904,1.6854209220036864,1.8213245389051735,1.9494079761207104,0.0,0.0,puppy,medwf,lowbf
14,83,14,pykka,py,yk,kk,ka,p,y,k,k,a,,,1.0334177911281586,1.5853925980627537,1.9854176421649754,2.129334851168096,2.2253564703278244,0.0,0.0,pykka,pseudo,lowbf
15,83,15,cooed,co,oo,oe,ed,c,o,o,e,d,,,0.885370303876698,1.0453830589540303,1.1893216562457383,1.2614109562709928,1.3654057150706649,0.0,0.0,cooed,lowwf,medbf
16,83,16,edthe,ed,dt,th,he,e,d,t,h,e,,,0.7774574221111834,0.9535852093249559,1.1615748652257025,1.2575394231826067,1.3774778172373772,0.0,0.0,edthe,pseudo,highbf
17,83,17,vodka,vo,od,dk,ka,v,o,d,k,a,,,0.7014378551393747,0.9415153567679226,1.1415525218471885,1.301450476050377,1.4215305740945041,0.0,0.0,vodka,medwf,lowbf
18,83,18,champ,ch,ha,am,mp,c,h,a,m,p,,,1.0414336314424872,1.1773849432356656,1.2974067032337189,1.7933194423094392,2.0093020210042596,0.0,0.0,champ,medwf,medbf
19,83,19,zibja,zi,ib,bj,ja,z,i,b,k,a,,,0.9169108439236879,1.1729780840687454,1.900915436912328,2.0690323347225785,2.853027888108045,0.0,0.0,zibka,pseudo,lowbf
20,83,20,there,th,he,er,re,t,h,e,r,e,,,0.6492226510308683,0.7692264658398926,0.8572260551154613,0.9452283941209316,1.0651868050917983,0.0,0.0,there,highwf,highbf
21,83,21,belly,be,el,ll,ly,b,e,l,l,y,,,0.7013648790307343,0.8694700016640127,1.1654665498062968,1.3093720036558807,1.4214868787676096,0.0,0.0,belly,medwf,medbf
22,83,22,vanru,va,an,nr,ru,v,a,n,r,u,,,0.689567169174552,0.8815108123235404,1.417503942269832,1.5535929212346673,1.681552563328296,0.0,0.0,vanru,pseudo,medbf
23,83,23,pykka,py,yk,kk,ka,p,y,k,k,a,,,0.9094365118071437,1.301445229910314,1.981493033003062,2.1174449459649622,2.2615789039991796,0.0,0.0,pykka,pseudo,lowbf
24,83,24,zibja,zi,ib,bj,ja,z,i,b,j,a,,,0.9776358241215348,1.2095878990367055,1.8095888057723641,2.1776067158207297,2.65769404405728,0.0,0.0,zibja,pseudo,lowbf
25,83,25,about,ab,bo,ou,ut,a,b,o,u,t,,,0.6853780006058514,0.949393730610609,1.1413608728908002,1.2533964118920267,1.381338112987578,0.0,0.0,about,highwf,medbf
26,83,26,haole,ha,ao,ol,le,h,a,o,l,e,,,0.8092910158447921,0.9454625560902059,1.193296556826681,1.393325257115066,1.4812945839948952,0.0,0.0,haole,lowwf,medbf
27,83,27,lucky,lu,uc,ck,ky,l,u,c,k,y,,,1.0294399252161384,1.2294103810563684,1.405530998017639,1.5255564819090068,1.7254623072221875,0.0,0.0,lucky,highwf,lowbf
28,83,28,there,th,he,er,re,t,h,e,r,e,,,0.6733014769852161,0.7853600149974227,0.857363329268992,0.9292836040258408,1.0493463389575481,0.0,0.0,there,highwf,highbf
29,83,29,buddy,bu,ud,dd,dy,b,u,d,d,y,,,0.6213275459595025,0.8932561501860619,1.093264545314014,1.2613685042597353,1.349367894232273,0.0,0.0,buddy,highwf,lowbf
30,83,30,therm,th,he,er,rm,t,h,e,r,m,,,0.6333394139073789,0.7533438820391893,0.8252719468437135,0.9052964625880122,1.0413022600114346,0.0,0.0,therm,lowwf,highbf
31,83,31,tithe,ti,it,th,he,t,i,u,t,h,e,,0.7653596238233149,0.9493523817509413,0.9493523817509413,1.8214041427709162,1.909309631679207,2.021403396036476,0.0,tiuthe,lowwf,highbf
32,83,32,cooed,co,oo,oe,ed,c,o,o,e,d,,,0.6252442859113216,0.889328149612993,1.0572370239533484,1.1291820858605206,1.2492477516643703,0.0,0.0,cooed,lowwf,medbf
33,83,33,cheer,ch,he,ee,er,c,h,e,e,r,,,0.7010336499661207,0.885106485337019,1.0450804643332958,1.189079635310918,1.3251024531200528,0.0,0.0,cheer,medwf,highbf
34,83,34,edthe,ed,dt,th,he,e,d,t,h,e,,,0.8254153835587204,0.9772568587213755,1.1932749627158046,1.305389880668372,1.4172644186764956,0.0,0.0,edthe,pseudo,highbf
35,83,35,zibja,zi,ib,bj,ja,z,i,b,j,a,,,1.0046111987903714,1.236688462086022,1.564657969865948,2.268637946806848,2.6046763667836785,0.0,0.0,zibja,pseudo,lowbf
36,83,36,haole,ha,ao,ol,le,h,a,o,l,e,,,0.8494867230765522,0.9694403610192239,1.2334971278905869,1.441397009883076,1.5694906348362565,0.0,0.0,haole,lowwf,medbf
37,83,37,cheer,ch,he,ee,er,c,h,e,e,r,,,0.7173155909404159,0.8854237389750779,1.0614047939889133,1.205448311753571,1.3573789587244391,0.0,0.0,cheer,medwf,highbf
38,83,38,would,wo,ou,ul,ld,w,o,u,l,d,,,0.8254875489510596,1.0654477011412382,1.1933584553189576,1.4574162252247334,1.5854540532454848,0.0,0.0,would,highwf,medbf
39,83,39,druze,dr,ru,uz,ze,d,r,u,z,e,,,0.8293161210604012,1.133397196419537,1.3334123161621392,1.6054252753965557,1.9173023654147983,0.0,0.0,druze,lowwf,lowbf
40,83,40,heond,he,eo,on,nd,h,e,o,n,d,,,0.9453521179966629,1.105302954558283,1.2573986747302115,1.4333219109103084,1.6012392728589475,0.0,0.0,heond,pseudo,highbf
41,83,41,edthe,ed,dt,th,he,e,d,t,h,e,,,0.6611989210359752,0.8531867517158389,1.0770832258276641,1.2051510359160602,1.32514983182773,0.0,0.0,edthe,pseudo,highbf
42,83,42,about,ab,bo,ou,ut,a,b,o,u,t,,,0.6253946139477193,0.8732581022195518,1.0732176923193038,1.2172196200117469,1.3533141729421914,0.0,0.0,about,highwf,medbf
43,83,43,heond,he,eo,on,nd,h,e,o,n,d,,,0.7570436182431877,0.9411109602078795,1.4451560378074646,1.6130835469812155,1.7571002738550305,0.0,0.0,heond,pseudo,highbf
44,83,44,faqir,fa,aq,qi,ir,f,a,q,i,r,,,0.7290709572844207,1.1611427483148873,1.4571685292758048,1.6651674499735236,1.825112758204341,0.0,0.0,faqir,lowwf,lowbf
45,83,45,edthe,ed,dt,th,he,e,d,t,h,e,,,0.8931798557750881,1.077151043806225,1.30115338973701,1.4052153546363115,1.501154012978077,0.0,0.0,edthe,pseudo,highbf
46,83,46,kremp,kr,re,em,mp,k,r,e,m,p,,,0.8090303400531411,0.9210541066713631,0.9929841770790517,1.1450911867432296,1.4810469867661595,0.0,0.0,kremp,pseudo,medbf
47,83,47,champ,ch,ha,am,mp,c,h,a,m,p,,,0.669336105696857,0.8213023110292852,0.9973324127495289,1.4932235456071794,1.7172153848223388,0.0,0.0,champ,medwf,medbf
48,83,48,heond,he,eo,on,nd,h,e,o,n,d,,,0.6971784979104996,0.8412200203165412,0.9850929663516581,1.1931011471897364,1.2972063403576612,0.0,0.0,heond,pseudo,highbf
49,83,49,zibja,zi,ib,bj,ja,z,i,b,j,a,,,0.8532680170610547,1.1332226027734578,1.349263192154467,1.5812006411142647,1.7811973579227924,0.0,0.0,zibja,pseudo,lowbf
50,83,50,theme,th,he,em,me,t,h,e,m,e,,,0.7213983731344342,0.8573373081162572,1.01736507890746,1.1933373329229653,1.3054393748752773,0.0,0.0,theme,medwf,highbf
51,83,51,therm,th,he,er,rm,t,h,e,r,m,,,0.6853344971314073,0.8052510730922222,0.9172618249431252,0.9973168801516294,1.133297075983137,0.0,0.0,therm,lowwf,highbf
52,83,52,vanru,va,an,nr,ru,v,a,n,r,u,,,0.902844674885273,1.0788694797083735,1.486862442921847,1.982949344906956,2.15091968793422,0.0,0.0,vanru,pseudo,medbf
53,83,53,faqir,fa,aq,qi,ir,f,a,q,i,r,,,0.7241067937575281,1.1239820700138807,1.3879134538583457,1.5960163958370686,1.7319983029738069,0.0,0.0,faqir,lowwf,lowbf
54,83,54,cheer,ch,he,ee,er,c,h,e,e,r,,,0.6405015299096704,0.80845712358132,0.9364978377707303,1.1045044148340821,1.2324551297351718,0.0,0.0,cheer,medwf,highbf
55,83,55,lucky,lu,uc,ck,ky,l,u,c,k,y,,,0.7723604799248278,0.9403154719620943,1.1002912218682468,1.1964290589094162,1.4364586360752583,0.0,0.0,lucky,highwf,lowbf
56,83,56,kremp,kr,re,em,mp,k,r,e,m,p,,,0.8402952528558671,0.9602361773140728,1.0563360401429236,1.192289762198925,1.4803121420554817,0.0,0.0,kremp,pseudo,medbf
57,83,57,cooed,co,oo,oe,ed,c,o,o,e,d,,,0.6684068352915347,0.8843038170598447,1.0284272953867912,1.1002883203327656,1.2123312670737505,0.0,0.0,cooed,lowwf,medbf
58,83,58,about,ab,bo,ou,ut,a,b,o,u,t,,,0.7605160241946578,0.9925635349936783,1.1525763659738004,1.2966245338320732,1.4246190232224762,0.0,0.0,about,highwf,medbf
59,83,59,vanru,va,an,nr,ru,v,a,n,r,u,,,0.7725102659314871,0.9164881422184408,1.0364933223463595,1.1884437473490834,1.3805039119906723,0.0,0.0,vanru,pseudo,medbf
60,83,60,belly,be,el,ll,ly,b,e,l,l,y,,,0.6645405171439052,0.7604974079877138,1.064560494851321,1.216611706186086,1.304644849151373,0.0,0.0,belly,medwf,medbf
61,83,61,would,wo,ou,ul,ld,w,o,u,l,d,,,0.7644353229552507,1.06045384099707,1.180517781060189,1.4285087822936475,1.6044944450259209,0.0,0.0,would,highwf,medbf
62,83,62,zibja,zi,ib,bj,ja,z,i,b,j,a,,,0.8965838178992271,1.0885339919477701,1.4165688487701118,1.7525665848515928,1.976467777043581,0.0,0.0,zibja,pseudo,lowbf
63,83,63,puppy,pu,up,pp,py,p,u,p,p,y,,,0.7724524852819741,0.9963348479941487,1.212335254997015,1.3403920084238052,1.484331310261041,0.0,0.0,puppy,medwf,lowbf
64,83,64,vodka,vo,od,dk,ka,v,o,d,k,a,,,0.8004077449440956,0.9124294365756214,1.1444872128777206,1.2885211859829724,1.4404813926666975,0.0,0.0,vodka,medwf,lowbf
65,83,65,kremp,kr,re,em,mp,k,r,e,m,p,,,0.692353576887399,0.8123526992276311,0.8683900549076498,1.0363939320668578,1.228369442280382,0.0,0.0,kremp,pseudo,medbf
66,83,66,puppy,pu,up,pp,py,p,u,p,p,y,,,0.8484724541194737,1.200351390056312,1.3923807237297297,1.5364734306931496,1.704476956743747,0.0,0.0,puppy,medwf,lowbf
67,83,67,tithe,ti,it,th,he,t,i,t,h,e,,,0.7722811121493578,0.9162511304020882,1.0122292884625494,1.14826291333884,1.244477148167789,0.0,0.0,tithe,lowwf,highbf
68,83,68,druze,dr,ru,uz,ze,d,r,u,z,e,,,0.5843277471140027,0.7684262334369123,1.0003169644623995,1.2163984850049019,1.5123651432804763,0.0,0.0,druze,lowwf,lowbf
69,83,69,puppy,pu,up,pp,py,p,u,p,p,y,,,0.7401748360134661,0.9721557470038533,1.1641218150034547,1.3242374551482499,1.4522364889271557,0.0,0.0,puppy,medwf,lowbf
70,83,70,pykka,py,yk,kk,ka,p,u,k,k,a,,,0.9045980828814209,1.192507881205529,2.040595863945782,2.2005263972096145,2.34465078311041,0.0,0.0,pukka,pseudo,lowbf
71,83,71,belly,be,el,ll,ly,b,e,l,l,y,,,0.6922785327769816,0.8842197540216148,1.076231052633375,1.2283568596467376,1.3323279679752886,0.0,0.0,belly,medwf,medbf
72,83,72,cheer,ch,he,ee,er,c,h,e,e,r,,,0.6484175869263709,0.7844134797342122,0.9205249017104506,1.0644725859165192,1.1844077529385686,0.0,0.0,cheer,medwf,highbf
73,83,73,would,wo,ou,ul,ld,w,o,u,l,d,,,0.8043817887082696,1.0363826458342373,1.1484373058192432,1.3883092999458313,1.5003115329891443,0.0,0.0,would,highwf,medbf
74,83,74,lucky,lu,uc,ck,ky,l,u,c,k,y,,,0.6645367271266878,0.8806126150302589,1.0004845480434597,1.1045323279686272,1.2964970809407532,0.0,0.0,lucky,highwf,lowbf
75,83,75,pykka,py,yk,kk,ka,p,y,k,k,a,,,0.8282225038856268,1.2281823856756091,1.700103537645191,1.8442879267968237,1.9641487677581608,0.0,0.0,pykka,pseudo,lowbf
76,83,76,vanru,va,an,nr,ru,v,a,n,r,u,,,0.6883942601270974,0.8403271920979023,0.9602574813179672,1.0963017889298499,1.2563360990025103,0.0,0.0,vanru,pseudo,medbf
77,83,77,druze,dr,ru,uz,ze,d,r,u,z,e,,,0.6363323046825826,0.8202900178730488,1.0203536259941757,1.2602133136242628,1.5963479890488088,0.0,0.0,druze,lowwf,lowbf
78,83,78,theme,th,he,em,me,t,h,e,m,e,,,0.6242602998390794,0.7203044751659036,0.8642866839654744,1.0163002209737897,1.1042336039245129,0.0,0.0,theme,medwf,highbf
79,83,79,druze,dr,ru,uz,ze,d,r,u,z,e,,,0.6043465198017657,0.8123103459365666,1.0762548251077533,1.284253146033734,1.5002877959050238,0.0,0.0,druze,lowwf,lowbf
80,83,80,lucky,lu,uc,ck,ky,l,u,c,k,y,,,0.7284257155843079,0.888388519641012,1.0323904938995838,1.1523881745524704,1.3523297938518226,0.0,0.0,lucky,highwf,lowbf
81,83,81,think,th,hi,in,nk,t,h,i,n,k,,,0.5881694280542433,0.7722605429589748,0.8841959410347044,1.0761874378658831,1.2442836868576705,0.0,0.0,think,highwf,highbf
82,83,82,champ,ch,ha,am,mp,c,h,a,m,p,,,0.5681687039323151,0.7201795899309218,0.8641328318044543,1.0000901310704648,1.2081542978994548,0.0,0.0,champ,medwf,medbf
83,83,83,pykka,py,yk,kk,ka,p,y,k,k,a,,,0.8279959550127387,1.0999646242707968,1.667957792058587,1.819938801229,1.9240402351133525,0.0,0.0,pykka,pseudo,lowbf
84,83,84,think,th,hi,in,nk,t,h,i,n,k,,,0.6004239162430167,0.7764234119094908,1.29643177613616,1.4724508849903941,1.648430353961885,0.0,0.0,think,highwf,highbf
85,83,85,kremp,kr,re,em,mp,k,r,e,m,p,,,0.7963926950469613,0.9324591709300876,0.9964213850907981,1.1164933699183166,1.3164837691001594,0.0,0.0,kremp,pseudo,medbf
86,83,86,about,ab,bo,ou,ut,a,b,o,u,t,,,0.5841955039650202,0.7682084180414677,0.8883184278383851,1.0001902799122036,1.0962256020866334,0.0,0.0,about,highwf,medbf
87,83,87,there,th,he,er,re,t,h,r,e,,,,0.5563741219229996,0.6603485480882227,0.780398485250771,0.9324152111075819,0.0,0.0,0.0,thre,highwf,highbf
88,83,88,therm,th,he,er,rm,t,h,e,r,m,,,0.623543263413012,0.7276802472770214,0.8395988792181015,0.9435058762319386,1.0475331842899323,0.0,0.0,therm,lowwf,highbf
89,83,89,vanru,va,an,nr,ru,v,a,n,r,u,,,0.7156340782530606,0.8515305961482227,1.019640482030809,1.1636381703428924,1.307601806242019,0.0,0.0,vanru,pseudo,medbf
90,83,90,buddy,bu,ud,dd,dy,b,u,d,d,y,,,0.6475092857144773,0.8075796207413077,1.239530426915735,1.375458172056824,1.4794770367443562,0.0,0.0,buddy,highwf,lowbf
91,83,91,vodka,vo,od,dk,ka,v,o,d,k,a,,,0.6995646911673248,1.2355245710350573,1.6995626618154347,1.8754746639169753,2.0035674357786775,0.0,0.0,vodka,medwf,lowbf
92,83,92,cheer,ch,he,ee,er,c,h,e,e,r,,,0.6234463732689619,0.7994428821839392,0.9433954614214599,1.103481428232044,1.2473921393975616,0.0,0.0,cheer,medwf,highbf
93,83,93,kremp,kr,re,em,mp,k,r,e,m,p,,,0.6996484124101698,0.8435290260240436,0.907611567992717,1.067536311224103,1.2675353712402284,0.0,0.0,kremp,pseudo,medbf
94,83,94,buddy,bu,ud,dd,dy,b,u,d,d,y,,,0.7033747839741409,1.0153283290565014,1.1752803148701787,1.3272549379616976,1.4073392879217863,0.0,0.0,buddy,highwf,lowbf
95,83,95,champ,ch,ha,am,mp,c,h,a,m,p,,,0.5957028777338564,0.7236131448298693,0.8756494815461338,1.0196447889320552,1.2117549777030945,0.0,0.0,champ,medwf,medbf
96,83,96,haole,ha,ao,ol,le,h,a,o,l,e,,,0.7676026010885835,0.9596179421059787,1.1596154500730336,1.4156992812640965,1.5436566690914333,0.0,0.0,haole,lowwf,medbf
97,83,97,therm,th,he,er,rm,t,h,e,r,m,,,0.6036530891433358,0.7156519740819931,0.8116811932995915,0.8916529510170221,1.0515580540522933,0.0,0.0,therm,lowwf,highbf
98,83,98,buddy,bu,ud,dd,dy,b,u,d,d,y,,,0.6876940270885825,0.9116761009208858,1.1276476550847292,1.2877092170529068,1.3835921580903232,0.0,0.0,buddy,highwf,lowbf
99,83,99,think,th,hi,in,nk,t,h,i,n,k,,,0.6115647270344198,0.8195825046859682,1.0116490768268704,1.2195791560225189,1.4035593117587268,0.0,0.0,think,highwf,highbf
100,83,100,cooed,co,oo,oe,ed,c,o,o,e,d,,,0.6315445271320641,1.1115304669365287,1.2635287921875715,1.3674229439347982,1.4555426919832826,0.0,0.0,cooed,lowwf,medbf
101,83,101,there,th,he,er,re,t,h,e,r,e,,,0.5794670539908111,0.6754272920079529,0.7635295977815986,0.8594229649752378,0.9794274461455643,0.0,0.0,there,highwf,highbf
102,83,102,would,wo,ou,ul,ld,w,o,u,l,d,,,0.8636463768780231,1.0716069219633937,1.2475820719264448,1.4875552006997168,1.6475636758841574,0.0,0.0,would,highwf,medbf
103,83,103,champ,ch,ha,am,mp,c,h,a,m,p,,,0.7314354036934674,0.8994233850389719,1.0353936851024628,1.2354892189614475,1.4593827626667917,0.0,0.0,champ,medwf,medbf
104,83,104,lucky,lu,uc,ck,ky,l,u,c,k,y,,,0.9115278269164264,1.127477329224348,1.2555177100002766,1.3354777349159122,1.7914990400895476,0.0,0.0,lucky,highwf,lowbf
105,83,105,cooed,co,oo,oe,ed,c,o,o,e,d,,,0.5633862023241818,0.7473978400230408,0.9233649400994182,1.0194100881926715,1.1313484823331237,0.0,0.0,cooed,lowwf,medbf
106,83,106,would,wo,ou,ul,ld,w,o,u,l,d,,,0.7674252581782639,0.9035006877966225,1.0474477489478886,1.239499936811626,1.3594291801564395,0.0,0.0,would,highwf,medbf
107,83,107,theme,th,he,em,me,t,h,e,m,e,,,0.6035363259725273,0.7075029769912362,0.8194770263507962,0.9875222900882363,1.067424715962261,0.0,0.0,theme,medwf,highbf
108,83,108,think,th,hi,in,nk,t,h,i,n,k,,,0.6150838267058134,0.75118747074157,1.015156561974436,1.2071626749821007,1.38308598799631,0.0,0.0,think,highwf,highbf
109,83,109,theme,th,he,em,me,t,h,e,m,e,,,0.6196260927245021,0.7156196939758956,0.8595209699124098,0.9636219837702811,1.0675156880170107,0.0,0.0,theme,medwf,highbf
110,83,110,belly,be,el,ll,ly,b,e,l,l,y,,,0.639550490770489,1.1035380358807743,1.359422910027206,1.5355092626996338,1.687502009794116,0.0,0.0,belly,medwf,medbf
111,83,111,about,ab,bo,ou,ut,a,b,o,u,t,,,0.7076353668235242,0.9395896480418742,1.0996362520381808,1.2036340539343655,1.3075136640109122,0.0,0.0,about,highwf,medbf
112,83,112,haole,ha,ao,ol,le,h,a,o,l,e,,,0.6793622742407024,0.807438753079623,1.0393816949799657,1.239394593052566,1.3273020363412797,0.0,0.0,haole,lowwf,medbf
113,83,113,theme,th,he,em,me,t,h,e,m,e,,,0.6271430719643831,0.7152627380564809,0.8591753202490509,0.9791643018834293,1.0752220721915364,0.0,0.0,theme,medwf,highbf
114,83,114,druze,dr,ru,uz,ze,d,r,u,z,e,,,0.7674041842110455,1.0314441989175975,1.263481317088008,1.4715035851113498,1.7195298811420798,0.0,0.0,druze,lowwf,lowbf
115,83,115,vodka,vo,od,dk,ka,v,o,d,k,a,,,0.8114145277068019,1.0834289006888866,1.259306755848229,1.4114164458587766,1.5474113249219954,0.0,0.0,vodka,medwf,lowbf
116,83,116,edthe,ed,dt,th,he,e,d,h,e,,,,0.6794360056519508,0.7994932276196778,1.2555154776200652,1.3834917997010052,0.0,0.0,0.0,edhe,pseudo,highbf
117,83,117,heond,he,eo,on,nd,h,e,o,n,d,,,0.8914253008551896,1.1394772711209953,1.3393901959061623,1.5634418088011444,1.6834232290275395,0.0,0.0,heond,pseudo,highbf
118,83,118,tithe,ti,it,th,he,t,i,t,h,e,,,0.8153122239746153,0.9592457357794046,1.0713118147104979,1.2153537538833916,1.303284415975213,0.0,0.0,tithe,lowwf,highbf
119,83,119,heond,he,eo,on,nd,h,e,o,n,d,,,0.7314877891913056,0.9794755750335753,1.1155367940664291,1.3395992941223085,1.4355719592422247,0.0,0.0,heond,pseudo,highbf
120,83,120,buddy,bu,ud,dd,dy,b,u,d,d,y,,,0.7710231207311153,1.0110082398168743,1.1870036548934877,1.3230412686243653,1.4669902818277478,0.0,0.0,buddy,highwf,lowbf
121,83,121,lucky,lu,uc,ck,ky,l,u,c,k,y,,,0.8060215008445084,1.0140695529989898,1.1900330469943583,1.3179613440297544,1.774031369946897,0.0,0.0,lucky,highwf,lowbf
122,83,122,belly,be,el,ll,ly,b,e,l,l,y,,,0.6179167982190847,0.8099187179468572,1.0420616162009537,1.20199962425977,1.3620100002735853,0.0,0.0,belly,medwf,medbf
123,83,123,would,wo,ou,ul,ld,w,o,u,l,d,,,0.6539129163138568,0.8378572291694582,0.9659075019881129,1.1978853321634233,1.3338648830540478,0.0,0.0,would,highwf,medbf
124,83,124,pykka,py,yk,kk,ka,p,y,k,k,a,,,0.8179579977877438,1.178050930146128,1.5220824130810797,1.6739659938029945,1.8259459962137043,0.0,0.0,pykka,pseudo,lowbf
125,83,125,tithe,ti,it,th,he,t,i,t,h,e,,,0.742029975168407,0.9099216600880027,1.0380326453596354,1.1820134143345058,1.2939143851399422,0.0,0.0,tithe,lowwf,highbf
126,83,126,vanru,va,an,nr,ru,v,a,n,r,u,,,0.6739373542368412,0.8019841280765831,0.9378953082486987,1.0819816570729017,1.2019466701894999,0.0,0.0,vanru,pseudo,medbf
127,83,127,tithe,ti,it,th,he,i,t,h,t,e,,,0.7738894647918642,1.5098017700947821,1.6539242267608643,1.7337877750396729,1.885916135739535,0.0,0.0,ithte,lowwf,highbf
128,83,128,cooed,co,oo,oe,ed,c,o,o,e,d,,,0.7297706832177937,0.945691985078156,1.0976690500974655,1.1777510913088918,1.321789590176195,0.0,0.0,cooed,lowwf,medbf
129,83,129,cheer,ch,he,ee,er,c,h,e,e,r,,,0.6780191566795111,0.8139481619000435,0.9420326170511544,1.117922259029001,1.237938102800399,0.0,0.0,cheer,medwf,highbf
130,83,130,faqir,fa,aq,qi,ir,f,a,q,i,r,,,0.6339280623942614,0.7699907193891704,1.121932642068714,1.2419411493465304,1.386016617063433,0.0,0.0,faqir,lowwf,lowbf
131,83,131,vodka,vo,od,dk,ka,v,o,d,k,a,,,0.6698701581917703,0.8058491479605436,0.949910996016115,1.1097851302474737,1.221907075960189,0.0,0.0,vodka,medwf,lowbf
132,83,132,therm,th,he,er,rm,t,h,e,r,m,,,0.5939917089417577,0.6980147929862142,0.8021103590726852,0.8820388629101217,0.9860750241205096,0.0,0.0,therm,lowwf,highbf
133,83,133,lucky,lu,uc,ck,ky,l,u,c,k,y,,,0.7260135971009731,0.9021378140896559,0.9980668001808226,1.1180215338245034,1.3100481629371643,0.0,0.0,lucky,highwf,lowbf
134,83,134,think,th,hi,in,nk,t,h,i,n,k,,,0.6178265670314431,0.8098608469590545,0.9619185719639063,1.1699129939079285,1.3458501808345318,0.0,0.0,think,highwf,highbf
135,83,135,champ,ch,ha,am,mp,c,h,a,m,p,,,0.5901565258391201,0.6940287901088595,0.8060413580387831,0.9821453611366451,1.1421854817308486,0.0,0.0,champ,medwf,medbf
136,83,136,tithe,ti,it,th,he,t,i,t,h,e,,,0.753916506189853,0.9218290960416198,1.0337823270820081,1.1938115749508142,1.2818282567895949,0.0,0.0,tithe,lowwf,highbf
137,83,137,heond,he,eo,on,nd,h,e,o,n,d,,,0.6937443506903946,0.8937477190047503,1.053829331882298,1.25382641563192,1.3419083119370043,0.0,0.0,heond,pseudo,highbf
138,83,138,theme,th,he,em,me,t,h,e,n,m,e,,0.585851491894573,0.689926085062325,0.7938436078839004,0.9458195138722658,0.953953995835036,1.0258384607732296,0.0,thenme,medwf,highbf
139,83,139,faqir,fa,aq,qi,ir,f,a,q,i,r,,,0.7098644059151411,0.8779646498151124,1.2459431481547654,1.4379303948953748,1.542042925953865,0.0,0.0,faqir,lowwf,lowbf
140,83,140,kremp,kr,re,em,mp,k,r,e,m,p,,,0.8898106161504984,0.9778508222661912,1.0417494671419263,1.1538141211494803,1.3057886431924999,0.0,0.0,kremp,pseudo,medbf
141,83,141,faqir,fa,aq,qi,ir,f,a,q,i,r,,,0.7816803310997784,0.9576139971613884,1.2375756539404392,1.373642294202,1.4696463528089225,0.0,0.0,faqir,lowwf,lowbf
142,83,142,haole,ha,ao,ol,le,h,a,o,l,e,,,0.8337577120400965,0.9538933569565415,1.3059044871479273,1.497842200100422,1.5698919799178839,0.0,0.0,haole,lowwf,medbf
143,83,143,champ,ch,ha,am,mp,c,h,a,m,p,,,0.685849669855088,0.8538417499512434,1.0058425520546734,1.1738924868404865,1.3579124580137432,0.0,0.0,champ,medwf,medbf
144,83,144,cooed,co,oo,oe,ed,c,o,o,e,d,,,0.5860196370631456,0.7140199886634946,0.8739923448301852,0.9700247710570693,1.066032133065164,0.0,0.0,cooed,lowwf,medbf
145,83,145,buddy,bu,ud,dd,dy,b,u,d,d,y,,,0.7419751118868589,0.973908307030797,1.1499598980881274,1.3099182290025055,1.461932625155896,0.0,0.0,buddy,highwf,lowbf
146,83,146,kremp,kr,re,em,mp,k,r,e,m,p,,,1.0499718100763857,1.1619602092541754,1.242001537233591,1.3699618242681026,1.5378672759979963,0.0,0.0,kremp,pseudo,medbf
147,83,147,buddy,bu,ud,dd,dy,b,u,d,d,y,,,0.6779039762914181,0.9178019310347736,1.1098062889650464,1.2458283491432667,1.3498789062723517,0.0,0.0,buddy,highwf,lowbf
148,83,148,heond,he,eo,on,nd,h,e,o,n,d,,,0.7138226819224656,1.0738269286230206,1.249811427667737,1.4578183349221945,1.5779065056703985,0.0,0.0,heond,pseudo,highbf
149,83,149,would,wo,ou,ul,ld,w,o,u,l,d,,,0.6537223998457193,0.749726259149611,0.8616999448277056,1.0697529702447355,1.1816983940079808,0.0,0.0,would,highwf,medbf
150,83,150,theme,th,he,em,me,t,h,e,m,e,,,0.6498397993855178,0.7297786823473871,0.817768179345876,0.9539036592468619,1.0337614002637565,0.0,0.0,theme,medwf,highbf
151,83,151,about,ab,bo,ou,ut,a,b,o,u,t,,,0.6617522556334734,0.8537457189522684,0.9657528409734368,1.0617648349143565,1.173713373951614,0.0,0.0,about,highwf,medbf
152,83,152,think,th,hi,in,nk,t,h,i,n,k,,,0.5778510291129351,0.7697558449581265,0.9218113208189607,1.1137710940092802,1.2897589011117816,0.0,0.0,think,highwf,highbf
153,83,153,puppy,pu,up,pp,py,p,u,p,p,y,,,0.7817387850955129,0.9657817403785884,1.1257109721191227,1.2936591682955623,1.445696314331144,0.0,0.0,puppy,medwf,lowbf
154,83,154,there,th,he,er,re,t,h,e,r,e,,,0.5856598662212491,0.6976010650396347,0.7776209800504148,0.8656570282764733,0.9776970692910254,0.0,0.0,there,highwf,highbf
155,83,155,edthe,ed,dt,th,he,e,d,t,h,e,,,0.6378044639714062,0.7738042026758194,0.9657318717800081,1.0936683677136898,1.165778388734907,0.0,0.0,edthe,pseudo,highbf
156,83,156,vanru,va,an,nr,ru,v,a,n,r,u,,,0.6177782122977078,0.7377748591825366,0.8337587439455092,0.9699268490076065,1.1378975841216743,0.0,0.0,vanru,pseudo,medbf
157,83,157,heond,he,eo,on,nd,h,e,o,n,d,,,0.7018705569207668,0.8298496836796403,0.9419133020564914,1.1337952818721533,1.237802059855312,0.0,0.0,heond,pseudo,highbf
158,83,158,pykka,py,yk,kk,ka,p,y,k,k,a,,,1.089816875755787,1.401904467958957,1.8578691026195884,2.009794401936233,2.193821298889816,0.0,0.0,pykka,pseudo,lowbf
159,83,159,zibja,zi,ib,bj,ja,a,z,i,b,j,a,,0.9177556945942342,1.7418239410035312,2.0778678855858743,2.27789723360911,2.6538707949221134,2.7658640439622104,0.0,azibja,pseudo,lowbf
160,83,160,would,wo,ou,ul,ld,w,o,u,l,d,,,1.1057156468741596,1.2257125531323254,1.353772555012256,1.5857540918514132,1.7057060501538217,0.0,0.0,would,highwf,medbf
161,83,161,buddy,bu,ud,dd,dy,b,u,d,d,y,,,0.6376315909437835,0.8056539390236139,0.997727382928133,1.1737164841033518,1.285648101940751,0.0,0.0,buddy,highwf,lowbf
162,83,162,cheer,ch,he,ee,er,c,h,e,e,r,,,0.633662408683449,0.769715019967407,0.8816737327724695,1.04975193599239,1.2096639941446483,0.0,0.0,cheer,medwf,highbf
163,83,163,haole,ha,ao,ol,le,h,a,o,l,e,,,0.6296262089163065,0.7976252310909331,1.0376360658556223,1.221674570813775,1.2935751830227673,0.0,0.0,haole,lowwf,medbf
164,83,164,belly,be,el,ll,ly,b,e,l,l,y,,,0.7137948223389685,0.8338005682453513,1.1457513440400362,1.2977495132945478,1.5858171894215047,0.0,0.0,belly,medwf,medbf
165,83,165,vodka,vo,od,dk,ka,v,o,d,k,a,,,0.7815314410254359,1.0375232729129493,1.5015588700771332,1.6855572881177068,1.7895285901613533,0.0,0.0,vodka,medwf,lowbf
166,83,166,zibja,zi,ib,bj,ja,z,i,b,j,a,,,0.8815607130527496,1.1136590749956667,1.32956357114017,1.86579703213647,1.9777132631279528,0.0,0.0,zibja,pseudo,lowbf
167,83,167,tithe,ti,it,th,he,t,i,t,h,e,,,0.701615858823061,0.8536295727826655,0.9735780116170645,1.0935436179861426,1.1655815006233752,0.0,0.0,tithe,lowwf,highbf
168,83,168,about,ab,bo,ou,ut,a,b,o,u,t,,,0.5694851772859693,0.7694938848726451,0.9054618109948933,1.0093666380271316,1.073450525291264,0.0,0.0,about,highwf,medbf
169,83,169,puppy,pu,up,pp,py,p,u,p,p,y,,,1.1177129969000816,1.3417811482213438,1.613825049251318,1.7817578501999378,1.901711855083704,0.0,0.0,puppy,medwf,lowbf
170,83,170,think,th,hi,in,nk,t,h,i,n,k,,,0.6737788752652705,0.8897724002599716,1.017703605350107,1.2018212550319731,1.3777760649099946,0.0,0.0,think,highwf,highbf
171,83,171,vodka,vo,od,dk,ka,v,o,d,k,a,,,0.6697436422109604,0.7977291410788894,0.9976603789255023,1.117667119950056,1.2377222189679742,0.0,0.0,vodka,medwf,lowbf
172,83,172,pykka,py,yk,kk,ka,p,y,k,k,a,,,0.8577796178869903,1.2658575451932847,1.4898803979158401,1.6898811999708414,1.8898307951167226,0.0,0.0,pykka,pseudo,lowbf
173,83,173,edthe,ed,dt,th,he,e,d,h,e,,,,0.7738269469700754,0.925770535133779,1.2538748471997678,2.0538851260207593,0.0,0.0,0.0,edhe,pseudo,highbf
174,83,174,buddy,bu,ud,dd,dy,b,u,d,d,y,,,0.6975303920917213,0.865624978672713,0.9856199868954718,1.1455946071073413,1.2336057568900287,0.0,0.0,buddy,highwf,lowbf
175,83,175,edthe,ed,dt,th,he,e,d,t,h,e,,,0.7016078527085483,0.8375398288480937,1.077656464651227,1.221602935809642,1.3415737659670413,0.0,0.0,edthe,pseudo,highbf
176,83,176,cooed,co,oo,oe,ed,c,o,o,e,d,,,0.6575035420246422,0.8334132740274072,0.9855358665809035,1.0814964389428496,1.1774197649210691,0.0,0.0,cooed,lowwf,medbf
177,83,177,heond,he,eo,on,nd,h,e,o,n,d,,,0.6695951418951154,0.8694800287485123,1.045499692671001,1.2455430529080331,1.3495495356619358,0.0,0.0,heond,pseudo,highbf
178,83,178,think,th,hi,in,nk,t,h,i,n,k,,,0.6655546696856618,0.9055571407079697,1.0495668770745397,1.2575804200023413,1.4174972497858107,0.0,0.0,think,highwf,highbf
179,83,179,vanru,va,an,nr,ru,v,a,n,r,u,e,,0.6535533079877496,0.8135504820384085,1.0135123492218554,1.2215221812948585,1.3974915971048176,1.5014997720718384,0.0,vanrue,pseudo,medbf
180,83,180,pykka,py,yk,kk,ka,p,y,k,k,a,,,0.8575420472770929,1.1454804469831288,1.537534954957664,1.6894761910662055,1.7934610922820866,0.0,0.0,pykka,pseudo,lowbf
181,83,181,druze,dr,ru,uz,ze,d,r,u,z,e,,,0.597373906057328,0.8053314797580242,1.0613868329674006,1.2452624570578337,1.469321794807911,0.0,0.0,druze,lowwf,lowbf
182,83,182,cooed,co,oo,oe,ed,c,o,o,e,d,,,0.6174712907522917,0.7934668520465493,0.9295004028826952,1.0094797289930284,1.1135632786899805,0.0,0.0,cooed,lowwf,medbf
183,83,183,champ,ch,ha,am,mp,c,h,a,m,p,,,0.5656847879290581,0.7096187337301672,0.8537269588559866,0.9736802577972412,1.1577357947826385,0.0,0.0,champ,medwf,medbf
184,83,184,lucky,lu,uc,ck,ky,l,u,c,k,y,,,0.6494668489322066,0.8735213200561702,1.0013943421654403,1.1294000851921737,1.3614842370152473,0.0,0.0,lucky,highwf,lowbf
185,83,185,theme,th,he,em,me,t,h,e,m,e,,,0.5736551927402616,0.6695936350151896,0.781588613986969,0.9175478629767895,1.013705920893699,0.0,0.0,theme,medwf,highbf
186,83,186,edthe,ed,dt,th,he,e,d,t,h,e,,,0.6175993708893657,0.7457005996257067,1.02564070886001,1.3537130169570446,1.4897224735468626,0.0,0.0,edthe,pseudo,highbf
187,83,187,about,ab,bo,ou,ut,a,b,o,u,t,,,0.5173297082073987,0.6933634160086513,0.8374302610754967,0.9173287232406437,1.0054417862556875,0.0,0.0,about,highwf,medbf
188,83,188,therm,th,he,er,rm,t,h,e,r,m,,,0.5535299526527524,0.6655263160355389,0.7615523859858513,0.8335097408853471,0.9934472790919244,0.0,0.0,therm,lowwf,highbf
189,83,189,about,ab,bo,ou,ut,a,b,o,u,t,,,0.5574850193224847,0.7174037559889257,0.8294553812593222,0.9575113663449883,1.0855177049525082,0.0,0.0,about,highwf,medbf
190,83,190,tithe,ti,it,th,he,t,i,t,h,e,,,0.625435080844909,0.85751884104684,0.9773849747143686,1.0974866207689047,1.1934105060063303,0.0,0.0,tithe,lowwf,highbf
191,83,191,there,th,he,er,re,t,h,e,r,e,,,0.5655133668333292,0.6855270629748702,0.7814265508204699,0.90152976103127,1.0455482169054449,0.0,0.0,there,highwf,highbf
192,83,192,about,ab,bo,ou,ut,a,b,o,u,t,,,0.5054384861141443,0.689608802087605,0.8254700060933828,0.9375283401459455,1.04153314512223,0.0,0.0,about,highwf,medbf
193,83,193,would,wo,ou,ul,ld,w,o,u,l,d,,,0.6373781440779567,0.8134089061059058,0.9253740119747818,1.141414017882198,1.2932981313206255,0.0,0.0,would,highwf,medbf
194,83,194,puppy,pu,up,pp,py,p,u,p,p,y,,,0.7533291424624622,1.1054055071435869,1.4573410511948168,1.657293071039021,1.8414117190986872,0.0,0.0,puppy,medwf,lowbf
195,83,195,vodka,vo,od,dk,ka,v,o,d,k,a,,,0.7093443488702178,1.1734498566947877,1.4374462030828,1.6053529661148787,1.7093424377962947,0.0,0.0,vodka,medwf,lowbf
196,83,196,druze,dr,ru,uz,ze,d,r,u,z,e,,,0.5854089283384383,0.7773369112983346,0.9534174692817032,1.1613941541872919,1.3933069952763617,0.0,0.0,druze,lowwf,lowbf
197,83,197,faqir,fa,aq,qi,ir,f,a,q,i,r,,,0.6135067548602819,0.773477905895561,1.1414163908921182,1.3174160360358655,1.4535426530055702,0.0,0.0,faqir,lowwf,lowbf
198,83,198,theme,th,he,em,me,t,h,e,m,e,,,0.5936093227937818,0.6976744756102562,0.7935832529328763,0.95370500581339,1.0335724130272865,0.0,0.0,theme,medwf,highbf
199,83,199,puppy,pu,up,pp,py,p,u,p,p,y,,,0.7896409225650132,0.9815272139385343,1.1496243826113641,1.309521494898945,1.4615772739052773,0.0,0.0,puppy,medwf,lowbf
200,83,200,champ,ch,ha,am,mp,c,h,a,m,p,,,0.5774873332120478,0.6735370983369648,0.7934243050403893,0.9615908060222864,1.169540564995259,0.0,0.0,champ,medwf,medbf
201,83,201,kremp,kr,re,em,mp,k,r,e,m,p,,,0.693285817746073,0.7893431228585541,0.8613562495447695,0.9493417567573488,1.1092645227909088,0.0,0.0,kremp,pseudo,medbf
202,83,202,therm,th,he,er,rm,t,h,e,r,m,,,0.6013168981298804,0.689436451997608,0.7854375238530338,0.8653830108232796,1.0013204528950155,0.0,0.0,therm,lowwf,highbf
203,83,203,haole,ha,ao,ol,le,h,a,o,l,e,,,0.6214073267765343,0.7333911238238215,0.9414477008394897,1.1414028410799801,1.2134294509887695,0.0,0.0,haole,lowwf,medbf
204,83,204,cheer,ch,he,ee,er,c,h,e,e,r,,,0.5855752862989902,0.6895381370559335,0.8014658032916486,0.9695361503399909,1.073478305246681,0.0,0.0,cheer,medwf,highbf
205,83,205,belly,be,el,ll,ly,b,e,l,l,y,,,0.613278835080564,0.7811790169216692,1.0132799339480698,1.141283739823848,1.2932178899645805,0.0,0.0,belly,medwf,medbf
206,83,206,there,th,he,er,re,t,h,e,r,e,,,0.5292306239716709,0.6172145679593086,0.7052723090164363,0.809205343015492,0.9132967749610543,0.0,0.0,there,highwf,highbf
207,83,207,therm,th,he,er,rm,t,h,e,r,m,,,0.5170912146568298,0.6051679300144315,0.701099269092083,0.797194215003401,0.9412369010969996,0.0,0.0,therm,lowwf,highbf
208,83,208,puppy,pu,up,pp,py,p,u,p,p,y,,,0.777320153079927,0.9213312999345362,1.1454333919100463,1.3214156199246645,1.4573071589693427,0.0,0.0,puppy,medwf,lowbf
209,83,209,cooed,co,oo,oe,ed,c,o,o,e,d,,,0.5733196288347244,0.7413681210018694,0.9012561230920255,0.9493732787668705,1.045384510885924,0.0,0.0,cooed,lowwf,medbf
210,83,210,edthe,ed,dt,th,he,e,d,t,h,e,,,0.6013732342980802,0.7293175333179533,0.9293717104010284,1.0654130312614143,1.137421505060047,0.0,0.0,edthe,pseudo,highbf
211,83,211,lucky,lu,uc,ck,ky,l,u,c,k,y,,,0.8535469360649586,0.9814756168052554,1.1095081688836217,1.2215676051564515,1.4456307529471815,0.0,0.0,lucky,highwf,lowbf
212,83,212,zibja,zi,ib,bj,ja,z,i,b,j,a,,,0.8814195189625025,1.0495135597884655,1.2415249957703054,1.4734731940552592,1.6093985349871218,0.0,0.0,zibja,pseudo,lowbf
213,83,213,would,wo,ou,ul,ld,w,o,u,l,k,d,,0.8932640608400106,1.0213218228891492,1.1253760028630495,1.4053258509375155,1.4053258509375155,1.7732748468406498,0.0,woulkd,highwf,medbf
214,83,214,theme,th,he,em,me,t,h,e,m,e,,,0.6011773589998484,0.7052971930243075,0.8011757452040911,0.9291868540458381,1.0252439733594656,0.0,0.0,theme,medwf,highbf
215,83,215,druze,dr,ru,uz,ze,d,r,u,z,e,,,0.5972416261211038,0.7812379240058362,0.9412662307731807,1.309250834863633,1.677192087750882,0.0,0.0,druze,lowwf,lowbf
216,83,216,lucky,lu,uc,ck,ky,l,u,c,k,y,,,0.758898320607841,0.9109426247887313,1.0068136369809508,1.1268240376375616,1.3108145208097994,0.0,0.0,lucky,highwf,lowbf
217,83,217,think,th,hi,in,nk,t,h,i,n,k,,,0.6050586421042681,0.7970398138277233,0.9649948328733444,1.1970314788632095,1.3810067190788686,0.0,0.0,think,highwf,highbf
218,83,218,zibja,zi,ib,bj,ja,z,i,b,j,a,,,0.824200255330652,1.0322436862625182,1.2641778523102403,1.464220920111984,1.712225005030632,0.0,0.0,zibja,pseudo,lowbf
219,83,219,there,th,he,er,re,t,h,e,r,e,,,0.5646052630618215,0.7166079757735133,0.8045500759035349,0.9166355077177286,1.0446642651222646,0.0,0.0,there,highwf,highbf
220,83,220,kremp,kr,re,em,mp,k,r,e,m,p,,,0.7365167187526822,0.8565366249531507,0.9364897268824279,1.0805044597946107,1.2324783448129892,0.0,0.0,kremp,pseudo,medbf
221,83,221,vanru,va,an,nr,ru,v,a,n,r,u,,,0.7005923339165747,0.9006281569600105,1.036654660012573,1.1727180359885097,1.3087546490132809,0.0,0.0,vanru,pseudo,medbf
222,83,222,vodka,vo,od,dk,ka,v,o,d,k,a,,,0.6325780060142279,0.752562961075455,1.000468511134386,1.1525600687600672,1.2645199047401547,0.0,0.0,vodka,medwf,lowbf
223,83,223,cheer,ch,he,ee,er,c,h,e,e,r,,,0.6286198766902089,0.7886131508275867,0.9486047117970884,1.0686055747792125,1.620616801083088,0.0,0.0,cheer,medwf,highbf
224,83,224,vanru,va,an,nr,ru,v,a,n,r,u,,,0.6245678206905723,0.768484188709408,0.896582133602351,1.0325613976456225,1.2165951956994832,0.0,0.0,vanru,pseudo,medbf
225,83,225,faqir,fa,aq,qi,ir,f,a,q,i,r,,,0.6124873622320592,0.7804951700381935,1.3165334020741284,1.5325221731327474,1.6444928240962327,0.0,0.0,faqir,lowwf,lowbf
226,83,226,kremp,kr,re,em,mp,k,r,e,m,p,,,0.856518441811204,0.9445889820344746,1.0004537208005786,1.1205628798343241,1.296547656878829,0.0,0.0,kremp,pseudo,medbf
227,83,227,druze,dr,ru,uz,ze,d,r,u,z,e,,,0.6365343276411295,0.8445047279819846,1.036491175647825,1.196569164749235,1.932463875040412,0.0,0.0,druze,lowwf,lowbf
228,83,228,belly,be,el,ll,ly,b,e,l,l,y,,,0.8244943940080702,1.0244656801223755,1.3285131370648742,1.504453908186406,1.6324552549049258,0.0,0.0,belly,medwf,medbf
229,83,229,therm,th,he,er,rm,t,h,e,r,m,,,0.5481904721818864,0.6521669761277735,0.7401695889420807,0.8041758141480386,0.9161671809852123,0.0,0.0,therm,lowwf,highbf
230,83,230,champ,ch,ha,am,mp,c,h,a,m,p,,,0.5843097129836679,0.6804189337417483,0.792314691003412,0.9684145138598979,1.1203867909498513,0.0,0.0,champ,medwf,medbf
231,83,231,belly,be,el,ll,ly,b,e,l,l,y,,,0.564456719905138,0.7404098780825734,0.9003890380263329,1.0603845389559865,1.2525058193132281,0.0,0.0,belly,medwf,medbf
232,83,232,cheer,ch,he,ee,er,c,h,e,e,r,,,0.5684087751433253,0.6964549911208451,0.8325036182068288,0.9603887828998268,1.0804633959196508,0.0,0.0,cheer,medwf,highbf
233,83,233,there,th,he,er,re,t,h,e,r,e,,,0.6045639319345355,0.7645608107559383,0.900553388055414,1.0206583929248154,1.140623090788722,0.0,0.0,there,highwf,highbf
234,83,234,pykka,py,yk,kk,ka,p,y,k,k,a,,,0.9125764407217503,1.2005424546077847,1.6326506426557899,1.768647630698979,1.8406160776503384,0.0,0.0,pykka,pseudo,lowbf
235,83,235,heond,he,eo,on,nd,h,e,o,n,d,,,0.6525954096578062,0.7645598626695573,0.8685927176848054,1.052592203952372,1.1485905507579446,0.0,0.0,heond,pseudo,highbf
236,83,236,zibja,zi,ib,bj,ja,z,i,b,j,a,,,0.6725279288366437,0.8165335897356272,0.9285540566779673,1.0805759597569704,1.2004569070413709,0.0,0.0,zibja,pseudo,lowbf
237,83,237,haole,ha,ao,ol,le,h,a,o,l,e,,,0.7404518350958824,0.8763847132213414,1.348411372397095,1.5403858250938356,1.6364905051887035,0.0,0.0,haole,lowwf,medbf
238,83,238,druze,dr,ru,uz,ze,d,r,u,z,e,,,0.6004003332927823,1.000386514235288,1.2484993822872639,1.4245087830349803,1.6964903003536165,0.0,0.0,druze,lowwf,lowbf
239,83,239,haole,ha,ao,ol,le,h,a,o,l,e,,,0.7243222943507135,0.8762282291427255,1.3883426683023572,1.9803349100984633,2.060215118341148,0.0,0.0,haole,lowwf,medbf
