string,trials.thisRepN,trials.thisTrialN,trials.thisN,trials.thisIndex,trials_2.thisRepN,trials_2.thisTrialN,trials_2.thisN,trials_2.thisIndex,introduction.started,introduction.stopped,text.started,text.stopped,key_resp.keys,key_resp.rt,key_resp.started,key_resp.stopped,text_4.started,text_4.stopped,text_2.started,text_2.stopped,participant,session,date,expName,psychopyVersion,frameRate
kremp,0,0,0,21,,,,,18.7030821180088,None,38.2038100690115,42.2047574000026,"['k', 'r', 'e', 'm', 'p']","[0.7867752219899558, 0.9265715520014055, 1.0107761579856742, 1.224757710006088, 1.3447512399870902]",38.2038100690115,42.2047574000026,,,,,Ian_w_video,1,2020_Dec_02_2137,typingtask,2020.2.8,60.0150077088397
incan,0,1,1,16,,,,,,,44.1551625400025,48.1550430210191,"['i', 'n', 'c', 'a', 'n']","[0.6578731399786193, 0.7285341919923667, 0.8696501929953229, 0.9657334889925551, 1.0990439649904147]",44.1551625400025,48.1550430210191,,,,,Ian_w_video,1,2020_Dec_02_2137,typingtask,2020.2.8,60.0150077088397
crape,0,2,2,15,,,,,,,50.1377828090044,54.138527423027,"['c', 'r', 'a', 'p', 'e']","[0.6709710489958525, 0.8584750339796301, 0.9583787729789037, 1.1512921839894261, 1.2512015870015603]",50.1377828090044,54.138527423027,,,,,Ian_w_video,1,2020_Dec_02_2137,typingtask,2020.2.8,60.0150077088397
motel,0,3,3,9,,,,,,,56.1224887020071,60.1228991160169,"['m', 'o', 't', 'e', 'l']","[0.6289487369940616, 0.7320160910021514, 0.8609812689828686, 0.9570586939807981, 1.0649135099956766]",56.1224887020071,60.1228991160169,,,,,Ian_w_video,1,2020_Dec_02_2137,typingtask,2020.2.8,60.0150077088397
lumpo,0,4,4,18,,,,,,,62.1061209710024,66.1071738630126,"['l', 'u', 'm', 'p', 'o']","[0.6864583159913309, 0.8097802510019392, 1.0535414979967754, 1.2097173469956033, 1.3455765779945068]",62.1061209710024,66.1071738630126,,,,,Ian_w_video,1,2020_Dec_02_2137,typingtask,2020.2.8,60.0150077088397
zarsh,0,5,5,23,,,,,,,68.089762751013,72.0902337430161,"['z', 'a', 'r', 's', 'h']","[0.7798673240176868, 0.990841133025242, 1.0829357440234162, 1.394838737003738, 1.4906712220108602]",68.089762751013,72.0902337430161,,,,,Ian_w_video,1,2020_Dec_02_2137,typingtask,2020.2.8,60.0150077088397
reshy,0,6,6,19,,,,,,,74.0734567920154,78.0736020070035,"['r', 'e', 's', 'h', 'y']","[0.6533196340024006, 0.7155256239930168, 0.9066283179854508, 1.0263024139858317, 1.2164286339830142]",74.0734567920154,78.0736020070035,,,,,Ian_w_video,1,2020_Dec_02_2137,typingtask,2020.2.8,60.0150077088397
where,0,7,7,5,,,,,,,80.0574020910135,84.0578434780182,"['w', 'h', 'e', 'r', 'e']","[0.7187197190069128, 0.797512666991679, 0.8853497550007887, 0.9615264509920962, 1.0735605579975527]",80.0574020910135,84.0578434780182,,,,,Ian_w_video,1,2020_Dec_02_2137,typingtask,2020.2.8,60.0150077088397
wooer,0,8,8,13,,,,,,,86.0403219340078,90.0413268700067,"['w', 'o', 'o', 'e', 'r']","[0.6691265150147956, 0.7849419040139765, 0.9399842499988154, 1.0663094100018498, 1.1299540080071893]",86.0403219340078,90.0413268700067,,,,,Ian_w_video,1,2020_Dec_02_2137,typingtask,2020.2.8,60.0150077088397
loyal,0,9,9,6,,,,,,,92.0250994160015,96.0252436120063,"['l', 'o', 'y', 'a', 'l']","[0.6194043240102474, 0.8057790760067292, 1.1149617660266813, 1.3287534420087468, 1.4798365860187914]",92.0250994160015,96.0252436120063,,,,,Ian_w_video,1,2020_Dec_02_2137,typingtask,2020.2.8,60.0150077088397
wagon,0,10,10,7,,,,,,,98.0082703430089,102.008459097007,"['w', 'a', 'g', 'o', 'n']","[0.753859693009872, 0.8599186490173452, 1.0609701720240992, 1.1969003039994277, 1.2927248520136345]",98.0082703430089,102.008459097007,,,,,Ian_w_video,1,2020_Dec_02_2137,typingtask,2020.2.8,60.0150077088397
crawl,0,11,11,10,,,,,,,103.993453857023,107.992276685021,"['c', 'r', 'a', 'w', 'l']","[0.7023028249968775, 0.8915866790048312, 1.019548655982362, 1.1714854089950677, 1.4097071230062284]",103.993453857023,107.992276685021,,,,,Ian_w_video,1,2020_Dec_02_2137,typingtask,2020.2.8,60.0150077088397
wovet,0,12,12,22,,,,,,,109.99324590902,113.993285370001,"['w', 'o', 'v', 'e', 't']","[0.6894373419927433, 0.8214881109888665, 0.9255119129957166, 1.1056255080038682, 1.233470295992447]",109.99324590902,113.993285370001,,,,,Ian_w_video,1,2020_Dec_02_2137,typingtask,2020.2.8,60.0150077088397
there,0,13,13,0,,,,,,,115.976484813,119.975922231999,"['t', 'h', 'e', 'r', 'e']","[0.70177722198423, 0.8017478499969002, 0.8539406579802744, 0.9299012819828931, 1.0457459749886766]",115.976484813,119.975922231999,,,,,Ian_w_video,1,2020_Dec_02_2137,typingtask,2020.2.8,60.0150077088397
would,0,14,14,4,,,,,,,121.960552869015,125.959569311002,"['w', 'o', 'u', 'l', 'd']","[0.6473886420135386, 0.7902266340097412, 0.8781882090261206, 0.9823103620146867, 1.0942213060043287]",121.960552869015,125.959569311002,,,,,Ian_w_video,1,2020_Dec_02_2137,typingtask,2020.2.8,60.0150077088397
about,0,15,15,1,,,,,,,127.944732615026,131.960256153019,"['a', 'b', 'o', 'u', 't']","[0.8572450260107871, 1.0240472410223447, 1.2008779540192336, 1.272963247000007, 1.4228974470170215]",127.944732615026,131.960256153019,,,,,Ian_w_video,1,2020_Dec_02_2137,typingtask,2020.2.8,60.0150077088397
noire,0,16,16,17,,,,,,,133.944160150015,137.944602878008,"['n', 'o', 'i', 'r', 'e']","[0.6286076859978493, 0.804205666994676, 0.8641009500133805, 1.0491641190019436, 1.1532393369998317]",133.944160150015,137.944602878008,,,,,Ian_w_video,1,2020_Dec_02_2137,typingtask,2020.2.8,60.0150077088397
motor,0,17,17,11,,,,,,,139.928544648021,143.928658423014,"['m', 'o', 't', 'o', 'r']","[0.5663800729962531, 0.7101500909775496, 0.8144216259825043, 0.9061261939932592, 1.0283116479986347]",139.928544648021,143.928658423014,,,,,Ian_w_video,1,2020_Dec_02_2137,typingtask,2020.2.8,60.0150077088397
think,0,18,18,3,,,,,,,145.912320272007,149.912524702027,"['t', 'h', 'i', 'n', 'k']","[0.6493909909913782, 0.7250811419798993, 0.8170744389935862, 0.9732317279849667, 1.0450920049916022]",145.912320272007,149.912524702027,,,,,Ian_w_video,1,2020_Dec_02_2137,typingtask,2020.2.8,60.0150077088397
blong,0,19,19,20,,,,,,,151.895805485023,155.895860886027,"['b', 'l', 'o', 'n', 'g']","[0.6345129660039674, 0.7959508580097463, 0.9910794830066152, 1.0589676890231203, 1.1959118570084684]",151.895805485023,155.895860886027,,,,,Ian_w_video,1,2020_Dec_02_2137,typingtask,2020.2.8,60.0150077088397
yeses,0,20,20,14,,,,,,,157.87919303801,161.879948251008,"['y', 'e', 's', 'e', 's']","[0.9841716399823781, 1.0840568489802536, 1.3081053269852418, 1.5333991369989235, 1.6130646839737892]",157.87919303801,161.879948251008,,,,,Ian_w_video,1,2020_Dec_02_2137,typingtask,2020.2.8,60.0150077088397
right,0,21,21,2,,,,,,,163.862026575021,167.86345518101,"['r', 'i', 'g', 'h', 't']","[0.6705382469808683, 0.7974420870014001, 0.9013113630062435, 1.0173104089917615, 1.1012859279871918]",163.862026575021,167.86345518101,,,,,Ian_w_video,1,2020_Dec_02_2137,typingtask,2020.2.8,60.0150077088397
merry,0,22,22,8,,,,,,,169.846895298018,173.847421042999,"['m', 'e', 'r', 'r', 'y']","[0.646862842986593, 0.7820821169880219, 0.8540579619875643, 1.0380212019954342, 1.1750224399729632]",169.846895298018,173.847421042999,,,,,Ian_w_video,1,2020_Dec_02_2137,typingtask,2020.2.8,60.0150077088397
unhat,0,23,23,12,,,,,,,175.829905951017,179.830801719014,"['u', 'n', 'h', 'a', 't']","[0.633516136003891, 0.8513974020024762, 1.0474802250100765, 1.1825700130139012, 1.3023795619956218]",175.829905951017,179.830801719014,,,,,Ian_w_video,1,2020_Dec_02_2137,typingtask,2020.2.8,60.0150077088397
loyal,1,0,24,6,,,,,,,181.814559472026,185.814744219999,"['l', 'o', 'y', 'a', 'l']","[0.6205547629797366, 0.811504219978815, 0.968658878991846, 1.2002899879880715, 1.4394322169828229]",181.814559472026,185.814744219999,,,,,Ian_w_video,1,2020_Dec_02_2137,typingtask,2020.2.8,60.0150077088397
merry,1,1,25,8,,,,,,,187.798398116021,191.798347348027,"['m', 'e', 'r', 'r', 'y']","[0.5703001619840506, 0.7112316459824797, 0.7670646990009118, 0.9541964709933382, 1.086363847978646]",187.798398116021,191.798347348027,,,,,Ian_w_video,1,2020_Dec_02_2137,typingtask,2020.2.8,60.0150077088397
where,1,2,26,5,,,,,,,193.781898678018,197.782314798009,"['w', 'h', 'e', 'r', 'e']","[0.6133402309787925, 0.7132647849794012, 0.8093000939988997, 0.8814188589749392, 1.0011367719853297]",193.781898678018,197.782314798009,,,,,Ian_w_video,1,2020_Dec_02_2137,typingtask,2020.2.8,60.0150077088397
kremp,1,3,27,21,,,,,,,199.765022426,203.766279390024,"['k', 'r', 'e', 'm', 'p']","[0.7627215519896708, 0.9228324299911037, 1.0227392060041893, 1.1896847489988431, 1.313591615005862]",199.765022426,203.766279390024,,,,,Ian_w_video,1,2020_Dec_02_2137,typingtask,2020.2.8,60.0150077088397
motor,1,4,28,11,,,,,,,205.749209503003,209.749638671026,"['m', 'o', 't', 'o', 'r']","[0.5652922200097237, 0.6972153749957215, 0.8179452329932246, 0.9240674809843767, 1.0189769839926157]",205.749209503003,209.749638671026,,,,,Ian_w_video,1,2020_Dec_02_2137,typingtask,2020.2.8,60.0150077088397
about,1,5,29,1,,,,,,,211.733053052012,215.733546576026,"['a', 'b', 'o', 'u', 't']","[0.6378463320143055, 0.7700339870061725, 0.9369260079984087, 0.9847108090179972, 1.1366106870118529]",211.733053052012,215.733546576026,,,,,Ian_w_video,1,2020_Dec_02_2137,typingtask,2020.2.8,60.0150077088397
motel,1,6,30,9,,,,,,,217.716276447027,221.716770948027,"['m', 'o', 't', 'e', 'l']","[0.608351942995796, 0.7842857270152308, 0.8881335059995763, 1.0601883030030876, 1.1921873330138624]",217.716276447027,221.716770948027,,,,,Ian_w_video,1,2020_Dec_02_2137,typingtask,2020.2.8,60.0150077088397
think,1,7,31,3,,,,,,,223.700592943002,227.700959677022,"['t', 'h', 'i', 'n', 'k']","[0.6084735229960643, 0.708472933009034, 0.8123064459941816, 0.9682953539886512, 1.0484722510154825]",223.700592943002,227.700959677022,,,,,Ian_w_video,1,2020_Dec_02_2137,typingtask,2020.2.8,60.0150077088397
would,1,8,32,4,,,,,,,229.683645074023,233.684821464005,"['w', 'o', 'u', 'l', 'd']","[0.6078811409824993, 0.7239974089898169, 0.7959812549815979, 0.9079913719906472, 1.021960907994071]",229.683645074023,233.684821464005,,,,,Ian_w_video,1,2020_Dec_02_2137,typingtask,2020.2.8,60.0150077088397
lumpo,1,9,33,18,,,,,,,235.667942579021,239.683618819021,"['l', 'u', 'm', 'p', 'o']","[0.5681356950080954, 0.688228834012989, 0.9192363579932135, 1.0873252880119253, 1.1590356999950018]",235.667942579021,239.683618819021,,,,,Ian_w_video,1,2020_Dec_02_2137,typingtask,2020.2.8,60.0150077088397
right,1,10,34,2,,,,,,,241.652170189016,245.652469771012,"['r', 'i', 'g', 'h', 't']","[0.5834402500186116, 0.7245953050151002, 0.8245902900234796, 0.9446105920069385, 1.0284627820074093]",241.652170189016,245.652469771012,,,,,Ian_w_video,1,2020_Dec_02_2137,typingtask,2020.2.8,60.0150077088397
crape,1,11,35,15,,,,,,,247.636145393015,251.636078135023,"['c', 'r', 'a', 'p', 'e']","[0.6271717920026276, 0.8601931009907275, 0.9670049189880956, 1.1411723920027725, 1.2411537019943353]",247.636145393015,251.636078135023,,,,,Ian_w_video,1,2020_Dec_02_2137,typingtask,2020.2.8,60.0150077088397
blong,1,12,36,20,,,,,,,253.619305300002,257.619914195006,"['b', 'l', 'o', 'n', 'g']","[0.6124460799910594, 0.7954935989982914, 0.9725757889973465, 1.03296228198451, 1.1566318209806923]",253.619305300002,257.619914195006,,,,,Ian_w_video,1,2020_Dec_02_2137,typingtask,2020.2.8,60.0150077088397
zarsh,1,13,37,23,,,,,,,259.603311382001,263.603467726003,"['z', 'a', 'r', 's', 'h']","[0.7127950429858174, 0.9284874629811384, 1.0084559209935833, 1.2734326089848764, 1.3974089690018445]",259.603311382001,263.603467726003,,,,,Ian_w_video,1,2020_Dec_02_2137,typingtask,2020.2.8,60.0150077088397
unhat,1,14,38,12,,,,,,,265.586588484002,269.587085064006,"['u', 'n', 'h', 'a', 't']","[0.6166631059895735, 0.8498503640003037, 1.0345268939854577, 1.1377788149984553, 1.2257400149828754]",265.586588484002,269.587085064006,,,,,Ian_w_video,1,2020_Dec_02_2137,typingtask,2020.2.8,60.0150077088397
there,1,15,39,0,,,,,,,271.569685870025,275.570343287021,"['t', 'h', 'r', 'e', 'r', 'e']","[0.62927193599171, 0.7292614500038326, 0.8383009860117454, 0.8823658430192154, 1.0223287960106973, 1.106102390011074]",271.569685870025,275.570343287021,,,,,Ian_w_video,1,2020_Dec_02_2137,typingtask,2020.2.8,60.0150077088397
wagon,1,16,40,7,,,,,,,277.554612337,281.554746701004,"['w', 'a', 'g', 'o', 'n']","[0.548963275999995, 0.6728761799749918, 0.7969093209831044, 0.9529741209989879, 1.0529337019834202]",277.554612337,281.554746701004,,,,,Ian_w_video,1,2020_Dec_02_2137,typingtask,2020.2.8,60.0150077088397
crawl,1,17,41,10,,,,,,,283.538362539024,287.538127843,"['c', 'r', 'a', 'w', 'l']","[0.5947288160095923, 0.7987446199986152, 0.8985592419921886, 1.0065325070172548, 1.2355618409928866]",283.538362539024,287.538127843,,,,,Ian_w_video,1,2020_Dec_02_2137,typingtask,2020.2.8,60.0150077088397
noire,1,18,42,17,,,,,,,289.521824407013,293.522394001018,"['n', 'o', 'i', 'r', 'e']","[0.6150042389926966, 0.7955866849806625, 0.855582644988317, 1.0159100469900295, 1.119839011982549]",289.521824407013,293.522394001018,,,,,Ian_w_video,1,2020_Dec_02_2137,typingtask,2020.2.8,60.0150077088397
yeses,1,19,43,14,,,,,,,295.520811427006,299.522595691,"['y', 'e', 's', 'e', 's']","[0.9413869039854035, 1.1893678499909583, 1.4123545579786878, 1.5982780949852895, 1.7273304569825996]",295.520811427006,299.522595691,,,,,Ian_w_video,1,2020_Dec_02_2137,typingtask,2020.2.8,60.0150077088397
incan,1,20,44,16,,,,,,,301.506197477021,305.506068132003,"['i', 'n', 'c', 'a', 'n']","[0.6545807259972207, 0.7306194769917056, 0.8585730659833644, 0.9785743129905313, 1.0706035799812526]",301.506197477021,305.506068132003,,,,,Ian_w_video,1,2020_Dec_02_2137,typingtask,2020.2.8,60.0150077088397
wovet,1,21,45,22,,,,,,,307.490171238023,311.490244439017,"['w', 'o', 'v', 'e', 't']","[0.7921763399790507, 0.9251578399853315, 1.0986256999894977, 1.2721108319819905, 1.3800787759828381]",307.490171238023,311.490244439017,,,,,Ian_w_video,1,2020_Dec_02_2137,typingtask,2020.2.8,60.0150077088397
wooer,1,22,46,13,,,,,,,313.473781850014,317.473868084024,"['w', 'o', 'o', 'e', 'r']","[0.5941406339989044, 0.7060516040073708, 0.8679032539948821, 0.9470714739873074, 1.0071149180002976]",313.473781850014,317.473868084024,,,,,Ian_w_video,1,2020_Dec_02_2137,typingtask,2020.2.8,60.0150077088397
reshy,1,23,47,19,,,,,,,319.456955353002,323.457485176012,"['r', 'e', 's', 'h', 'y']","[0.6614982740138657, 0.7534612630261108, 0.8734870600164868, 1.0013575470075011, 1.1815009910205845]",319.456955353002,323.457485176012,,,,,Ian_w_video,1,2020_Dec_02_2137,typingtask,2020.2.8,60.0150077088397
wagon,2,0,48,7,,,,,,,325.441826562019,329.441319087025,"['w', 'a', 'g', 'o', 'n']","[0.561236363981152, 0.6730253339919727, 0.7852845289744437, 0.9372985169757158, 1.0171314920007717]",325.441826562019,329.441319087025,,,,,Ian_w_video,1,2020_Dec_02_2137,typingtask,2020.2.8,60.0150077088397
crape,2,1,49,15,,,,,,,331.424365528015,335.424921887025,"['c', 'r', 'a', 'p', 'e']","[0.5833448589837644, 0.7890518899948802, 0.8770218499994371, 1.103336539992597, 1.2551969289779663]",331.424365528015,335.424921887025,,,,,Ian_w_video,1,2020_Dec_02_2137,typingtask,2020.2.8,60.0150077088397
right,2,2,50,2,,,,,,,337.408757971018,341.408882257005,"['r', 'i', 'g', 'h', 't']","[0.5645980520057492, 0.7123990140098613, 0.7924316069984343, 0.9063531899882946, 0.9824937070079613]",337.408757971018,341.408882257005,,,,,Ian_w_video,1,2020_Dec_02_2137,typingtask,2020.2.8,60.0150077088397
there,2,3,51,0,,,,,,,343.392158770002,347.392483139003,"['t', 'h', 'e', 'r', 'e']","[0.5556214689859189, 0.6674331079993863, 0.7514555569796357, 0.7997066559910309, 0.9317405649926513]",343.392158770002,347.392483139003,,,,,Ian_w_video,1,2020_Dec_02_2137,typingtask,2020.2.8,60.0150077088397
yeses,2,4,52,14,,,,,,,349.37614006002,353.376218888006,"['y', 'e', 's', 'e', 's']","[0.8441534439916722, 0.9641723279783037, 1.0840130689903162, 1.300203168997541, 1.4322115859831683]",349.37614006002,353.376218888006,,,,,Ian_w_video,1,2020_Dec_02_2137,typingtask,2020.2.8,60.0150077088397
would,2,5,53,4,,,,,,,355.359329029015,359.359948618017,"['w', 'o', 'u', 'l', 'd']","[0.6294547189900186, 0.767365289008012, 0.8354264019872062, 0.9435576619871426, 1.023551869991934]",355.359329029015,359.359948618017,,,,,Ian_w_video,1,2020_Dec_02_2137,typingtask,2020.2.8,60.0150077088397
wovet,2,6,54,22,,,,,,,361.343224081007,365.343328937015,"['w', 'o', 'v', 'e', 't']","[0.5741389649920166, 0.6902561809984036, 0.786204303993145, 0.9522066159988753, 1.0402312579972204]",361.343224081007,365.343328937015,,,,,Ian_w_video,1,2020_Dec_02_2137,typingtask,2020.2.8,60.0150077088397
loyal,2,7,55,6,,,,,,,367.327284294006,371.327678029018,"['l', 'o', 'y', 'a', 'l']","[0.551620696001919, 0.7447453490167391, 0.8368025920062792, 1.0698397500091232, 1.2185415090061724]",367.327284294006,371.327678029018,,,,,Ian_w_video,1,2020_Dec_02_2137,typingtask,2020.2.8,60.0150077088397
incan,2,8,56,16,,,,,,,373.310840808001,377.311269063008,"['i', 'n', 'c', 'a', 'n']","[0.5649331180029549, 0.6341267419920769, 0.7527469939959701, 0.856771512015257, 0.9727592690032907]",373.310840808001,377.311269063008,,,,,Ian_w_video,1,2020_Dec_02_2137,typingtask,2020.2.8,60.0150077088397
where,2,9,57,5,,,,,,,379.310170700017,383.310253366013,"['w', 'h', 'e', 'r', 'e']","[0.5448114390019327, 0.650305893010227, 0.7208022740087472, 0.7688760140154045, 0.8808518830046523]",379.310170700017,383.310253366013,,,,,Ian_w_video,1,2020_Dec_02_2137,typingtask,2020.2.8,60.0150077088397
merry,2,10,58,8,,,,,,,385.295111814019,389.294239381008,"['m', 'e', 'r', 'r', 'y']","[0.5977458540000953, 0.7136804109904915, 0.7816747839970049, 0.9844411730009597, 1.086573453998426]",385.295111814019,389.294239381008,,,,,Ian_w_video,1,2020_Dec_02_2137,typingtask,2020.2.8,60.0150077088397
lumpo,2,11,59,18,,,,,,,391.278598073026,395.27913319401,"['l', 'u', 'j', 'o']","[0.5806613299937453, 0.6956934930058196, 0.8975822409847751, 1.4606891569856089]",391.278598073026,395.27913319401,,,,,Ian_w_video,1,2020_Dec_02_2137,typingtask,2020.2.8,60.0150077088397
zarsh,2,12,60,23,,,,,,,397.263007048023,401.262878769019,"['z', 'a', 'r', 's', 'h']","[0.6699500230024569, 0.8859235359996092, 0.9660075349966064, 1.1558265509956982, 1.2867599159944803]",397.263007048023,401.262878769019,,,,,Ian_w_video,1,2020_Dec_02_2137,typingtask,2020.2.8,60.0150077088397
crawl,2,13,61,10,,,,,,,403.246540029009,407.246950516012,"['c', 'r', 'a', 'w', 'l']","[0.6416985540126916, 0.85790194402216, 0.9668362090014853, 1.0787534590053838, 1.2958024220133666]",403.246540029009,407.246950516012,,,,,Ian_w_video,1,2020_Dec_02_2137,typingtask,2020.2.8,60.0150077088397
wooer,2,14,62,13,,,,,,,409.245537219016,413.247042840027,"['w', 'o', 'o', 'e', 'r']","[0.6115049860090949, 0.7414323569973931, 0.9055748250102624, 0.9984352460014634, 1.0624401370005216]",409.245537219016,413.247042840027,,,,,Ian_w_video,1,2020_Dec_02_2137,typingtask,2020.2.8,60.0150077088397
unhat,2,15,63,12,,,,,,,415.230414678023,419.231084499013,"['u', 'n', 'h', 'a', 't']","[0.6431859179865569, 0.8609461809974164, 1.101124885986792, 1.233246544987196, 1.3289374540036079]",415.230414678023,419.231084499013,,,,,Ian_w_video,1,2020_Dec_02_2137,typingtask,2020.2.8,60.0150077088397
about,2,16,64,1,,,,,,,421.230230168003,425.231036464014,"['a', 'b', 'o', 'u', 't']","[0.6319921660178807, 0.7628216680022888, 0.9339231280027889, 1.005896393005969, 1.1178294230194297]",421.230230168003,425.231036464014,,,,,Ian_w_video,1,2020_Dec_02_2137,typingtask,2020.2.8,60.0150077088397
reshy,2,17,65,19,,,,,,,427.214493295003,431.214890721021,"['r', 'e', 's', 'h', 'y']","[0.5572499700065237, 0.6493055979954079, 0.7850699730042834, 0.9130496459838469, 1.0790311410091817]",427.214493295003,431.214890721021,,,,,Ian_w_video,1,2020_Dec_02_2137,typingtask,2020.2.8,60.0150077088397
think,2,18,66,3,,,,,,,433.198282732017,437.198755863006,"['t', 'h', 'i', 'n', 'k']","[0.6918575780000538, 0.7678574640012812, 0.8718811970029492, 1.0348296200099867, 1.090990922995843]",433.198282732017,437.198755863006,,,,,Ian_w_video,1,2020_Dec_02_2137,typingtask,2020.2.8,60.0150077088397
blong,2,19,67,20,,,,,,,439.18129195401,443.182268260018,"['b', 'l', 'o', 'n', 'g']","[0.6555224810144864, 0.8303932510025334, 1.011338901007548, 1.0716542640002444, 1.2405242279928643]",439.18129195401,443.182268260018,,,,,Ian_w_video,1,2020_Dec_02_2137,typingtask,2020.2.8,60.0150077088397
kremp,2,20,68,21,,,,,,,445.166816021025,449.166079874005,"['k', 'r', 'e', 'm', 'p']","[0.6368023860268295, 0.802750697999727, 0.8984628900070675, 1.0527046839997638, 1.2245783210091759]",445.166816021025,449.166079874005,,,,,Ian_w_video,1,2020_Dec_02_2137,typingtask,2020.2.8,60.0150077088397
motel,2,21,69,9,,,,,,,451.149951523024,455.149603753001,"['m', 'o', 't', 'e', 'l']","[0.5400571780046448, 0.6718875340011436, 0.7681322069838643, 0.8991645039932337, 1.0109788969857618]",451.149951523024,455.149603753001,,,,,Ian_w_video,1,2020_Dec_02_2137,typingtask,2020.2.8,60.0150077088397
noire,2,22,70,17,,,,,,,457.133359400003,461.133707579022,"['n', 'o', 'i', 'r', 'e']","[0.5782466880045831, 0.7363072510052007, 0.7960582590021659, 0.928199260000838, 1.0001349569938611]",457.133359400003,461.133707579022,,,,,Ian_w_video,1,2020_Dec_02_2137,typingtask,2020.2.8,60.0150077088397
motor,2,23,71,11,,,,,,,463.132576438016,467.133892502025,"['m', 'o', 't', 'o', 'r']","[0.5275798749935348, 0.6837846429843921, 0.7974007799930405, 0.8894775479857344, 0.9895010249747429]",463.132576438016,467.133892502025,,,,,Ian_w_video,1,2020_Dec_02_2137,typingtask,2020.2.8,60.0150077088397
loyal,3,0,72,6,,,,,,,469.117306655011,473.118172061018,"['l', 'o', 'y', 'a', 'l']","[0.5603241409990005, 0.7673715240089223, 0.8642425019934308, 1.0714617600024212, 1.2113456660008524]",469.117306655011,473.118172061018,,,,,Ian_w_video,1,2020_Dec_02_2137,typingtask,2020.2.8,60.0150077088397
right,3,1,73,2,,,,,,,475.101513400004,479.101777285017,"['r', 'i', 'g', 'h', 't']","[0.5368028600059915, 0.6659350770059973, 0.7665139889868442, 0.8757363109907601, 0.9577351709885988]",475.101513400004,479.101777285017,,,,,Ian_w_video,1,2020_Dec_02_2137,typingtask,2020.2.8,60.0150077088397
blong,3,2,74,20,,,,,,,481.08500309402,485.084895243024,"['b', 'l', 'o', 'n', 'g']","[0.5558415240084287, 0.7406746009946801, 0.9268162320076954, 0.9788143259938806, 1.1158742530096788]",481.08500309402,485.084895243024,,,,,Ian_w_video,1,2020_Dec_02_2137,typingtask,2020.2.8,60.0150077088397
merry,3,3,75,8,,,,,,,487.068861198,491.068874252,"['m', 'e', 'r', 'r', 'y']","[0.5704404200077988, 0.7065515610156581, 0.7866175800154451, 0.9565451710077468, 1.0646950869995635]",487.068861198,491.068874252,,,,,Ian_w_video,1,2020_Dec_02_2137,typingtask,2020.2.8,60.0150077088397
where,3,4,76,5,,,,,,,493.052147709008,497.05287404501,"['w', 'h', 'e', 'r', 'e']","[0.5587963560246862, 0.6626156569982413, 0.7466249630087987, 0.798863069008803, 0.9200320110248867]",493.052147709008,497.05287404501,,,,,Ian_w_video,1,2020_Dec_02_2137,typingtask,2020.2.8,60.0150077088397
yeses,3,5,77,14,,,,,,,499.036072040006,503.036883737019,"['y', 'e', 's', 'e', 's']","[0.8614226680074353, 1.0875293709977996, 1.2923888840014115, 1.3682801309914794, 1.519308054994326]",499.036072040006,503.036883737019,,,,,Ian_w_video,1,2020_Dec_02_2137,typingtask,2020.2.8,60.0150077088397
unhat,3,6,78,12,,,,,,,505.020114399027,509.036425811006,"['u', 'n', 'h', 'a', 't']","[0.6579602819983847, 0.8849256640241947, 1.0689219250052702, 1.1708540880063083, 1.246869251015596]",505.020114399027,509.036425811006,,,,,Ian_w_video,1,2020_Dec_02_2137,typingtask,2020.2.8,60.0150077088397
think,3,7,79,3,,,,,,,511.003634045017,515.004192011023,"['t', 'h', 'i', 'n', 'k']","[0.5831942429940682, 0.6750575639889576, 0.7670506300055422, 0.9310024600126781, 1.0030977290007286]",511.003634045017,515.004192011023,,,,,Ian_w_video,1,2020_Dec_02_2137,typingtask,2020.2.8,60.0150077088397
motel,3,8,80,9,,,,,,,516.986921611009,520.987758713018,"['m', 'o', 't', 'e', 'l']","[0.5591292009921744, 0.7191947800165508, 0.8312657600035891, 0.9433144369977526, 1.056295868998859]",516.986921611009,520.987758713018,,,,,Ian_w_video,1,2020_Dec_02_2137,typingtask,2020.2.8,60.0150077088397
motor,3,9,81,11,,,,,,,522.971044353006,526.971350259002,"['m', 'o', 't', 'o', 'r']","[0.5387104639958125, 0.6906613540195394, 0.8126388660166413, 0.9087559769977815, 1.0126238939992618]",522.971044353006,526.971350259002,,,,,Ian_w_video,1,2020_Dec_02_2137,typingtask,2020.2.8,60.0150077088397
incan,3,10,82,16,,,,,,,528.971648706007,532.971048072999,"['i', 'n', 'c', 'a', 'n']","[0.5619025889900513, 0.6455769059830345, 0.7777366369846277, 0.8817275099863764, 1.0022432669939008]",528.971648706007,532.971048072999,,,,,Ian_w_video,1,2020_Dec_02_2137,typingtask,2020.2.8,60.0150077088397
lumpo,3,11,83,18,,,,,,,534.938624501025,538.938744948013,"['l', 'u', 'm', 'p', 'o']","[0.5535013200133108, 0.6933425670140423, 0.9291944080032408, 1.1172626260085963, 1.185197340004379]",534.938624501025,538.938744948013,,,,,Ian_w_video,1,2020_Dec_02_2137,typingtask,2020.2.8,60.0150077088397
wovet,3,12,84,22,,,,,,,540.923657445004,544.922838475002,"['w', 'o', 'v', 'e', 't']","[0.6738821070175618, 0.8140221030043904, 0.9788357310171705, 1.147000229015248, 1.242832168994937]",540.923657445004,544.922838475002,,,,,Ian_w_video,1,2020_Dec_02_2137,typingtask,2020.2.8,60.0150077088397
about,3,13,85,1,,,,,,,546.905322189006,550.906841497024,"['a', 'b', 'o', 'u', 't']","[0.5607824710023124, 0.6888267939793877, 0.8538793819898274, 0.9218324479879811, 1.0218240219983272]",546.905322189006,550.906841497024,,,,,Ian_w_video,1,2020_Dec_02_2137,typingtask,2020.2.8,60.0150077088397
would,3,14,86,4,,,,,,,552.889621423004,556.890377233009,"['w', 'o', 'u', 'l', 'd']","[0.656052334990818, 0.7718379290017765, 0.8519274730060715, 0.96406313899206, 1.067865196004277]",552.889621423004,556.890377233009,,,,,Ian_w_video,1,2020_Dec_02_2137,typingtask,2020.2.8,60.0150077088397
zarsh,3,15,87,23,,,,,,,558.872981347027,562.874172452022,"['z', 'a', 'r', 's', 'h']","[0.622246743994765, 0.8201424519938882, 0.9004297689825762, 1.0812360160052776, 1.2240461570036132]",558.872981347027,562.874172452022,,,,,Ian_w_video,1,2020_Dec_02_2137,typingtask,2020.2.8,60.0150077088397
there,3,16,88,0,,,,,,,564.874065796001,568.874441112013,"['t', 'h', 'e', 'r', 'e']","[0.5358839069958776, 0.6436075560050085, 0.7117660270014312, 0.7597757210023701, 0.8837380009936169]",564.874065796001,568.874441112013,,,,,Ian_w_video,1,2020_Dec_02_2137,typingtask,2020.2.8,60.0150077088397
reshy,3,17,89,19,,,,,,,570.857935938024,574.85837611201,"['r', 'e', 's', 'h', 'y']","[0.5495595829852391, 0.6414550059998874, 0.7534374269889668, 0.8793047700019088, 1.044405143999029]",570.857935938024,574.85837611201,,,,,Ian_w_video,1,2020_Dec_02_2137,typingtask,2020.2.8,60.0150077088397
noire,3,18,90,17,,,,,,,576.841883319023,580.842082777002,"['n', 'o', 'i', 'r', 'e']","[0.5542050439980812, 0.7230486590124201, 0.7910603620111942, 0.9168760500033386, 0.9848975200147834]",576.841883319023,580.842082777002,,,,,Ian_w_video,1,2020_Dec_02_2137,typingtask,2020.2.8,60.0150077088397
wooer,3,19,91,13,,,,,,,582.824621101026,586.825625308004,"['w', 'o', 'o', 'e', 'r']","[0.5897343669785187, 0.717809245979879, 0.8748347899818327, 0.9509074679808691, 1.0106681220058817]",582.824621101026,586.825625308004,,,,,Ian_w_video,1,2020_Dec_02_2137,typingtask,2020.2.8,60.0150077088397
kremp,3,20,92,21,,,,,,,588.809559869027,592.809371681011,"['k', 'r', 'e', 'm', 'p']","[0.5894924519816414, 0.7094838929770049, 0.7894742429780308, 0.905466093972791, 1.0613005039922427]",588.809559869027,592.809371681011,,,,,Ian_w_video,1,2020_Dec_02_2137,typingtask,2020.2.8,60.0150077088397
wagon,3,21,93,7,,,,,,,594.792703779007,598.793066373008,"['w', 'a', 'g', 'o', 'n']","[0.5990261109836865, 0.7629148129781242, 0.8668559399957303, 1.0149254649877548, 1.0909402819816023]",594.792703779007,598.793066373008,,,,,Ian_w_video,1,2020_Dec_02_2137,typingtask,2020.2.8,60.0150077088397
crape,3,22,94,15,,,,,,,600.776408589009,604.776600783021,"['c', 'r', 'a', 'p', 'e']","[0.6598505489819217, 0.8548593369778246, 0.9467091139813419, 1.1346236829995178, 1.2427344959869515]",600.776408589009,604.776600783021,,,,,Ian_w_video,1,2020_Dec_02_2137,typingtask,2020.2.8,60.0150077088397
crawl,3,23,95,10,,,,,,,606.777107719012,610.77702122202,"['c', 'r', 'a', 'w', 'l']","[0.519709779007826, 0.7148187790007796, 0.8149043830053415, 0.9386388089915272, 1.1514934489969164]",606.777107719012,610.77702122202,,,,,Ian_w_video,1,2020_Dec_02_2137,typingtask,2020.2.8,60.0150077088397
there,4,0,96,0,,,,,,,612.743806604005,616.744636702002,"['t', 'h', 'e', 'r', 'e']","[0.5353677819948643, 0.6584969050018117, 0.7224897140113171, 0.7717109119985253, 0.894345388020156]",612.743806604005,616.744636702002,,,,,Ian_w_video,1,2020_Dec_02_2137,typingtask,2020.2.8,60.0150077088397
motor,4,1,97,11,,,,,,,618.727812332014,622.727983723016,"['m', 'o', 't', 'o', 'r']","[0.5520497230172623, 0.6960561780142598, 0.8091040670115035, 0.8970889470074326, 1.0080895950086415]",618.727812332014,622.727983723016,,,,,Ian_w_video,1,2020_Dec_02_2137,typingtask,2020.2.8,60.0150077088397
merry,4,2,98,8,,,,,,,624.711837200011,628.711882582022,"['m', 'e', 'r', 'r', 'y']","[0.5296745419909712, 0.6776582959864754, 0.7455271930084564, 0.925628819008125, 1.0756221060000826]",624.711837200011,628.711882582022,,,,,Ian_w_video,1,2020_Dec_02_2137,typingtask,2020.2.8,60.0150077088397
kremp,4,3,99,21,,,,,,,630.695305661007,634.695416879025,"['k', 'r', 'e', 'm', 'p']","[0.5955941479769535, 0.7158111059980001, 0.803823658003239, 0.891688964999048, 1.0557366969878785]",630.695305661007,634.695416879025,,,,,Ian_w_video,1,2020_Dec_02_2137,typingtask,2020.2.8,60.0150077088397
wovet,4,4,100,22,,,,,,,636.679003645026,640.679664906027,"['w', 'o', 'v', 'e', 't']","[0.5537513219751418, 0.6855938749795314, 0.8014474799856544, 0.9876635369728319, 1.0529100869898684]",636.679003645026,640.679664906027,,,,,Ian_w_video,1,2020_Dec_02_2137,typingtask,2020.2.8,60.0150077088397
noire,4,5,101,17,,,,,,,642.662579029013,646.663147157,"['n', 'o', 'i', 'r', 'e']","[0.6586293920117896, 0.8376394799852278, 0.913539878994925, 1.0096035889873747, 1.09358893398894]",642.662579029013,646.663147157,,,,,Ian_w_video,1,2020_Dec_02_2137,typingtask,2020.2.8,60.0150077088397
motel,4,6,102,9,,,,,,,648.646450704022,652.646541987022,"['m', 'o', 't', 'e', 'l']","[0.5485771739913616, 0.6923630429955665, 0.7961789020046126, 0.8922789969947189, 1.0172200569941197]",648.646450704022,652.646541987022,,,,,Ian_w_video,1,2020_Dec_02_2137,typingtask,2020.2.8,60.0150077088397
crawl,4,7,103,10,,,,,,,654.645859234006,658.647243019019,"['c', 'r', 'a', 'w', 'l']","[0.5394511850026902, 0.745481046003988, 0.8254774029774126, 0.9375727599835955, 1.1484139179810882]",654.645859234006,658.647243019019,,,,,Ian_w_video,1,2020_Dec_02_2137,typingtask,2020.2.8,60.0150077088397
zarsh,4,8,104,23,,,,,,,660.630758278014,664.631012304017,"['z', 'a', 'r', 's', 'h']","[0.5671587249962613, 0.7901410110061988, 0.8662485859822482, 1.0372310029924847, 1.1909390939981677]",660.630758278014,664.631012304017,,,,,Ian_w_video,1,2020_Dec_02_2137,typingtask,2020.2.8,60.0150077088397
unhat,4,9,105,12,,,,,,,666.614752873022,670.614898167027,"['u', 'n', 'h', 'a', 't']","[0.5955113089876249, 0.8087143549928442, 1.0036937659897376, 1.13181199398241, 1.2161846329981927]",666.614752873022,670.614898167027,,,,,Ian_w_video,1,2020_Dec_02_2137,typingtask,2020.2.8,60.0150077088397
yeses,4,10,106,14,,,,,,,672.598266838002,676.598112025007,"['y', 'e', 's', 'e', 's']","[0.7626873189874459, 0.9538175679917913, 1.1845894620055333, 1.288622663996648, 1.4217917319911066]",672.598266838002,676.598112025007,,,,,Ian_w_video,1,2020_Dec_02_2137,typingtask,2020.2.8,60.0150077088397
loyal,4,11,107,6,,,,,,,678.58104525102,682.582036134001,"['l', 'o', 'y', 'a', 'l']","[0.5135159039928112, 0.7104030280024745, 0.8385797640075907, 1.0805120290024206, 1.232813818991417]",678.58104525102,682.582036134001,,,,,Ian_w_video,1,2020_Dec_02_2137,typingtask,2020.2.8,60.0150077088397
right,4,12,108,2,,,,,,,684.565513829002,688.566173168016,"['r', 'i', 'g', 'h', 't']","[0.5675218109972775, 0.6956673680106178, 0.7955418610072229, 0.8916631900065113, 0.9776639830088243]",684.565513829002,688.566173168016,,,,,Ian_w_video,1,2020_Dec_02_2137,typingtask,2020.2.8,60.0150077088397
about,4,13,109,1,,,,,,,690.549723335018,694.549868549017,"['a', 'b', 'o', 'u', 't']","[0.6110436859889887, 0.7390391289955005, 0.8929771379916929, 0.9690034379891586, 1.0969711289799307]",690.549723335018,694.549868549017,,,,,Ian_w_video,1,2020_Dec_02_2137,typingtask,2020.2.8,60.0150077088397
crape,4,14,110,15,,,,,,,696.533826044004,700.53321732601,"['c', 'r', 'a', 'p', 'e']","[0.5854556040139869, 0.8013364970101975, 0.8894948149973061, 1.098558101017261, 1.194481109996559]",696.533826044004,700.53321732601,,,,,Ian_w_video,1,2020_Dec_02_2137,typingtask,2020.2.8,60.0150077088397
incan,4,15,111,16,,,,,,,702.516921435017,706.517450418003,"['i', 'n', 'a', 'c', 'n']","[0.5609798850200605, 0.6409815560036805, 0.788848312018672, 0.8650245780008845, 1.067782805999741]",702.516921435017,706.517450418003,,,,,Ian_w_video,1,2020_Dec_02_2137,typingtask,2020.2.8,60.0150077088397
think,4,16,112,3,,,,,,,708.500638296013,712.500529177021,"['t', 'h', 'i', 'n', 'k']","[0.5468307010014541, 0.6228359839878976, 0.718830881989561, 0.902808257000288, 0.9626158379833214]",708.500638296013,712.500529177021,,,,,Ian_w_video,1,2020_Dec_02_2137,typingtask,2020.2.8,60.0150077088397
wagon,4,17,113,7,,,,,,,714.484530455025,718.484808597015,"['w', 'a', 'g', 'o', 'n']","[0.6244289920141455, 0.7404722520150244, 0.8765266490227077, 1.0325641140225343, 1.120590661012102]",714.484530455025,718.484808597015,,,,,Ian_w_video,1,2020_Dec_02_2137,typingtask,2020.2.8,60.0150077088397
lumpo,4,18,114,18,,,,,,,720.468061525025,724.468059597013,"['l', 'u', 'm', 'p', 'o']","[0.5317500219971407, 0.6835970889951568, 0.9105225039820652, 1.114598518004641, 1.1505892039858736]",720.468061525025,724.468059597013,,,,,Ian_w_video,1,2020_Dec_02_2137,typingtask,2020.2.8,60.0150077088397
wooer,4,19,115,13,,,,,,,726.452167790005,730.452280082012,"['w', 'o', 'o', 'e', 'r']","[0.591005784983281, 0.7189382519864012, 0.8738665879936889, 0.9379768409999087, 0.9980178329860792]",726.452167790005,730.452280082012,,,,,Ian_w_video,1,2020_Dec_02_2137,typingtask,2020.2.8,60.0150077088397
where,4,20,116,5,,,,,,,732.435874200019,736.435961827025,"['w', 'h', 'e', 'r', 'e']","[0.5639001259987708, 0.6998504629882518, 0.7837166140088812, 0.8677018489979673, 0.9798304550058674]",732.435874200019,736.435961827025,,,,,Ian_w_video,1,2020_Dec_02_2137,typingtask,2020.2.8,60.0150077088397
would,4,21,117,4,,,,,,,738.41928801802,742.420018980018,"['w', 'o', 'u', 'l', 'd']","[0.5348894199996721, 0.65903098101262, 0.7428264900227077, 0.8471416680258699, 0.9230135640245862]",738.41928801802,742.420018980018,,,,,Ian_w_video,1,2020_Dec_02_2137,typingtask,2020.2.8,60.0150077088397
reshy,4,22,118,19,,,,,,,744.403097642004,748.403451635008,"['r', 'e', 's', 'h', 'y']","[0.616864537994843, 0.7127052560099401, 0.8506001299829222, 0.9676069100096356, 1.1347015629871748]",744.403097642004,748.403451635008,,,,,Ian_w_video,1,2020_Dec_02_2137,typingtask,2020.2.8,60.0150077088397
blong,4,23,119,20,,,,,,,750.387166854023,754.387252117012,"['b', 'l', 'o', 'n', 'g']","[0.6142700430063996, 0.7791316249931697, 0.9612647500180174, 1.046338245010702, 1.153108273021644]",750.387166854023,754.387252117012,,,,,Ian_w_video,1,2020_Dec_02_2137,typingtask,2020.2.8,60.0150077088397
wagon,,,,,0,1,1,7,,,1062.39115405601,1066.39215975502,"['w', 'a', 'g', 'o', 'n']","[0.6249469880131073, 0.7075904200028162, 0.8158736480108928, 0.9597904749971349, 1.0516052400053013]",1062.39115405601,1066.39215975502,,,,,Ian_w_video,1,2020_Dec_02_2137,typingtask,2020.2.8,60.0150077088397
loyal,,,,,0,2,2,6,,,1068.37553196601,1072.37584504101,"['l', 'o', 'y', 'a', 'l']","[0.5474323469970841, 0.7212579599872697, 0.8212120779789984, 0.9642034249845892, 1.0801599230035208]",1068.37553196601,1072.37584504101,,,,,Ian_w_video,1,2020_Dec_02_2137,typingtask,2020.2.8,60.0150077088397
yeses,,,,,0,3,3,14,,,1074.35904608903,1078.359633235,"['y', 'e', 's', 'e', 's']","[0.8281462539744098, 0.9652920119988266, 1.1202254139934666, 1.2121497779735364, 1.3442897819913924]",1074.35904608903,1078.359633235,,,,,Ian_w_video,1,2020_Dec_02_2137,typingtask,2020.2.8,60.0150077088397
about,,,,,0,4,4,1,,,1080.34316090302,1084.34283639002,"['a', 'b', 'o', 'u', 't']","[0.5246559960069135, 0.6486994390143082, 0.7866884780232795, 0.85860988200875, 0.9786857650033198]",1080.34316090302,1084.34283639002,,,,,Ian_w_video,1,2020_Dec_02_2137,typingtask,2020.2.8,60.0150077088397
there,,,,,0,5,5,0,,,1086.32680947601,1090.32718525402,"['t', 'h', 'e', 'r', 'e']","[0.560095672000898, 0.6400267829885706, 0.7201723369944375, 0.7880646679841448, 0.9000824179966003]",1086.32680947601,1090.32718525402,,,,,Ian_w_video,1,2020_Dec_02_2137,typingtask,2020.2.8,60.0150077088397
wovet,,,,,0,6,6,22,,,1092.31058393302,1096.31081869602,"['w', 'o', 'v', 'e', 't']","[0.5452910670137499, 0.6444200650148559, 0.7885075420199428, 0.9774219510145485, 1.0614282879978418]",1092.31058393302,1096.31081869602,,,,,Ian_w_video,1,2020_Dec_02_2137,typingtask,2020.2.8,60.0150077088397
motel,,,,,0,7,7,9,,,1098.29426239201,1102.29455236602,"['m', 'o', 't', 'e', 'l']","[0.5437058579991572, 0.6744875849981327, 0.7706199910026044, 0.866626911010826, 0.9504009660158772]",1098.29426239201,1102.29455236602,,,,,Ian_w_video,1,2020_Dec_02_2137,typingtask,2020.2.8,60.0150077088397
zarsh,,,,,0,8,8,23,,,1104.27777817601,1108.27851443802,"['z', 'a', 'r', 's', 'h']","[0.6071094860089943, 1.1601004980038851, 1.2799931560002733, 1.5541131060163025, 1.6620790809975006]",1104.27777817601,1108.27851443802,,,,,Ian_w_video,1,2020_Dec_02_2137,typingtask,2020.2.8,60.0150077088397
reshy,,,,,0,9,9,19,,,1110.26181410602,1114.26198025502,"['r', 'e', 's', 'h', 'y']","[0.6663710749999154, 0.7655069780012127, 0.9153774900187273, 1.0511866839951836, 1.2243306210148148]",1110.26181410602,1114.26198025502,,,,,Ian_w_video,1,2020_Dec_02_2137,typingtask,2020.2.8,60.0150077088397
crawl,,,,,0,10,10,10,,,1116.24575679502,1120.246005102,"['c', 'r', 'a', 'w', 'l']","[0.5953490799874999, 0.786777795990929, 0.8787828820059076, 0.990970885992283, 1.186998555000173]",1116.24575679502,1120.246005102,,,,,Ian_w_video,1,2020_Dec_02_2137,typingtask,2020.2.8,60.0150077088397
wooer,,,,,0,11,11,13,,,1122.229261464,1126.22886968803,"['w', 'o', 'o', 'e', 'r']","[0.5724453549773898, 0.6911839679814875, 0.8471807389869355, 0.9231585449888371, 0.9790465889964253]",1122.229261464,1126.22886968803,,,,,Ian_w_video,1,2020_Dec_02_2137,typingtask,2020.2.8,60.0150077088397
motor,,,,,0,12,12,11,,,1128.21321981502,1132.213078153,"['m', 'o', 't', 'o', 'r']","[0.5402042199857533, 0.6709505970065948, 0.7790102630096953, 0.8750904579937924, 0.9668930399930105]",1128.21321981502,1132.213078153,,,,,Ian_w_video,1,2020_Dec_02_2137,typingtask,2020.2.8,60.0150077088397
where,,,,,0,13,13,5,,,1134.19691788103,1138.19741278503,"['w', 'h', 'e', 'r', 'e']","[0.6142235989973415, 0.7216952449816745, 0.8099068429728504, 0.8619582329993136, 0.9819411439821124]",1134.19691788103,1138.19741278503,,,,,Ian_w_video,1,2020_Dec_02_2137,typingtask,2020.2.8,60.0150077088397
noire,,,,,0,14,14,17,,,1140.18066996802,1144.18075382002,"['n', 'o', 'i', 'r', 'e']","[0.5738127130025532, 0.7236292180023156, 0.7954640779935289, 0.9196824340033345, 1.003655506996438]",1140.18066996802,1144.18075382002,,,,,Ian_w_video,1,2020_Dec_02_2137,typingtask,2020.2.8,60.0150077088397
incan,,,,,0,15,15,16,,,1146.16440861902,1150.16458136102,"['i', 'n', 'c', 'a', 'n']","[0.5965689419826958, 0.6763659289863426, 0.784414130001096, 0.8765481909795199, 1.0045290020061657]",1146.16440861902,1150.16458136102,,,,,Ian_w_video,1,2020_Dec_02_2137,typingtask,2020.2.8,60.0150077088397
blong,,,,,0,16,16,20,,,1152.14785263402,1156.14845778802,"['b', 'l', 'o', 'n', 'g']","[0.5596033190086018, 0.7214980740100145, 0.9074798609944992, 0.9754804350086488, 1.1074522190028802]",1152.14785263402,1156.14845778802,,,,,Ian_w_video,1,2020_Dec_02_2137,typingtask,2020.2.8,60.0150077088397
lumpo,,,,,0,17,17,18,,,1158.131662239,1162.13250802801,"['l', 'u', 'm', 'p', 'o']","[0.5646039310086053, 0.6761060080025345, 0.9050466729968321, 1.0451415280112997, 1.1331866559921764]",1158.131662239,1162.13250802801,,,,,Ian_w_video,1,2020_Dec_02_2137,typingtask,2020.2.8,60.0150077088397
think,,,,,0,18,18,3,,,1164.11496772201,1168.11581952401,"['t', 'h', 'i', 'n', 'k']","[0.6754816790053155, 0.7643321439973079, 0.8605146229965612, 1.0234965840063524, 1.0953624059911817]",1164.11496772201,1168.11581952401,,,,,Ian_w_video,1,2020_Dec_02_2137,typingtask,2020.2.8,60.0150077088397
merry,,,,,0,19,19,8,,,1170.09869051602,1174.09937870601,"['m', 'e', 'r', 'r', 'y']","[0.5367020870035049, 0.6273224139877129, 0.6953100319951773, 0.868133284006035, 0.9883336370112374]",1170.09869051602,1174.09937870601,,,,,Ian_w_video,1,2020_Dec_02_2137,typingtask,2020.2.8,60.0150077088397
would,,,,,0,20,20,4,,,1176.082775385,1180.08333940402,"['w', 'o', 'u', 'l', 'd']","[0.5275824640120845, 0.6382525660155807, 0.7102125720120966, 0.8262031190097332, 0.9180359719903208]",1176.082775385,1180.08333940402,,,,,Ian_w_video,1,2020_Dec_02_2137,typingtask,2020.2.8,60.0150077088397
kremp,,,,,0,21,21,21,,,1182.06672821502,1186.06705052601,"['k', 'r', 'e', 'm', 'p']","[0.5672881429782137, 0.689806262991624, 0.7819746779859997, 0.837887650995981, 0.9896074759890325]",1182.06672821502,1186.06705052601,,,,,Ian_w_video,1,2020_Dec_02_2137,typingtask,2020.2.8,60.0150077088397
unhat,,,,,0,22,22,12,,,1188.05045523302,1192.05114090501,"['u', 'n', 'h', 'a', 't']","[0.5954600670083892, 0.8304135999933351, 1.0223003569990396, 1.2132340869866312, 1.3051882559957448]",1188.05045523302,1192.05114090501,,,,,Ian_w_video,1,2020_Dec_02_2137,typingtask,2020.2.8,60.0150077088397
crape,,,,,0,23,23,15,,,1194.03392911702,1198.03401445103,"['c', 'r', 'a', 'p', 'e']","[0.5821185669919942, 0.755522891995497, 0.8318001799925696, 1.0076173699926585, 1.107532285997877]",1194.03392911702,1198.03401445103,,,,,Ian_w_video,1,2020_Dec_02_2137,typingtask,2020.2.8,60.0150077088397
think,,,,,1,0,24,3,,,1200.016721483,1204.01843792002,"['t', 'h', 'i', 'n', 'k']","[0.5737636229896452, 0.6696089250035584, 0.7577564849925693, 0.9297411000006832, 1.0058689730067272]",1200.016721483,1204.01843792002,,,,,Ian_w_video,1,2020_Dec_02_2137,typingtask,2020.2.8,60.0150077088397
motor,,,,,1,1,25,11,,,1206.00181951601,1210.00213510802,"['m', 'o', 't', 'o', 'r']","[0.5288577419996727, 0.675229437998496, 0.7392155080160592, 0.84041461799643, 0.9312150420155376]",1206.00181951601,1210.00213510802,,,,,Ian_w_video,1,2020_Dec_02_2137,typingtask,2020.2.8,60.0150077088397
right,,,,,1,2,26,2,,,1211.98508560201,1215.98588479601,"['r', 'i', 'g', 'h', 't']","[0.5713313030137215, 0.6882487750262953, 0.7841505360265728, 0.8941563860280439, 0.9781464110128582]",1211.98508560201,1215.98588479601,,,,,Ian_w_video,1,2020_Dec_02_2137,typingtask,2020.2.8,60.0150077088397
lumpo,,,,,1,3,27,18,,,1217.96942197601,1221.969152487,"['l', 'u', 'm', 'p', 'o']","[0.5627227730001323, 0.6782649449887685, 0.9072254899947438, 1.0432268290023785, 1.1190707540081348]",1217.96942197601,1221.969152487,,,,,Ian_w_video,1,2020_Dec_02_2137,typingtask,2020.2.8,60.0150077088397
motel,,,,,1,4,28,9,,,1223.95269681202,1227.95309048001,"['m', 'o', 't', 'e', 'l']","[0.5473794569843449, 0.6909801269939635, 0.783025236974936, 0.9387680499930866, 1.092934570973739]",1223.95269681202,1227.95309048001,,,,,Ian_w_video,1,2020_Dec_02_2137,typingtask,2020.2.8,60.0150077088397
blong,,,,,1,5,29,20,,,1229.93684782501,1233.937000954,"['b', 'l', 'o', 'n', 'g']","[0.572064259002218, 0.7421029669931158, 0.911083242011955, 0.9750940839876421, 1.0950961869966704]",1229.93684782501,1233.937000954,,,,,Ian_w_video,1,2020_Dec_02_2137,typingtask,2020.2.8,60.0150077088397
reshy,,,,,1,6,30,19,,,1235.92024571201,1239.92078344,"['r', 'e', 's', 'h', 'y']","[0.5595852970145643, 0.6505842060141731, 0.7864420620026067, 0.8785940270172432, 1.0573913959960919]",1235.92024571201,1239.92078344,,,,,Ian_w_video,1,2020_Dec_02_2137,typingtask,2020.2.8,60.0150077088397
crape,,,,,1,7,31,15,,,1241.90436111402,1245.90462526502,"['c', 'r', 'a', 'p', 'e']","[0.552875317982398, 0.7412703619920649, 0.853279657982057, 1.030267575988546, 1.1500713859859388]",1241.90436111402,1245.90462526502,,,,,Ian_w_video,1,2020_Dec_02_2137,typingtask,2020.2.8,60.0150077088397
yeses,,,,,1,8,32,14,,,1247.88809274102,1251.88821048202,"['y', 'e', 's', 'e', 's', 's']","[0.6546329660050105, 0.7786445880192332, 0.874639408022631, 1.0426392730150837, 1.0505124940245878, 1.1626113840029575]",1247.88809274102,1251.88821048202,,,,,Ian_w_video,1,2020_Dec_02_2137,typingtask,2020.2.8,60.0150077088397
zarsh,,,,,1,9,33,23,,,1253.871692938,1257.87216797101,"['z', 'a', 'r', 's', 'h']","[0.6331283219915349, 0.8647470720170531, 0.9368327220145147, 1.1107244410086423, 1.214941701007774]",1253.871692938,1257.87216797101,,,,,Ian_w_video,1,2020_Dec_02_2137,typingtask,2020.2.8,60.0150077088397
wooer,,,,,1,10,34,13,,,1259.85430668201,1263.85559894802,"['w', 'o', 'o', 'e', 'r']","[0.6133356759964954, 0.7159350599977188, 0.8880158090032637, 0.9437426969816443, 1.0199367799796164]",1259.85430668201,1263.85559894802,,,,,Ian_w_video,1,2020_Dec_02_2137,typingtask,2020.2.8,60.0150077088397
kremp,,,,,1,11,35,21,,,1265.838675306,1269.83943193802,"['k', 'r', 'e', 'm', 'p']","[0.6274066939949989, 0.7501090239966288, 0.8298781999910716, 0.9670745089824777, 1.0870283719850704]",1265.838675306,1269.83943193802,,,,,Ian_w_video,1,2020_Dec_02_2137,typingtask,2020.2.8,60.0150077088397
unhat,,,,,1,12,36,12,,,1271.823115562,1275.82343697702,"['u', 'n', 'h', 'a', 't']","[0.5344898909970652, 0.762505266990047, 0.9367206030001398, 1.0327051210042555, 1.112532247992931]",1271.823115562,1275.82343697702,,,,,Ian_w_video,1,2020_Dec_02_2137,typingtask,2020.2.8,60.0150077088397
wovet,,,,,1,13,37,22,,,1277.80676066701,1281.80684346703,"['w', 'o', 'v', 'e', 't']","[0.5976189770153724, 0.689218487998005, 0.8133546390163247, 0.9922989690094255, 1.0681646000011824]",1277.80676066701,1281.80684346703,,,,,Ian_w_video,1,2020_Dec_02_2137,typingtask,2020.2.8,60.0150077088397
where,,,,,1,14,38,5,,,1283.79015446,1287.790689646,"['w', 'h', 'e', 'r', 'e']","[0.6260150559828617, 0.7359073800034821, 0.8119470659876242, 0.8797988329897635, 0.9879989199980628]",1283.79015446,1287.790689646,,,,,Ian_w_video,1,2020_Dec_02_2137,typingtask,2020.2.8,60.0150077088397
incan,,,,,1,15,39,16,,,1289.77397682102,1293.77475067502,"['i', 'n', 'c', 'a', 'n']","[0.562543514999561, 0.6336083050118759, 0.7536698570183944, 0.8574600220017601, 0.9456555600045249]",1289.77397682102,1293.77475067502,,,,,Ian_w_video,1,2020_Dec_02_2137,typingtask,2020.2.8,60.0150077088397
loyal,,,,,1,16,40,6,,,1295.75774024602,1299.75815210302,"['l', 'o', 'y', 'a', 'l']","[0.4809957009856589, 0.6725708679878153, 0.7605722500011325, 0.9987284730013926, 1.1463676359853707]",1295.75774024602,1299.75815210302,,,,,Ian_w_video,1,2020_Dec_02_2137,typingtask,2020.2.8,60.0150077088397
crawl,,,,,1,17,41,10,,,1301.74191924703,1305.74217033701,"['c', 'r', 'a', 'w', 'l']","[0.5229749080026522, 0.7338011460087728, 0.8217876100097783, 0.9259158390050288, 1.1319788020045962]",1301.74191924703,1305.74217033701,,,,,Ian_w_video,1,2020_Dec_02_2137,typingtask,2020.2.8,60.0150077088397
noire,,,,,1,18,42,17,,,1307.72502362702,1311.725750079,"['n', 'o', 'i', 'r', 'e']","[0.5392475060070865, 0.7012694439908955, 0.753465129993856, 0.8973898690019269, 0.973398323985748]",1307.72502362702,1311.725750079,,,,,Ian_w_video,1,2020_Dec_02_2137,typingtask,2020.2.8,60.0150077088397
merry,,,,,1,19,43,8,,,1313.70914249303,1317.709491671,"['m', 'e', 'r', 'r', 'y']","[0.4809210730018094, 0.6047547720081639, 0.6808544319937937, 0.8588323130097706, 0.9668475590005983]",1313.70914249303,1317.709491671,,,,,Ian_w_video,1,2020_Dec_02_2137,typingtask,2020.2.8,60.0150077088397
wagon,,,,,1,20,44,7,,,1319.69227884602,1323.69210491402,"['w', 'a', 'g', 'o', 'n']","[0.5562002100050449, 0.6643898629990872, 0.7923184479877818, 0.9281472759903409, 1.0163364979962353]",1319.69227884602,1323.69210491402,,,,,Ian_w_video,1,2020_Dec_02_2137,typingtask,2020.2.8,60.0150077088397
there,,,,,1,21,45,0,,,1325.67554086202,1329.67593515501,"['t', 'h', 'e', 'r', 'e']","[0.5047180200053845, 0.6195588180271443, 0.6877626150089782, 0.7355746930115856, 0.8514268110156991]",1325.67554086202,1329.67593515501,,,,,Ian_w_video,1,2020_Dec_02_2137,typingtask,2020.2.8,60.0150077088397
would,,,,,1,22,46,4,,,1331.65935544801,1335.66036283202,"['w', 'o', 'u', 'l', 'd']","[0.5467252359958366, 0.6410981490043923, 0.7250661379948724, 0.833369803003734, 0.897107706987299]",1331.65935544801,1335.66036283202,,,,,Ian_w_video,1,2020_Dec_02_2137,typingtask,2020.2.8,60.0150077088397
about,,,,,1,23,47,1,,,1337.64381646001,1341.64406897302,"['a', 'b', 'o', 'u', 't']","[0.5325291310145985, 0.6402008550066967, 0.7984167810063809, 0.8662416450097226, 0.9911510420206469]",1337.64381646001,1341.64406897302,,,,,Ian_w_video,1,2020_Dec_02_2137,typingtask,2020.2.8,60.0150077088397
crape,,,,,2,0,48,15,,,1343.62783842703,1347.62795996803,"['c', 'r', 'a', 'p', 'e']","[0.5467548180022277, 0.7490941099822521, 0.828810432984028, 1.0217447409813758, 1.125842727982672]",1343.62783842703,1347.62795996803,,,,,Ian_w_video,1,2020_Dec_02_2137,typingtask,2020.2.8,60.0150077088397
there,,,,,2,1,49,0,,,1349.610874381,1353.611819996,"['t', 'h', 'e', 'r', 'e']","[0.5463397669955157, 0.6543709799880162, 0.7064669120009057, 0.7705502479802817, 0.8784527959942352]",1349.610874381,1353.611819996,,,,,Ian_w_video,1,2020_Dec_02_2137,typingtask,2020.2.8,60.0150077088397
would,,,,,2,2,50,4,,,1355.59497673903,1359.59590334402,"['w', 'o', 'u', 'l', 'd']","[0.49914826700114645, 0.6149399919959251, 0.7028236190089956, 0.8308488049951848, 0.9109173459874]",1355.59497673903,1359.59590334402,,,,,Ian_w_video,1,2020_Dec_02_2137,typingtask,2020.2.8,60.0150077088397
motel,,,,,2,3,51,9,,,1361.57886662803,1365.57944484003,"['m', 'o', 't', 'e', 'l']","[0.4624584339908324, 0.6066195660096128, 0.6827067109989002, 0.7866635860118549, 0.8826536000124179]",1361.57886662803,1365.57944484003,,,,,Ian_w_video,1,2020_Dec_02_2137,typingtask,2020.2.8,60.0150077088397
wooer,,,,,2,4,52,13,,,1367.56267404501,1371.56287991002,"['w', 'o', 'o', 'e', 'r']","[0.5133189750195015, 0.6214124470134266, 0.7671956390258856, 0.8314281000057235, 0.8994635850249324]",1367.56267404501,1371.56287991002,,,,,Ian_w_video,1,2020_Dec_02_2137,typingtask,2020.2.8,60.0150077088397
think,,,,,2,5,53,3,,,1373.54629633701,1377.54679191601,"['t', 'h', 'i', 'n', 'k']","[0.5134082550066523, 0.6093100750003941, 0.6851571930164937, 0.8562896470248234, 0.9123263850051444]",1373.54629633701,1377.54679191601,,,,,Ian_w_video,1,2020_Dec_02_2137,typingtask,2020.2.8,60.0150077088397
wovet,,,,,2,6,54,22,,,1379.53001832802,1383.53096639802,"['w', 'o', 'v', 'e', 't']","[0.48612728499574587, 0.5901208719878923, 0.7019935829739552, 0.8702457289909944, 0.9502562299894635]",1379.53001832802,1383.53096639802,,,,,Ian_w_video,1,2020_Dec_02_2137,typingtask,2020.2.8,60.0150077088397
motor,,,,,2,7,55,11,,,1385.51432124301,1389.51462542103,"['m', 'o', 't', 'o', 'r']","[0.47356248198775575, 0.6204566870001145, 0.672456353000598, 0.8073163049994037, 0.8863536500139162]",1385.51432124301,1389.51462542103,,,,,Ian_w_video,1,2020_Dec_02_2137,typingtask,2020.2.8,60.0150077088397
merry,,,,,2,8,56,8,,,1391.497588044,1395.49839309102,"['m', 'e', 'r', 'r', 'y']","[0.45063339499756694, 0.5427290239895228, 0.6308109129895456, 0.791861706005875, 0.9066544960078318]",1391.497588044,1395.49839309102,,,,,Ian_w_video,1,2020_Dec_02_2137,typingtask,2020.2.8,60.0150077088397
lumpo,,,,,2,9,57,18,,,1397.481681089,1401.48187895003,"['l', 'u', 'm', 'p', 'o']","[0.5215675200161058, 0.6287401610170491, 0.8407627200067509, 0.968676846998278, 1.0327099389978684]",1397.481681089,1401.48187895003,,,,,Ian_w_video,1,2020_Dec_02_2137,typingtask,2020.2.8,60.0150077088397
yeses,,,,,2,10,58,14,,,1403.46512779401,1407.46561144901,"['y', 'e', 's', 's', 'e', 's']","[0.6992865190259181, 0.8484157490020152, 0.9562440200243145, 1.1713896410074085, 1.4781869600119535, 1.698377241002163]",1403.46512779401,1407.46561144901,,,,,Ian_w_video,1,2020_Dec_02_2137,typingtask,2020.2.8,60.0150077088397
about,,,,,2,11,59,1,,,1409.44945729402,1413.44953609401,"['a', 'b', 'o', 'u', 't']","[0.5746420370123815, 0.7066403799981344, 0.8674999329959974, 0.9357354700041469, 1.0475541460036766]",1409.44945729402,1413.44953609401,,,,,Ian_w_video,1,2020_Dec_02_2137,typingtask,2020.2.8,60.0150077088397
noire,,,,,2,12,60,17,,,1415.43266818702,1419.43298069402,"['m', 'n', 'o', 'i', 'r', 'e']","[0.520169273018837, 1.1377667449996807, 1.421755340998061, 1.485774079017574, 1.670737195003312, 1.7587506230047438]",1415.43266818702,1419.43298069402,,,,,Ian_w_video,1,2020_Dec_02_2137,typingtask,2020.2.8,60.0150077088397
kremp,,,,,2,13,61,21,,,1421.431926413,1425.43380086601,"['k', 'r', 'e', 'm', 'p']","[0.5796433159848675, 0.6787306540063582, 0.7586653189791832, 0.8386509899864905, 0.9626584459911101]",1421.431926413,1425.43380086601,,,,,Ian_w_video,1,2020_Dec_02_2137,typingtask,2020.2.8,60.0150077088397
where,,,,,2,14,62,5,,,1427.41611989902,1431.41688749401,"['w', 'h', 'e', 'r', 'e']","[0.5424055139883421, 0.6372166170040146, 0.7172087130020373, 0.7771422379883006, 0.9011689239996485]",1427.41611989902,1431.41688749401,,,,,Ian_w_video,1,2020_Dec_02_2137,typingtask,2020.2.8,60.0150077088397
right,,,,,2,15,63,2,,,1433.40020381002,1437.40120216503,"['r', 'i', 'g', 'h', 't']","[0.5371471919934265, 0.6671143359853886, 0.7349967039772309, 0.8481422549812123, 0.9250066089734901]",1433.40020381002,1437.40120216503,,,,,Ian_w_video,1,2020_Dec_02_2137,typingtask,2020.2.8,60.0150077088397
loyal,,,,,2,16,64,6,,,1439.38470750101,1443.38485898203,"['l', 'o', 'y', 'a', 'l']","[0.5016747729969211, 0.6918127480021212, 0.7797399180126376, 0.9498498410102911, 1.0858452309912536]",1439.38470750101,1443.38485898203,,,,,Ian_w_video,1,2020_Dec_02_2137,typingtask,2020.2.8,60.0150077088397
blong,,,,,2,17,65,20,,,1445.36835805301,1449.36865365101,"['b', 'l', 'o', 'n', 'g']","[0.5402491889835801, 0.7111353960062843, 0.890267593000317, 0.9459702489839401, 1.0662405510083772]",1445.36835805301,1449.36865365101,,,,,Ian_w_video,1,2020_Dec_02_2137,typingtask,2020.2.8,60.0150077088397
crawl,,,,,2,18,66,10,,,1451.35178956701,1455.35239979101,"['c', 'r', 'a', 'w', 'l']","[0.5873957889853045, 0.7942741249862593, 0.8741465600032825, 0.9983940999954939, 1.2031870470091235]",1451.35178956701,1455.35239979101,,,,,Ian_w_video,1,2020_Dec_02_2137,typingtask,2020.2.8,60.0150077088397
unhat,,,,,2,19,67,12,,,1457.33580221303,1461.33599833501,"['u', 'n', 'h', 'a', 't']","[0.5363549219910055, 0.7653193410078529, 0.9432061540137511, 1.0351050079916604, 1.1193125839927234]",1457.33580221303,1461.33599833501,,,,,Ian_w_video,1,2020_Dec_02_2137,typingtask,2020.2.8,60.0150077088397
zarsh,,,,,2,20,68,23,,,1463.31965010101,1467.31995480901,"['z', 'a', 'r', 's', 'h']","[0.5998684150108602, 0.8082867900084238, 0.8892185660079122, 1.0632283000159077, 1.1871473270002753]",1463.31965010101,1467.31995480901,,,,,Ian_w_video,1,2020_Dec_02_2137,typingtask,2020.2.8,60.0150077088397
wagon,,,,,2,21,69,7,,,1469.30348813001,1473.30342500503,"['w', 'a', 'g', 'o', 'n']","[0.5600427979952656, 0.6601685759960674, 0.7878919739741832, 0.9450518089870457, 1.0331002449966036]",1469.30348813001,1473.30342500503,,,,,Ian_w_video,1,2020_Dec_02_2137,typingtask,2020.2.8,60.0150077088397
incan,,,,,2,22,70,16,,,1475.28643133701,1479.28622997002,"['i', 'n', 'c', 'a', 'n']","[0.5425188660155982, 0.6386945529957302, 0.7668020070123021, 0.8426557980128564, 0.9707815420115367]",1475.28643133701,1479.28622997002,,,,,Ian_w_video,1,2020_Dec_02_2137,typingtask,2020.2.8,60.0150077088397
reshy,,,,,2,23,71,19,,,1481.269753311,1485.27100355501,"['r', 'e', 's', 'h', 'y']","[0.5888376270013396, 0.6726487569976598, 0.8477210380078759, 0.9237526539945975, 1.0839040190039668]",1481.269753311,1485.27100355501,,,,,Ian_w_video,1,2020_Dec_02_2137,typingtask,2020.2.8,60.0150077088397
would,,,,,3,0,72,4,,,1487.25429755202,1491.25501274702,"['w', 'o', 'u', 'l', 'd']","[0.5465183169872034, 0.6660090360091999, 0.7500889539951459, 0.8580380440107547, 0.954094023007201]",1487.25429755202,1491.25501274702,,,,,Ian_w_video,1,2020_Dec_02_2137,typingtask,2020.2.8,60.0150077088397
kremp,,,,,3,1,73,21,,,1493.238756879,1497.23860514502,"['k', 'r', 'e', 'm', 'p']","[0.5736901699856389, 0.676784602983389, 0.7529174810042605, 0.8648284719965886, 0.9966900550061837]",1493.238756879,1497.23860514502,,,,,Ian_w_video,1,2020_Dec_02_2137,typingtask,2020.2.8,60.0150077088397
there,,,,,3,2,74,0,,,1499.22138897501,1503.22216148602,"['t', 'h', 'e', 'r', 'e']","[0.5606947450141888, 0.6686178030213341, 0.7406852639978752, 0.7887364610214718, 0.9048640160181094]",1499.22138897501,1503.22216148602,,,,,Ian_w_video,1,2020_Dec_02_2137,typingtask,2020.2.8,60.0150077088397
incan,,,,,3,3,75,16,,,1505.20554701902,1509.20576902002,"['i', 'n', 'c', 'a', 'n']","[0.5519831099954899, 0.6482490799971856, 0.740122816991061, 0.8201881900022272, 0.9164596619957592]",1505.20554701902,1509.20576902002,,,,,Ian_w_video,1,2020_Dec_02_2137,typingtask,2020.2.8,60.0150077088397
motel,,,,,3,4,76,9,,,1511.18853278601,1515.18933375902,"['m', 'o', 't', 'e', 'l']","[0.4627786609926261, 0.6306210210022982, 0.702561957994476, 0.8185084309952799, 0.9397629789891653]",1511.18853278601,1515.18933375902,,,,,Ian_w_video,1,2020_Dec_02_2137,typingtask,2020.2.8,60.0150077088397
think,,,,,3,5,77,3,,,1517.17311101602,1521.17363683402,"['t', 'h', 'i', 'n', 'k']","[0.5107224999810569, 0.6027183279802557, 0.6787705479946453, 0.8497269229847006, 0.9096971669932827]",1517.17311101602,1521.17363683402,,,,,Ian_w_video,1,2020_Dec_02_2137,typingtask,2020.2.8,60.0150077088397
wooer,,,,,3,6,78,13,,,1523.15718438101,1527.15713340903,"['w', 'o', 'o', 'e', 'r']","[0.4961241319833789, 0.6042469310050365, 0.758192915993277, 0.8339938529825304, 0.8901991219900083]",1523.15718438101,1527.15713340903,,,,,Ian_w_video,1,2020_Dec_02_2137,typingtask,2020.2.8,60.0150077088397
unhat,,,,,3,7,79,12,,,1529.14050419701,1533.14116993401,"['u', 'n', 'h', 'a', 't']","[0.5383356749953236, 0.7544193929934409, 0.9223938240029383, 1.0293041089898907, 1.109438572981162]",1529.14050419701,1533.14116993401,,,,,Ian_w_video,1,2020_Dec_02_2137,typingtask,2020.2.8,60.0150077088397
where,,,,,3,8,80,5,,,1535.124348749,1539.12467567902,"['w', 'h', 'e', 'r', 'e']","[0.5283962510002311, 0.6149579540069681, 0.6960136730049271, 0.7506937340076547, 0.8709313760045916]",1535.124348749,1539.12467567902,,,,,Ian_w_video,1,2020_Dec_02_2137,typingtask,2020.2.8,60.0150077088397
noire,,,,,3,9,81,17,,,1541.10832213002,1545.10876840702,"['n', 'o', 'i', 'r', 'e']","[0.5383222560049035, 0.7104341110098176, 0.7782808670017403, 0.9023664559936151, 0.9943856879835948]",1541.10832213002,1545.10876840702,,,,,Ian_w_video,1,2020_Dec_02_2137,typingtask,2020.2.8,60.0150077088397
right,,,,,3,10,82,2,,,1547.09195669502,1551.092442864,"['r', 'i', 'g', 'h', 't']","[0.5334424350003246, 0.6573447119735647, 0.7494403469900135, 0.8573292619839776, 0.935200060979696]",1547.09195669502,1551.092442864,,,,,Ian_w_video,1,2020_Dec_02_2137,typingtask,2020.2.8,60.0150077088397
blong,,,,,3,11,83,20,,,1553.075647794,1557.07589198102,"['b', 'l', 'o', 'n', 'g']","[0.5181153610174078, 0.6912521470221691, 0.8791033950110432, 0.9272355230059475, 1.065370658005122]",1553.075647794,1557.07589198102,,,,,Ian_w_video,1,2020_Dec_02_2137,typingtask,2020.2.8,60.0150077088397
yeses,,,,,3,12,84,14,,,1559.05879808901,1563.05961872,"['y', 'e', 's', 'e', 's']","[0.6007343520177528, 0.7007197600032669, 0.8586544319987297, 0.9586217530013528, 1.0946184020140208]",1559.05879808901,1563.05961872,,,,,Ian_w_video,1,2020_Dec_02_2137,typingtask,2020.2.8,60.0150077088397
crape,,,,,3,13,85,15,,,1565.04317306003,1569.04350424002,"['c', 'r', 'a', 'p', 'e']","[0.5468716429895721, 0.7449935849872418, 0.8249719739833381, 1.0398370619805064, 1.1398311509983614]",1565.04317306003,1569.04350424002,,,,,Ian_w_video,1,2020_Dec_02_2137,typingtask,2020.2.8,60.0150077088397
wovet,,,,,3,14,86,22,,,1571.02700023702,1575.02699619901,"['w', 'o', 'v', 'e', 't']","[0.5287296089809388, 0.6565820009855088, 0.7525625840062276, 0.9215651160047855, 1.001422900997568]",1571.02700023702,1575.02699619901,,,,,Ian_w_video,1,2020_Dec_02_2137,typingtask,2020.2.8,60.0150077088397
loyal,,,,,3,15,87,6,,,1577.01089834701,1581.02648575802,"['l', 'o', 'y', 'a', 'l']","[0.514451883995207, 0.7151616299815942, 0.8070759080001153, 0.981110581982648, 1.1451567859912757]",1577.01089834701,1581.02648575802,,,,,Ian_w_video,1,2020_Dec_02_2137,typingtask,2020.2.8,60.0150077088397
motor,,,,,3,16,88,11,,,1582.99329190401,1586.99444828602,"['m', 'o', 't', 'o', 'r']","[0.4454706120013725, 0.6176061570004094, 0.7092291350127198, 0.7973686589975841, 0.8922446340147872]",1582.99329190401,1586.99444828602,,,,,Ian_w_video,1,2020_Dec_02_2137,typingtask,2020.2.8,60.0150077088397
crawl,,,,,3,17,89,10,,,1588.97713187902,1592.978319007,"['c', 'r', 'a', 'w', 'l']","[0.5571664900053293, 0.7561404249863699, 0.8359996479994152, 0.9441279169986956, 1.124464969994733]",1588.97713187902,1592.978319007,,,,,Ian_w_video,1,2020_Dec_02_2137,typingtask,2020.2.8,60.0150077088397
merry,,,,,3,18,90,8,,,1594.96153981102,1598.96177192903,"['m', 'e', 'r', 'r', 'y']","[0.49035616900073364, 0.5783511210174765, 0.6423423509986605, 0.8181716079998296, 0.9181777909980156]",1594.96153981102,1598.96177192903,,,,,Ian_w_video,1,2020_Dec_02_2137,typingtask,2020.2.8,60.0150077088397
wagon,,,,,3,19,91,7,,,1600.94562952701,1604.945704707,"['w', 'a', 'g', 'o', 'n']","[0.5439554530021269, 0.6718252410064451, 0.8077936820045579, 0.976792936999118, 1.068642705999082]",1600.94562952701,1604.945704707,,,,,Ian_w_video,1,2020_Dec_02_2137,typingtask,2020.2.8,60.0150077088397
zarsh,,,,,3,20,92,23,,,1606.92943674102,1610.92968019002,"['z', 'a', 'r', 's', 'h']","[0.5504279820015654, 0.7684068719972856, 0.8445619829872157, 0.9885830199928023, 1.1235432499961462]",1606.92943674102,1610.92968019002,,,,,Ian_w_video,1,2020_Dec_02_2137,typingtask,2020.2.8,60.0150077088397
about,,,,,3,21,93,1,,,1612.913198319,1616.91362266301,"['a', 'b', 'o', 'u', 't']","[0.5182452249864582, 0.6342314319917932, 0.7962846719892696, 0.8563650900032371, 0.9603625439922325]",1612.913198319,1616.91362266301,,,,,Ian_w_video,1,2020_Dec_02_2137,typingtask,2020.2.8,60.0150077088397
lumpo,,,,,3,22,94,18,,,1618.89683861603,1622.896771008,"['l', 'u', 'm', 'p', 'o']","[0.5243894940067548, 0.6593100700119976, 0.8961271660227794, 1.0283252900117077, 1.0922590920235962]",1618.89683861603,1622.896771008,,,,,Ian_w_video,1,2020_Dec_02_2137,typingtask,2020.2.8,60.0150077088397
reshy,,,,,3,23,95,19,,,1624.880657617,1628.88056730301,"['r', 'e', 's', 'h', 'y']","[0.5201674759737216, 0.656055216997629, 0.8848762979905587, 1.1211627729935572, 1.333119896997232]",1624.880657617,1628.88056730301,,,,,Ian_w_video,1,2020_Dec_02_2137,typingtask,2020.2.8,60.0150077088397
motor,,,,,4,0,96,11,,,1630.86469783401,1634.86366401002,"['m', 'o', 't', 'o', 'r']","[0.5074566400144249, 0.6344344780081883, 0.7344167139963247, 0.8206024010141846, 0.8965022529882845]",1630.86469783401,1634.86366401002,,,,,Ian_w_video,1,2020_Dec_02_2137,typingtask,2020.2.8,60.0150077088397
unhat,,,,,4,1,97,12,,,1636.84822476402,1640.84795852602,"['u', 'n', 'h', 'a', 't']","[0.5479292029922362, 0.7766079340071883, 0.9625088179891463, 1.0635676899983082, 1.1318684009893332]",1636.84822476402,1640.84795852602,,,,,Ian_w_video,1,2020_Dec_02_2137,typingtask,2020.2.8,60.0150077088397
crawl,,,,,4,2,98,10,,,1642.83211667402,1646.83224000302,"['c', 'r', 'a', 'w', 'l']","[0.5703706040221732, 0.774409422010649, 0.8502278670202941, 0.958273618016392, 1.1722530370170716]",1642.83211667402,1646.83224000302,,,,,Ian_w_video,1,2020_Dec_02_2137,typingtask,2020.2.8,60.0150077088397
motel,,,,,4,3,99,9,,,1648.81561568601,1652.81447910002,"['m', 'o', 't', 'e', 'l']","[0.5433720699802507, 0.699566066992702, 0.7833662490011193, 0.9763385719852522, 1.1354877819831017]",1648.81561568601,1652.81447910002,,,,,Ian_w_video,1,2020_Dec_02_2137,typingtask,2020.2.8,60.0150077088397
crape,,,,,4,4,100,15,,,1654.79912294101,1658.80008640001,"['c', 'r', 'a', 'p', 'e']","[0.5623529180011246, 0.7792858069879003, 0.8512657120008953, 1.117237919010222, 1.2682185239973478]",1654.79912294101,1658.80008640001,,,,,Ian_w_video,1,2020_Dec_02_2137,typingtask,2020.2.8,60.0150077088397
loyal,,,,,4,5,101,6,,,1660.78343387903,1664.78344573203,"['l', 'o', 'y', 'a', 'l']","[0.5266615880245809, 0.7376506970031187, 0.8175256700196769, 0.9658015210006852, 1.0816563280241098]",1660.78343387903,1664.78344573203,,,,,Ian_w_video,1,2020_Dec_02_2137,typingtask,2020.2.8,60.0150077088397
reshy,,,,,4,6,102,19,,,1666.76676971102,1670.767435888,"['r', 'e', 's', 'h', 'y']","[0.5469713680213317, 0.6390317790210247, 0.8058641880052164, 0.9336801769968588, 1.1058180940162856]",1666.76676971102,1670.767435888,,,,,Ian_w_video,1,2020_Dec_02_2137,typingtask,2020.2.8,60.0150077088397
blong,,,,,4,7,103,20,,,1672.74947513003,1676.75088250302,"['b', 'l', 'o', 'n', 'g']","[0.6257060159987304, 0.7982082850066945, 0.9678603519860189, 1.0356015849974938, 1.1727299979829695]",1672.74947513003,1676.75088250302,,,,,Ian_w_video,1,2020_Dec_02_2137,typingtask,2020.2.8,60.0150077088397
zarsh,,,,,4,8,104,23,,,1678.73437800902,1682.734431705,"['z', 'a', 'r', 's', 'h']","[0.6244508319941815, 0.9434196900110692, 1.0594328590086661, 1.2646044100110885, 1.3885524040088058]",1678.73437800902,1682.734431705,,,,,Ian_w_video,1,2020_Dec_02_2137,typingtask,2020.2.8,60.0150077088397
would,,,,,4,9,105,4,,,1684.71831787101,1688.71850021801,"['w', 'o', 'u', 'l', 'd']","[0.5460018299927469, 0.6619360379991122, 0.7380434579972643, 0.8500538249791134, 0.9339007299859077]",1684.71831787101,1688.71850021801,,,,,Ian_w_video,1,2020_Dec_02_2137,typingtask,2020.2.8,60.0150077088397
there,,,,,4,10,106,0,,,1690.701874716,1694.70208858603,"['t', 'h', 'e', 'r', 'e']","[0.49831258598715067, 0.5940811430045869, 0.6620666969974991, 0.7220796569890808, 0.8300452629919164]",1690.701874716,1694.70208858603,,,,,Ian_w_video,1,2020_Dec_02_2137,typingtask,2020.2.8,60.0150077088397
noire,,,,,4,11,107,17,,,1696.68552265601,1700.68587235,"['n', 'o', 'i', 'r', 'e']","[0.540033247001702, 0.7289762110158335, 0.800831830012612, 0.9330641760025173, 1.0169963870139327]",1696.68552265601,1700.68587235,,,,,Ian_w_video,1,2020_Dec_02_2137,typingtask,2020.2.8,60.0150077088397
wagon,,,,,4,12,108,7,,,1702.66910166002,1706.66915952301,"['w', 'a', 'g', 'o', 'n']","[0.5688551760104019, 0.6651827880123165, 0.765131056017708, 0.9089754680171609, 0.984834533999674]",1702.66910166002,1706.66915952301,,,,,Ian_w_video,1,2020_Dec_02_2137,typingtask,2020.2.8,60.0150077088397
kremp,,,,,4,13,109,21,,,1708.65314224502,1712.65363918402,"['k', 'r', 'e', 'm', 'p']","[0.6003847540123388, 0.7045738660090137, 0.78842262699618, 0.8524949619895779, 0.988488506001886]",1708.65314224502,1712.65363918402,,,,,Ian_w_video,1,2020_Dec_02_2137,typingtask,2020.2.8,60.0150077088397
right,,,,,4,14,110,2,,,1714.63710702703,1718.63719076302,"['r', 'i', 'g', 'h', 't']","[0.5251373850042, 0.6761215069855098, 0.7601281589886639, 0.8701856999832671, 0.9501377599954139]",1714.63710702703,1718.63719076302,,,,,Ian_w_video,1,2020_Dec_02_2137,typingtask,2020.2.8,60.0150077088397
about,,,,,4,15,111,1,,,1720.620878535,1724.62085059303,"['a', 'b', 'o', 'u', 't']","[0.5279711059993133, 0.6480365290190093, 0.8069124729954638, 0.8829497020051349, 0.9749181669903919]",1720.620878535,1724.62085059303,,,,,Ian_w_video,1,2020_Dec_02_2137,typingtask,2020.2.8,60.0150077088397
where,,,,,4,16,112,5,,,1726.60498113401,1730.60443160502,"['w', 'h', 'e', 'r', 'e']","[0.49030644999584183, 0.6101913479797076, 0.6704007999796886, 0.7222041600034572, 0.8382465379836503]",1726.60498113401,1730.60443160502,,,,,Ian_w_video,1,2020_Dec_02_2137,typingtask,2020.2.8,60.0150077088397
think,,,,,4,17,113,3,,,1732.587821455,1736.58761039501,"['t', 'h', 'i', 'n', 'k']","[0.5390116980124731, 0.6071425800037105, 0.6992911999986973, 0.875118227006169, 0.9349557060049847]",1732.587821455,1736.58761039501,,,,,Ian_w_video,1,2020_Dec_02_2137,typingtask,2020.2.8,60.0150077088397
lumpo,,,,,4,18,114,18,,,1738.57176929901,1742.57241720802,"['l', 'u', 'm', 'p', 'o']","[0.5506730119814165, 0.6669767049897928, 0.895582914003171, 1.0476972789911088, 1.09174409499974]",1738.57176929901,1742.57241720802,,,,,Ian_w_video,1,2020_Dec_02_2137,typingtask,2020.2.8,60.0150077088397
incan,,,,,4,19,115,16,,,1744.55520273402,1748.55546528302,"['i', 'n', 'c', 'a', 'n']","[0.5491122310049832, 0.6290637770143803, 0.7687212970049586, 0.8408266240148805, 0.9728632619953714]",1744.55520273402,1748.55546528302,,,,,Ian_w_video,1,2020_Dec_02_2137,typingtask,2020.2.8,60.0150077088397
wooer,,,,,4,20,116,13,,,1750.53939120602,1754.53956063202,"['w', 'o', 'o', 'e', 'r']","[0.5500993620080408, 0.6703659589984454, 0.8340877390000969, 0.9102368699968792, 0.9782567610091064]",1750.53939120602,1754.53956063202,,,,,Ian_w_video,1,2020_Dec_02_2137,typingtask,2020.2.8,60.0150077088397
wovet,,,,,4,21,117,22,,,1756.52285297902,1760.522291628,"['w', 'o', 'v', 'e', 't']","[0.531584431999363, 0.6606638969969936, 0.7592792889918201, 0.9273536569962744, 1.0034751200000755]",1756.52285297902,1760.522291628,,,,,Ian_w_video,1,2020_Dec_02_2137,typingtask,2020.2.8,60.0150077088397
yeses,,,,,4,22,118,14,,,1762.50684592401,1766.50732162801,"['y', 'e', 's', 'e', 's']","[0.7229383729863912, 0.8469448350078892, 0.9507317949901335, 1.1401137099892367, 1.255911387008382]",1762.50684592401,1766.50732162801,,,,,Ian_w_video,1,2020_Dec_02_2137,typingtask,2020.2.8,60.0150077088397
merry,,,,,4,23,119,8,,,1768.49083032302,1772.507623949,"['m', 'e', 'r', 'r', 'y']","[0.5356061210040934, 0.6275424729974475, 0.6913749059895054, 0.8683679229870904, 0.9645962389768101]",1768.49083032302,1772.507623949,,,,,Ian_w_video,1,2020_Dec_02_2137,typingtask,2020.2.8,60.0150077088397
,,,,,,,,,,,,,,,,,,,1774.474404248,None,,,,,,
