,sID,Trial #,string,bi_1,bi_2,bi_3,bi_4,key_resp.keys.1,key_resp.keys.2,key_resp.keys.3,key_resp.keys.4,key_resp.keys.5,key_resp.keys.6,key_resp.rt.1,key_resp.rt.2,key_resp.rt.3,key_resp.rt.4,key_resp.rt.5,key_resp.rt.6,resp_string,WF Type,BF Type
0,s09,0,zibja,zi,ib,bj,ja,z,i,b,j,a,,0.993521900032647,1.2013832000084221,1.377363899955526,1.7373688999796286,1.8413432000670582,0.0,zibja,pseudo,
1,s09,1,cheer,ch,he,ee,er,c,h,e,e,r,,0.7022569000255316,0.7902773000532761,0.9182339000981301,1.0464541000546888,1.1342138000763953,0.0,cheer,medwf,
2,s09,2,faqir,fa,aq,qi,ir,f,a,q,i,r,,0.586300199967809,0.7304103999631479,1.0344377999426797,1.6582812999840826,1.810401999973692,0.0,faqir,lowwf,
3,s09,3,kremp,kr,re,em,mp,k,r,e,m,p,,0.7903063000412658,0.9503346000565216,1.0542022000299767,1.1341978999553248,1.2382949000457302,0.0,kremp,pseudo,
4,s09,4,zibja,zi,ib,bj,ja,z,i,b,j,a,,0.7222457999596372,0.8902396999765188,1.0902235999237746,1.2663043999345973,1.3862085998989642,0.0,zibja,pseudo,
5,s09,5,there,th,he,er,re,t,h,e,r,e,,0.7022583000361919,0.7502497000386938,0.8221558999503031,0.8941630000481382,0.9663357000099495,0.0,there,highwf,
6,s09,6,belly,be,el,ll,ly,b,e,l,l,y,,0.6743540000170469,0.8184149999869987,0.9142366000451148,1.0502608000533655,1.1382728000171483,0.0,belly,medwf,
7,s09,7,haole,ha,ao,ol,le,h,a,o,l,e,,0.6941445999545977,0.8381822999799624,1.086284299963154,1.294361099950038,1.374447699985467,0.0,haole,lowwf,
8,s09,8,belly,be,el,ll,ly,b,e,l,l,y,,0.5700664001051337,0.7139866000507027,0.7941593000432476,0.930087500018999,1.0339898000238463,0.0,belly,medwf,
9,s09,9,buddy,bu,ud,dd,dy,b,u,d,d,y,,0.5980682999361306,0.806122999987565,1.0300900000147521,1.1581247999565676,1.358126200037077,0.0,buddy,highwf,
10,s09,10,edthe,ed,dt,th,he,e,d,t,h,e,,0.6742425999836996,0.8741699000820518,1.114242700044997,1.2340661999769509,1.306158100022003,0.0,edthe,pseudo,
11,s09,11,haole,ha,ao,ol,le,h,a,l,e,l,,0.6381122000748292,0.790033100056462,0.8940456000855193,1.9503295000176877,2.4861462000990286,0.0,halel,lowwf,
12,s09,12,kremp,kr,re,em,mp,k,r,e,m,p,,0.7300138999707997,0.9380462999688461,1.0262633999809623,1.114005699986592,1.162157400045544,0.0,kremp,pseudo,
13,s09,13,zibja,zi,ib,bj,ja,z,i,b,j,a,,0.6780679998919368,0.8619992999592796,1.014171399991028,1.19810369994957,1.2941711999010295,0.0,zibja,pseudo,
14,s09,14,theme,th,he,em,me,t,h,e,m,e,,0.7140462000388652,0.7780202999711037,0.8820926999906078,0.9621284999884665,1.0583102999953553,0.0,theme,medwf,
15,s09,15,tithe,ti,it,th,he,t,i,t,h,e,,0.7659987000515684,0.8859499000245705,1.0300899000139907,1.0938667000737041,1.213923600036651,0.0,tithe,lowwf,
16,s09,16,would,wo,ou,ul,ld,w,o,u,l,d,,0.6419495000736788,0.7220715000294149,0.7619015000527725,0.8980337000684813,0.9538590000011027,0.0,would,highwf,
17,s09,17,champ,ch,ha,am,mp,c,h,a,m,p,,0.7019888000795618,0.7899578000651672,0.8939116999972612,0.9899482000619173,1.0141292000189424,0.0,champ,medwf,
18,s09,18,pykka,py,yk,kk,ka,p,y,k,k,a,,0.6979205999523401,1.0338893999578431,1.3138750999933109,1.4659477999666706,1.5460055000148714,0.0,pykka,pseudo,
19,s09,19,think,th,hi,in,nk,t,h,i,n,k,,0.6619203999871388,0.6859448000323027,0.7738151999656111,0.9020322000142187,0.9498740000417456,0.0,think,highwf,
20,s09,20,haole,ha,ao,ol,le,h,a,o,l,e,,0.6259465999901295,0.7779846999328583,0.9299520999193192,1.0978011999977753,1.2019569999538362,0.0,haole,lowwf,
21,s09,21,there,th,he,er,re,t,h,e,r,e,,0.6618613000027835,0.6939779000822455,0.7900430000154302,0.8458188000367954,0.9180451000574976,0.0,there,highwf,
22,s09,22,druze,dr,ru,uz,ze,d,r,u,z,e,,0.7138226999668404,0.8819600000279024,0.9779792999615893,1.1057972999988124,1.2419338000472635,0.0,druze,lowwf,
23,s09,23,heond,he,eo,on,nd,h,e,o,n,d,,0.6458558000158519,0.7737453000154346,0.9178863000124693,1.0537857000017539,1.1659417999908328,0.0,heond,pseudo,
24,s09,24,faqir,fa,aq,qi,ir,f,a,q,u,i,r,0.7217624000040814,0.8659264000598341,1.1297334000701085,1.2979338000295684,1.609775000018999,1.9137202000711113,faquir,lowwf,
25,s09,25,theme,th,he,em,me,t,h,e,,,,0.6617547000059858,0.7017686000326648,0.9177236000541598,0.0,0.0,0.0,the,medwf,
26,s09,26,think,th,hi,in,nk,t,h,i,n,k,,0.5857452999334782,0.6257812000112608,0.7136917999014258,0.8336712999735028,0.8898926000110805,0.0,think,highwf,
27,s09,27,cheer,ch,he,ee,er,c,h,e,e,r,,0.6297365000937134,0.7097391000716016,0.8457969001028687,0.9898464001016691,1.0776769000804052,0.0,cheer,medwf,
28,s09,28,buddy,bu,ud,dd,dy,b,u,d,d,y,,0.673748999950476,0.8336502999300137,1.0096625000005588,1.1377172999782488,1.2895761999534443,0.0,buddy,highwf,
29,s09,29,puppy,pu,up,pp,py,p,u,p,p,y,,0.6376205999404192,0.8216350999427959,0.9817098999628797,1.1258066999725997,1.3017225000075996,0.0,puppy,medwf,
30,s09,30,vodka,vo,od,dk,ka,v,o,d,k,a,,0.7059589000418782,0.8817493000533432,1.441616200027056,1.6417253999970853,1.7375506999669597,0.0,vodka,medwf,
31,s09,31,edthe,ed,dt,th,he,e,d,t,h,e,,0.65370859997347,0.8856002000393346,1.1255542000290006,1.2216510999714956,1.293582999962382,0.0,edthe,pseudo,
32,s09,32,buddy,bu,ud,dd,dy,b,u,d,d,y,,0.6176480000140145,0.7615632000379264,0.9215299999341369,1.0735209999838844,1.225614900002256,0.0,buddy,highwf,
33,s09,33,edthe,ed,dt,th,he,e,d,t,h,e,,0.6455285000847653,0.8615863000741228,1.0855588000267744,1.1575897000730038,1.2455869000405073,0.0,edthe,pseudo,
34,s09,34,champ,ch,ha,am,mp,c,h,a,m,p,,0.7055298999184743,0.8094573999987915,0.92955139989499,1.0176191999344155,1.057658699923195,0.0,champ,medwf,
35,s09,35,think,th,hi,in,nk,t,h,i,n,k,,0.6374991999473423,0.6776138000423089,0.7574108999688178,0.8695456000277773,0.9254730000393465,0.0,think,highwf,
36,s09,36,cooed,co,oo,oe,ed,c,o,o,e,d,,0.6255163999740034,0.7934066999005154,0.9534194999141619,1.081464699935168,1.2494279999518767,0.0,cooed,lowwf,
37,s09,37,cheer,ch,he,ee,er,c,h,e,e,r,,0.621430000057444,0.7254433000925928,0.8454689000500366,0.9734073000727221,1.0454147000564262,0.0,cheer,medwf,
38,s09,38,theme,th,he,em,me,t,h,e,m,e,,0.5934618000173941,0.6414142000721768,0.7533336000051349,0.8654453000053763,0.889415799989365,0.0,theme,medwf,
39,s09,39,therm,th,he,er,rm,t,h,e,r,m,,0.7413965000305325,0.8054780000820756,0.9172785000409931,1.0214087000349537,1.0854152999818325,0.0,therm,lowwf,
40,s09,40,vanru,va,an,nr,ru,v,a,n,r,u,,0.7453246000222862,0.9133183000376448,1.0974486999912187,1.3373662000522017,1.4653592000249773,0.0,vanru,pseudo,
41,s09,41,druze,dr,ru,uz,ze,d,r,u,z,e,,0.6773237999295816,0.8532545999623835,0.9973112000152469,1.1174284999724478,1.2692843999247998,0.0,druze,lowwf,
42,s09,42,pykka,py,yk,kk,ka,p,y,k,k,a,,0.697312599979341,0.9292204000521451,1.2093232000479475,1.3532113999826834,1.4092960000270978,0.0,pykka,pseudo,
43,s09,43,vodka,vo,od,dk,ka,v,o,d,k,a,,0.701483300072141,0.9012983000138775,1.0772636000765488,1.3492444000439718,1.4774133000755683,0.0,vodka,medwf,
44,s09,44,edthe,ed,dt,th,he,e,d,t,h,e,,0.6812724999617785,0.8971877000294626,1.1612334999954328,1.2413372999290004,1.3451872000005096,0.0,edthe,pseudo,
45,s09,45,kremp,kr,re,em,mp,k,r,e,m,p,,0.6211971000302583,0.797263800050132,1.0052542999619618,1.1011737999506295,1.173310499987565,0.0,kremp,pseudo,
46,s09,46,there,th,he,er,re,t,h,e,r,e,,0.6333742999704555,0.6893952999962494,0.7771261000307277,0.8651966999750584,0.9293453000718728,0.0,there,highwf,
47,s09,47,kremp,kr,re,em,mp,k,r,e,m,p,,0.6530945999547839,0.797041599988006,0.8770385000389069,0.965161900036037,1.0370560999726877,0.0,kremp,pseudo,
48,s09,48,champ,ch,ha,am,mp,c,h,a,m,p,,0.7290916999336332,0.8252064000116661,0.921072999946773,0.9930443000048399,1.0251383999129757,0.0,champ,medwf,
49,s09,49,vodka,vo,od,dk,ka,v,o,d,k,a,,0.6771352000068873,0.8292003000387922,0.9651747000170872,1.0530706000281498,1.2051140000112355,0.0,vodka,medwf,
50,s09,50,there,th,he,er,re,t,h,e,r,e,,0.6251246000174433,0.6650200000731274,0.7610843000002205,0.8172618000535294,0.8970355000346899,0.0,there,highwf,
51,s09,51,lucky,lu,uc,ck,ky,l,u,c,k,y,,0.6050390000455081,0.7650780000258237,0.9330664000008255,1.037122100009583,1.197109599946998,0.0,lucky,highwf,
52,s09,52,druze,dr,ru,uz,ze,d,r,u,z,e,,0.6091241999529302,0.7689612999092788,0.8809967999113724,1.033029199927114,1.1450632999185473,0.0,druze,lowwf,
53,s09,53,vodka,vo,od,dk,ka,v,o,d,a,k,,0.6531180000165477,0.7890856000594795,1.228994800010696,1.4290321000153199,1.4929244000231847,0.0,vodak,medwf,
54,s09,54,lucky,lu,uc,ck,ky,l,u,c,k,y,,0.720967200002633,0.9129572999663651,1.0890560999978334,1.1928700999123976,1.3369464999996126,0.0,lucky,highwf,
55,s09,55,about,ab,bo,ou,ut,a,b,o,u,t,,0.5409045000560582,0.6688968000235036,0.7569112000055611,0.8288726999890059,1.060950000071898,0.0,about,highwf,
56,s09,56,druze,dr,ru,uz,ze,d,r,u,z,e,,0.6088601999217644,0.8168497999431565,1.048761299927719,1.1448300000047311,1.2729185000061989,0.0,druze,lowwf,
57,s09,57,buddy,bu,ud,dd,dy,b,u,d,d,y,,0.6689175000647083,0.7968432999914512,0.9249810000183061,1.0768787000561133,1.2049027000321075,0.0,buddy,highwf,
58,s09,58,would,wo,ou,ul,ld,w,o,u,l,d,,0.6648415999952704,0.7448483998887241,0.7929626998957247,0.9127187998965383,0.9607257999014109,0.0,would,highwf,
59,s09,59,heond,he,eo,on,nd,h,e,o,n,d,,0.6287593999877572,0.8447048000525683,0.9887384000467137,1.0767083000391722,1.1647296000737697,0.0,heond,pseudo,
60,s09,60,haole,ha,ao,ol,le,h,a,o,l,e,,0.6728818999836221,1.2247820000629872,1.5927716000005603,1.7529021000955254,1.8408406000817195,0.0,haole,lowwf,
61,s09,61,cooed,co,oo,oe,ed,c,o,o,e,d,,0.7169333000201732,0.8528477000072598,0.9966890000505373,1.09264789998997,1.2607026000041515,0.0,cooed,lowwf,
62,s09,62,cheer,ch,he,ee,er,c,h,e,e,r,,0.7126526000211015,0.8167909000767395,0.95265410002321,1.1128118000924587,1.192680700100027,0.0,cheer,medwf,
63,s09,63,cooed,co,oo,oe,ed,c,o,o,e,d,,0.5966083999956027,0.7565604000119492,0.9086391000309959,1.028571900096722,1.2125546000897884,0.0,cooed,lowwf,
64,s09,64,puppy,pu,up,pp,py,p,u,p,p,y,,0.648658899939619,0.8327948999358341,0.9926066999323666,1.152567399898544,1.2566130999475718,0.0,puppy,medwf,
65,s09,65,about,ab,bo,ou,ut,a,b,o,u,t,,0.6929814999457449,0.7645473999436945,0.8368040999630466,0.9005597999785095,1.0045789999421686,0.0,about,highwf,
66,s09,66,theme,th,he,em,me,t,h,e,m,e,,0.6726000999333337,0.7287550999317318,0.8168446000199765,0.9767137999879196,1.1446294999914244,0.0,theme,medwf,
67,s09,67,tithe,ti,it,th,he,t,i,t,h,e,,0.7165611000964418,0.884542900021188,1.0124399000778794,1.0924521000124514,1.1805771000217646,0.0,tithe,lowwf,
68,s09,68,cheer,ch,he,ee,er,c,h,e,e,r,,0.6086737000150606,0.7124717999249697,0.8085016999393702,0.9445125999627635,1.032416099915281,0.0,cheer,medwf,
69,s09,69,therm,th,he,er,rm,t,h,e,r,m,,0.6204993999563158,0.6765484999632463,0.7726016000378877,0.8365684000309557,0.9405907000182196,0.0,therm,lowwf,
70,s09,70,lucky,lu,uc,ck,ky,l,u,c,k,y,,0.6009588000597432,0.7523419000208378,0.9204601000528783,1.0408022000920027,1.192426300025545,0.0,lucky,highwf,
71,s09,71,think,th,hi,in,nk,t,h,i,n,k,,0.5964232999831438,0.6364426999352872,0.7163726999424398,0.8364061999600381,0.8923353999853134,0.0,think,highwf,
72,s09,72,therm,th,he,er,rm,t,h,e,r,m,,0.616386599955149,0.656293399981223,0.7444450999610126,0.800468000001274,0.8402946999995038,0.0,therm,lowwf,
73,s09,73,kremp,kr,re,em,mp,k,r,e,m,p,,0.6923980000428855,0.8283370999852195,0.9403687999583781,1.0364630999974906,1.1003322000615299,0.0,kremp,pseudo,
74,s09,74,tithe,ti,it,th,he,t,i,t,h,e,,0.6323394000064582,0.7123233999591321,0.872406700043939,0.9203317000064999,1.0243809999665245,0.0,tithe,lowwf,
75,s09,75,heond,he,eo,on,nd,h,e,o,n,d,,0.6122872000560164,0.748322100029327,1.0203419999452308,1.1083813000004739,1.2125007000286132,0.0,heond,pseudo,
76,s09,76,puppy,pu,up,pp,py,p,u,p,p,y,,0.6800981999840587,0.8239896999439225,0.9519804000156,1.1040592999197543,1.2161742999451235,0.0,puppy,medwf,
77,s09,77,vanru,va,an,nr,ru,v,a,n,r,u,,0.6923127999762073,0.8122136000311002,0.9483242999995127,1.1642933000111952,1.268192599993199,0.0,vanru,pseudo,
78,s09,78,champ,ch,ha,am,mp,c,h,a,m,p,,0.632305399980396,0.7523359000915661,0.8723358000861481,0.9282674000132829,0.9521760999923572,0.0,champ,medwf,
79,s09,79,there,th,he,er,re,t,h,e,r,e,,0.572256900020875,0.6281439000740647,0.7082010000012815,0.7721760000567883,0.8522729000542313,0.0,there,highwf,
80,s09,80,pykka,py,yk,kk,ka,p,y,k,k,a,,0.6003647000761703,0.816304299980402,1.0482431000564247,1.2082896999781951,1.2402823000447825,0.0,pykka,pseudo,
81,s09,81,belly,be,el,ll,ly,b,e,l,l,y,,0.6361472000135109,0.7963019000599161,0.8840999000240117,1.012028400087729,1.1003889000276104,0.0,belly,medwf,
82,s09,82,about,ab,bo,ou,ut,a,b,o,u,t,,0.5360707000363618,0.6001929000485688,0.6801948000211269,0.7441861000843346,0.832056500017643,0.0,about,highwf,
83,s09,83,tithe,ti,it,th,he,t,i,t,h,e,,0.6201715000206605,0.7080033000092953,0.8521026000380516,0.9320959999458864,1.044140600017272,0.0,tithe,lowwf,
84,s09,84,pykka,py,yk,kk,ka,p,y,k,k,a,,0.5921164000174031,0.8081015000352636,1.0240755000850186,1.1680766000645235,1.2560408000135794,0.0,pykka,pseudo,
85,s09,85,would,wo,ou,ul,ld,w,o,u,l,d,,0.6439930000342429,0.6998928000684828,0.7480658000567928,0.8600713000632823,0.939935400034301,0.0,would,highwf,
86,s09,86,vanru,va,an,nr,ru,v,a,n,r,u,,0.8239337999839336,0.944377199979499,1.1358734000241384,1.3519941000267863,1.5199542000191286,0.0,vanru,pseudo,
87,s09,87,about,ab,bo,ou,ut,a,b,o,u,t,,0.5319411000236869,0.6120534000219777,0.6838675999315456,0.7399215999757871,0.7799518000101671,0.0,about,highwf,
88,s09,88,lucky,lu,uc,ck,ky,l,u,c,k,y,,0.6158435000106692,0.7359057000139728,0.8879756999667734,0.9919867999851704,1.159954100032337,0.0,lucky,highwf,
89,s09,89,heond,he,eo,on,nd,h,e,o,n,d,,0.6599019999848679,0.7879534000530839,1.307800899958238,1.3557530000107363,1.4278655999805778,0.0,heond,pseudo,
90,s09,90,cooed,co,oo,oe,ed,c,o,o,e,d,,0.6078061000443995,0.7037926999619231,0.8398398000281304,0.9360936000011861,1.0959760999539867,0.0,cooed,lowwf,
91,s09,91,faqir,fa,aq,qi,ir,f,a,q,i,r,,0.6749600999755785,0.8111894000321627,1.115109600010328,1.435155100072734,1.587130400002934,0.0,faqir,lowwf,
92,s09,92,belly,be,el,ll,ly,b,e,l,l,y,,0.5916972999693826,0.7437853999435902,0.799885299988091,0.935779899940826,1.031752899987623,0.0,belly,medwf,
93,s09,93,puppy,pu,up,pp,py,p,u,p,p,y,,0.5637678999919444,0.7478380999527872,0.915790900005959,1.06775970000308,1.1957790999440476,0.0,puppy,medwf,
94,s09,94,tithe,ti,it,th,he,t,i,t,h,e,,0.6077795999590307,0.6957127000205219,0.855716299964115,0.9677241999888793,1.0637019999558106,0.0,tithe,lowwf,
95,s09,95,zibja,zi,ib,bj,ja,z,i,b,j,a,,0.7796151000075042,0.9877160999458283,1.1958008999936283,1.435719099943526,1.5637287999270484,0.0,zibja,pseudo,
96,s09,96,vodka,vo,od,dk,ka,v,o,d,k,a,,0.6076979000354186,0.8316765000345185,1.0397000999655575,1.2076840000227094,1.327670200029388,0.0,vodka,medwf,
97,s09,97,zibja,zi,ib,bj,ja,z,i,b,j,a,,0.763628700049594,0.9636696999659762,1.1077567000174895,1.2837354000657797,1.3797352999681607,0.0,zibja,pseudo,
98,s09,98,think,th,hi,in,nk,t,h,i,n,k,,0.6796333000529557,0.7275996999815106,0.8075264000799507,0.9196517000673339,0.9515274000586942,0.0,think,highwf,
99,s09,99,faqir,fa,aq,qi,ir,f,a,q,i,r,,0.7316788000753149,0.9156355999875814,1.1956187000032514,1.4035953000420704,1.5636094000656158,0.0,faqir,lowwf,
100,s09,100,would,wo,ou,ul,ld,w,o,u,l,d,,0.6555648000212386,0.7114808999467641,0.7596248999470845,0.8795410000020638,0.9595241999486461,0.0,would,highwf,
101,s09,101,heond,he,eo,on,nd,h,e,o,n,d,,0.6434585000388324,0.8273248000768945,0.9875283000292256,1.0755018000490963,1.1634022000944242,0.0,heond,pseudo,
102,s09,102,faqir,fa,aq,qi,ir,f,a,q,i,r,,0.6235576000763103,0.8234017000067979,1.1435524000553414,1.4476264000404626,1.5594006000319496,0.0,faqir,lowwf,
103,s09,103,vanru,va,an,nr,ru,v,a,n,r,u,,0.675450999988243,0.8435166999697685,1.019535299972631,1.187463599955663,1.4034025999717414,0.0,vanru,pseudo,
104,s09,104,therm,th,he,er,rm,t,h,e,r,m,,0.6154010000173002,0.6795037999982014,0.7995459999656305,0.8552964000264183,0.8954570000059903,0.0,therm,lowwf,
105,s09,105,puppy,pu,up,pp,py,p,u,p,p,y,,0.5871361000463367,0.763093400048092,0.8911762000061572,1.051088299951516,1.1792537999572232,0.0,puppy,medwf,
106,s09,106,pykka,py,yk,kk,ka,p,y,k,k,a,,0.5912636000430211,0.8313064000103623,1.0713154000695795,1.2153243999928236,1.2951858000596985,0.0,pykka,pseudo,
107,s09,107,about,ab,bo,ou,ut,a,b,o,u,t,,0.6114289000397548,0.6672680000774562,0.7553899000631645,0.811217000009492,0.8912394000217319,0.0,about,highwf,
108,s09,108,cooed,co,oo,oe,ed,c,o,o,e,d,,0.5914897000184283,0.7195555000798777,0.8633026999887079,0.9753820000914857,1.1672638000454754,0.0,cooed,lowwf,
109,s09,109,belly,be,el,ll,ly,b,e,l,l,y,,0.5153675000183284,0.6673033999977633,0.7471954999491572,0.8991641999455169,0.9954297000076622,0.0,belly,medwf,
110,s09,110,edthe,ed,dt,th,he,e,d,t,h,e,,0.7032063000369817,0.9033367000520229,1.13522469997406,1.2391600999981165,1.3191791999852285,0.0,edthe,pseudo,
111,s09,111,buddy,bu,ud,dd,dy,b,u,d,d,y,,0.619173200102523,0.7791602000361308,0.9872681000269949,1.1312771000666544,1.2832005000673234,0.0,buddy,highwf,
112,s09,112,haole,ha,ao,ol,le,b,a,l,e,,,0.6551343000028282,1.383173800073564,2.1591078999917954,2.3430936000077054,0.0,0.0,bale,lowwf,
113,s09,113,druze,dr,ru,uz,ze,d,r,u,z,e,,0.6510641999775544,0.8110576999606565,1.0271104999119416,1.1072421999415383,1.2192284999182448,0.0,druze,lowwf,
114,s09,114,would,wo,ou,ul,ld,w,o,u,l,d,,0.615116799948737,0.6710421999450773,0.7110195000423118,0.8309903000481427,0.8790670000016689,0.0,would,highwf,
115,s09,115,vanru,va,an,nr,ru,v,a,n,r,u,,0.715050800004974,0.8991144000319764,1.0990782000590116,1.3070575000019744,1.4509547000052407,0.0,vanru,pseudo,
116,s09,116,lucky,lu,uc,ck,ky,l,u,c,k,y,,0.5911051000002772,0.7349578000139445,0.9109221000690013,1.015013900003396,1.1829304000129923,0.0,lucky,highwf,
117,s09,117,therm,th,he,er,rm,t,h,e,r,m,,0.6989516000030562,0.7869415999157354,0.8589540999382734,0.9230035999789834,0.9869033999275416,0.0,therm,lowwf,
118,s09,118,theme,th,he,em,me,t,h,e,m,e,,0.5749149000039324,0.614903400070034,0.7030418000649661,0.7908601000672206,0.8948901999974623,0.0,theme,medwf,
119,s09,119,champ,ch,ha,am,mp,c,h,a,m,p,,0.6428862999891862,0.7388629999477416,0.827181400032714,0.9148654999444261,0.9389754999428988,0.0,champ,medwf,
120,s09,120,puppy,pu,up,pp,py,p,u,p,p,y,,0.6733709999825805,0.7935798999387771,0.953446599887684,1.0733604999259114,1.177347799995914,0.0,puppy,medwf,
121,s09,121,therm,th,he,er,rm,t,h,e,r,m,,0.51752310001757,0.565375900012441,0.6453023999929428,0.7093735999660566,0.7572780000045896,0.0,therm,lowwf,
122,s09,122,faqir,fa,aq,qi,ir,f,a,q,i,r,,0.5693222000263631,0.7293744999915361,1.0172630000161007,1.2494653000030667,1.3614280000329018,0.0,faqir,lowwf,
123,s09,123,cheer,ch,he,ee,er,c,h,e,e,r,,0.6933606999227777,0.7894167999038473,0.9013673999579623,1.0612392999464646,1.1173776999348775,0.0,cheer,medwf,
124,s09,124,tithe,ti,it,th,he,t,i,t,h,e,,0.6173338000662625,0.8013611000496894,0.9213909000391141,1.0015154000138864,1.0572066000895575,0.0,tithe,lowwf,
125,s09,125,buddy,bu,ud,dd,dy,b,u,d,d,y,,0.5973332999274135,0.7092494999524206,0.8452647000085562,0.9571594999870285,1.157159199938178,0.0,buddy,highwf,
126,s09,126,edthe,ed,dt,th,he,e,d,t,h,e,,0.6331245000474155,0.8812070999993011,1.1612132999580353,1.2330664000473917,1.3214227999560535,0.0,edthe,pseudo,
127,s09,127,vanru,va,an,nr,ru,v,a,n,r,u,,0.6931760999141261,0.8852548999711871,1.077097799978219,1.2532917999196798,1.3812403999036178,0.0,vanru,pseudo,
128,s09,128,heond,he,eo,on,nd,h,e,o,n,d,,0.6331717999419197,0.7611573999747634,0.9211080999812111,1.0171576999127865,1.0972477999748662,0.0,heond,pseudo,
129,s09,129,belly,be,el,ll,ly,b,e,l,l,y,,0.5811119000427425,0.7011498999781907,0.7971269000554457,0.917061600019224,1.01307220000308,0.0,belly,medwf,
130,s09,130,theme,th,he,em,me,t,h,e,m,e,,0.5531125999987125,0.6091873000841588,0.6891297000693157,0.8010323999915272,0.865171100012958,0.0,theme,medwf,
131,s09,131,heond,he,eo,on,nd,h,e,o,n,d,,0.6210092999972403,0.725101099931635,0.8609520000172779,0.9330041999928653,1.0130856999894604,0.0,heond,pseudo,
132,s09,132,edthe,ed,dt,th,he,e,d,t,h,e,,0.6649614000925794,0.8729909000685439,1.0411437000147998,1.1289529000641778,1.1930210000136867,0.0,edthe,pseudo,
133,s09,133,cooed,co,oo,oe,ed,c,o,o,e,d,,0.6689279000274837,0.8369075999362394,0.9888949999585748,1.108885299996473,1.3011041999561712,0.0,cooed,lowwf,
134,s09,134,kremp,kr,re,em,mp,k,r,e,m,p,,0.6648775000358,0.824930900009349,0.9129760999931023,1.0650674999924377,1.104976800037548,0.0,kremp,pseudo,
135,s09,135,haole,ha,ao,ol,le,h,a,o,l,e,,0.6289008000167087,0.8128321999683976,1.0209206000436097,1.204975700005889,1.3327871999936178,0.0,haole,lowwf,
136,s09,136,about,ab,bo,ou,ut,a,b,o,u,t,,0.648884000023827,0.7210440000053495,0.7930288000497967,0.8649626999394968,0.9529473000438884,0.0,about,highwf,
137,s09,137,therm,th,he,er,rm,t,h,e,m,r,,0.636902500060387,0.684846100048162,0.7967144000576809,0.9087454000255093,1.0289250999921933,0.0,themr,lowwf,
138,s09,138,zibja,zi,ib,bj,ja,z,i,b,j,a,,0.7368603000650182,0.9367117000510916,1.1287157000042498,1.336727000074461,1.4727162000490353,0.0,zibja,pseudo,
139,s09,139,about,ab,bo,ou,ut,a,b,o,u,t,,0.5808129000943154,0.6368884000694379,0.7086873000953346,0.7568452000850812,0.852687600068748,0.0,about,highwf,
140,s09,140,vodka,vo,od,dk,ka,v,o,d,k,a,,0.6567434999160469,0.824684499995783,1.0328439999138936,1.2007517999736592,1.3447403999743983,0.0,vodka,medwf,
141,s09,141,faqir,fa,aq,qi,ir,f,a,q,i,r,,0.708718299982138,0.9407050999579951,1.3646767999744043,1.6206637000432238,1.788747400045395,0.0,faqir,lowwf,
142,s09,142,tithe,ti,it,th,he,i,t,t,h,e,,0.7606112000066787,0.7926111000124365,1.3926815999438986,1.512689399998635,1.5688002000097185,0.0,itthe,lowwf,
143,s09,143,edthe,ed,dt,th,he,e,d,t,h,e,,0.7166859999997541,0.916598099982366,1.1407393000554293,1.260519600007683,1.3486799000529572,0.0,edthe,pseudo,
144,s09,144,champ,ch,ha,am,mp,c,h,a,m,p,,0.648604299989529,0.7685596999945119,0.9286213000304997,1.0246354000410065,1.080547400051728,0.0,champ,medwf,
145,s09,145,heond,he,eo,on,nd,h,e,o,n,d,,0.7325744000263512,0.8686547999968752,1.0365071999840438,1.1566392000531778,1.2446232000365853,0.0,heond,pseudo,
146,s09,146,think,th,hi,in,nk,t,h,i,n,k,,0.6244814000092447,0.6725588999688625,0.7604888000059873,0.86456110002473,0.9285739000188187,0.0,think,highwf,
147,s09,147,belly,be,el,ll,ly,b,e,l,l,y,,0.5725265999790281,0.7404998999554664,0.8525738000171259,1.0045472999336198,1.1165709999622777,0.0,belly,medwf,
148,s09,148,druze,dr,ru,uz,ze,d,r,u,z,e,,0.6164028000785038,0.8564072999870405,1.0324094000970945,1.1684534000232816,1.2965905000455678,0.0,druze,lowwf,
149,s09,149,faqir,fa,aq,qi,ir,f,a,q,i,r,,0.6043706999626011,0.7724114999873564,1.076462100027129,1.268356699962169,1.3963463000254706,0.0,faqir,lowwf,
150,s09,150,haole,ha,ao,ol,le,h,a,o,l,e,,0.6403776999795809,0.8083313000388443,0.9762869999976829,1.1524945000419393,1.2563245999626815,0.0,haole,lowwf,
151,s09,151,zibja,zi,ib,bj,ja,z,i,b,j,a,,0.6843376000178978,1.0042960999999195,1.2202817000215873,1.4362549999495968,1.5802086000330746,0.0,zibja,pseudo,
152,s09,152,cooed,co,oo,oe,ed,c,o,o,e,d,,0.6002844000468031,0.776238500024192,0.9361922000534832,1.064288099994883,1.2722369000548497,0.0,cooed,lowwf,
153,s09,153,pykka,py,yk,kk,ka,p,y,k,k,a,,0.5959237999049947,0.9478576999390498,1.1960634000133723,1.371862499974668,1.483840800006874,0.0,pykka,pseudo,
154,s09,154,puppy,pu,up,pp,py,p,u,p,p,y,,0.6482242000056431,0.8641912000020966,1.0482618999667466,1.2005600999109447,1.3041913999477401,0.0,puppy,medwf,
155,s09,155,would,wo,ou,ul,ld,w,o,u,l,d,,0.7241649000206962,0.7882650000974536,0.8360898999962956,0.9560762000037357,1.0283200000412762,0.0,would,highwf,
156,s09,156,pykka,py,yk,kk,ka,p,y,k,k,a,,0.5841269999509677,1.1841712000314146,1.3761006999993697,1.5281173000112176,1.6162409000098705,0.0,pykka,pseudo,
157,s09,157,vanru,va,an,nr,ru,v,a,n,r,u,,0.692136500030756,0.8521502000512555,0.9960506000788882,1.3801099000265822,1.46019090001937,0.0,vanru,pseudo,
158,s09,158,would,wo,ou,ul,ld,w,o,u,l,d,,0.5840438000159338,0.6240420999238268,0.6800211999798194,0.8000063999788836,0.880013299989514,0.0,would,highwf,
159,s09,159,puppy,pu,up,pp,py,p,u,p,p,y,,0.5562061999225989,0.7241567999590188,0.8840571999317035,1.044123200001195,1.1719482999760658,0.0,puppy,medwf,
160,s09,160,there,th,he,er,re,t,h,e,r,e,,0.575982499984093,0.6239667000481859,0.7121329000219703,0.7681062000337988,0.8559422000544146,0.0,there,highwf,
161,s09,161,edthe,ed,dt,th,he,e,d,t,h,e,,0.611991300014779,0.8119344000006095,1.0758815000299364,1.2279972999822348,1.3159102000063285,0.0,edthe,pseudo,
162,s09,162,kremp,kr,re,em,mp,k,r,e,m,p,,0.6239515000488609,0.7680580000160262,0.8640769000630826,0.960078899981454,1.032054299954325,0.0,kremp,pseudo,
163,s09,163,there,th,he,er,re,t,h,e,r,e,,0.5638914000010118,0.6198491000104696,0.6758202000055462,0.7398648000089452,0.8198935999535024,0.0,there,highwf,
164,s09,164,zibja,zi,ib,bj,ja,z,i,b,j,a,,0.6798687999835238,0.8479669999796897,0.9758788999170065,1.1439014999195933,1.2558434000238776,0.0,zibja,pseudo,
165,s09,165,haole,ha,ao,ol,le,h,a,o,l,e,,0.6038265000097454,0.7558601000346243,0.9319718999322504,1.0841324999928474,1.1718983999453485,0.0,haole,lowwf,
166,s09,166,think,th,hi,in,nk,t,h,i,n,k,,0.5438042000168934,0.575723999994807,0.6557286999886855,0.7678692999761552,0.807723099947907,0.0,think,highwf,
167,s09,167,champ,ch,ha,am,mp,c,h,a,m,p,,0.6198167999973521,0.7317615000065416,0.835699399933219,0.931937399902381,0.9878575999755412,0.0,champ,medwf,
168,s09,168,vanru,va,an,nr,ru,v,a,n,r,u,,0.6558486999711022,0.807971499976702,0.9998091999441385,1.1756610999582335,1.3197298999875784,0.0,vanru,pseudo,
169,s09,169,think,th,hi,in,nk,t,h,i,n,k,,0.6196594999637455,0.6597112000454217,0.7555739999515936,0.8517749999882653,0.9076881000073627,0.0,think,highwf,
170,s09,170,lucky,lu,uc,ck,ky,l,u,c,k,y,,0.6877123999875039,0.8556165000190958,1.0317300000460818,1.1196011999854818,1.2956338999792933,0.0,lucky,highwf,
171,s09,171,tithe,ti,it,th,he,t,i,t,h,e,,0.5316262999549508,0.6597183999838307,0.8037449000403285,0.9237070999806747,1.0036074999952689,0.0,tithe,lowwf,
172,s09,172,puppy,pu,up,pp,py,p,u,p,p,y,,0.607588900020346,0.7836351000005379,0.9435211000964046,1.1039086000528187,1.2076789001002908,0.0,puppy,medwf,
173,s09,173,vanru,va,an,nr,ru,v,a,n,r,u,,0.7394734000554308,0.8754742000019178,1.035473300027661,1.2115404000505805,1.3316213000798598,0.0,vanru,pseudo,
174,s09,174,belly,be,el,ll,ly,b,e,l,l,y,,0.5516012998996302,0.7114126000087708,0.7838485999964178,0.9354911999544129,1.0395607999525964,0.0,belly,medwf,
175,s09,175,kremp,kr,re,em,mp,k,r,e,m,p,,0.6114358000922948,0.7474051000317559,0.8515739000868052,0.9714100999990478,1.0436237000394613,0.0,kremp,pseudo,
176,s09,176,lucky,lu,uc,ck,ky,l,u,c,k,y,,0.49538550002034754,0.7273921000305563,0.895389899960719,1.0236452999524772,1.1675382000394166,0.0,lucky,highwf,
177,s09,177,cheer,ch,he,ee,er,c,h,e,e,r,,0.635504600009881,0.7313659000210464,0.8513237000443041,0.9954979000613093,1.0593870000448078,0.0,cheer,medwf,
178,s09,178,buddy,bu,ud,dd,dy,b,u,d,d,y,,0.7192992999916896,0.8872733999742195,1.0232086000032723,1.1832502000033855,1.3512998999794945,0.0,buddy,highwf,
179,s09,179,lucky,lu,uc,ck,ky,l,u,c,k,y,,0.5633283000206575,0.7234245999716222,0.8673870000056922,0.9633968999842182,1.1073569000000134,0.0,lucky,highwf,
180,s09,180,zibja,zi,ib,bj,ja,z,i,b,j,a,,0.783246299950406,0.927295699948445,1.0632657000096515,1.2472854999359697,1.37521420000121,0.0,zibja,pseudo,
181,s09,181,edthe,ed,dt,th,he,e,d,t,h,e,,0.6033094000304118,0.7792838000459597,0.9393660000059754,1.0593583000591025,1.1073763000313193,0.0,edthe,pseudo,
182,s09,182,champ,ch,ha,am,mp,c,h,a,m,p,,0.4872303999727592,0.5751819999422878,0.6872713000047952,0.759189400007017,0.783186599961482,0.0,champ,medwf,
183,s09,183,druze,dr,ru,uz,ze,d,r,u,z,e,,0.6191803000401706,0.8032711000414565,0.8995002000592649,1.0192819000221789,1.1550987000809982,0.0,druze,lowwf,
184,s09,184,theme,th,he,em,me,t,h,e,m,e,,0.5751193000469357,0.6551750000799075,0.7431039999937639,0.8471886999905109,0.903239700011909,0.0,theme,medwf,
185,s09,185,cheer,ch,he,ee,er,c,h,e,e,r,,0.5871072000591084,0.6830663000000641,0.7950159000465646,0.9311047999653965,0.9950310999993235,0.0,cheer,medwf,
186,s09,186,champ,ch,ha,am,mp,c,h,a,m,p,,0.5590999000705779,0.6230831000721082,0.7190494000678882,0.7991386000066996,0.8391874000662938,0.0,champ,medwf,
187,s09,187,cooed,co,oo,oe,ed,c,o,o,e,d,,0.5551717000780627,0.6991172999842092,0.8431156000588089,0.9310588000807911,1.1231525000184774,0.0,cooed,lowwf,
188,s09,188,therm,th,he,er,rm,t,h,e,r,m,,0.5589924999512732,0.6310080999974161,0.7110380999511108,0.8071484999964014,0.9030284000327811,0.0,therm,lowwf,
189,s09,189,faqir,fa,aq,qi,ir,f,a,q,i,r,,0.7069445999804884,0.8509763999609277,1.098972799954936,1.3229623000370339,1.410925199976191,0.0,faqir,lowwf,
190,s09,190,vodka,vo,od,dk,ka,v,o,d,k,a,,0.6069264999823645,0.8149136999854818,0.9190282999770716,1.1669104000320658,1.2628676999593154,0.0,vodka,medwf,
191,s09,191,druze,dr,ru,uz,ze,d,r,u,z,e,,0.5388285999651998,0.7148283999413252,0.8509825000073761,0.9308905999641865,1.0749468000140041,0.0,druze,lowwf,
192,s09,192,cheer,ch,he,ee,er,c,h,e,e,r,,0.5349576000589877,0.6229647999862209,0.7429325000848621,0.8789517000550404,0.9348768000490963,0.0,cheer,medwf,
193,s09,193,about,ab,bo,ou,ut,a,b,o,u,t,,0.5628597000613809,0.6347675999859348,0.7147390000754967,0.7547205000882968,0.8270663000876084,0.0,about,highwf,
194,s09,194,theme,th,he,em,me,t,h,e,m,e,,0.6949023000197485,0.7188828999642283,0.8546688000205904,0.9828673000447452,1.062790700001642,0.0,theme,medwf,
195,s09,195,kremp,kr,re,em,mp,k,r,e,m,p,,0.698679200024344,0.8346715000225231,0.9226787999505177,1.0027067000046372,1.066879800055176,0.0,kremp,pseudo,
196,s09,196,haole,ha,ao,ol,le,h,a,o,l,e,,0.6066783999558538,0.7426085999468341,0.894575799931772,1.0627358999336138,1.1586708999238908,0.0,haole,lowwf,
197,s09,197,therm,th,he,er,rm,t,h,e,r,m,,0.5865867999382317,0.6666275999741629,0.7786426999373361,0.8585893999552354,0.9707048999844119,0.0,therm,lowwf,
198,s09,198,there,th,he,er,re,t,h,e,r,e,,0.5666284000035375,0.6387101999716833,0.7025981000624597,0.798726600012742,0.8867220000829548,0.0,there,highwf,
199,s09,199,faqir,fa,aq,qi,ir,f,a,q,i,r,,0.554803500068374,0.6986715000821277,1.0426077001029626,1.29060060007032,1.3787060000468045,0.0,faqir,lowwf,
200,s09,200,pykka,py,yk,kk,ka,p,y,k,k,a,,0.6225833999924362,0.8865993999643251,1.0785167999565601,1.230602200026624,1.2944817999377847,0.0,pykka,pseudo,
201,s09,201,buddy,bu,ud,dd,dy,b,u,d,d,y,,0.5705807000631467,0.7145034000277519,0.8585626999847591,1.0185801000334322,1.1865742000518367,0.0,buddy,highwf,
202,s09,202,belly,be,el,ll,ly,b,e,l,l,y,,0.566377800074406,0.6944494000636041,0.8385209999978542,0.9904216000577435,1.0704277000622824,0.0,belly,medwf,
203,s09,203,there,th,he,er,re,t,h,e,r,e,,0.5704613999696448,0.6345539999892935,0.7065253999317065,0.7864036000100896,0.8743754000170156,0.0,there,highwf,
204,s09,204,would,wo,ou,ul,ld,w,o,u,l,d,,0.6144611000781879,0.6704087000107393,0.7343792000319809,0.8463680000277236,0.926443999982439,0.0,would,highwf,
205,s09,205,there,th,he,er,re,t,h,e,r,e,,0.49038579990155995,0.5623292999807745,0.6264923999551684,0.6906280999537557,0.7703854999272153,0.0,there,highwf,
206,s09,206,about,ab,bo,ou,ut,a,b,o,u,t,,0.5103109000483528,0.5823198000434786,0.6623748000711203,0.694192000082694,0.846400500042364,0.0,about,highwf,
207,s09,207,cooed,co,oo,oe,ed,c,o,o,e,d,,0.6823459999868646,0.8262853999622166,0.9942288999445736,1.1064156999345869,1.290307999937795,0.0,cooed,lowwf,
208,s09,208,cheer,ch,he,ee,er,c,h,e,e,r,,0.6062738000182435,0.73434460000135,0.8702945000259206,1.038408700027503,1.1342065000208095,0.0,cheer,medwf,
209,s09,209,theme,th,he,em,me,t,h,e,m,e,,0.6181745999492705,0.6902196999872103,0.7623435999266803,0.8902378999628127,0.938151599955745,0.0,theme,medwf,
210,s09,210,about,ab,bo,ou,ut,a,b,o,u,t,,0.5021911000367254,0.5582377000246197,0.6143614000175148,0.6701487000100315,0.726119099999778,0.0,about,highwf,
211,s09,211,druze,dr,ru,uz,ze,d,r,u,z,e,,0.554183500004001,0.7461799999000505,0.8821889999089763,0.9780728999758139,1.1141641999129206,0.0,druze,lowwf,
212,s09,212,lucky,lu,uc,ck,ky,l,u,c,k,y,,0.5820917000528425,0.7421133000170812,0.8700648000231013,0.9980487000430003,1.1421928000636399,0.0,lucky,highwf,
213,s09,213,zibja,zi,ib,bj,ja,z,i,b,j,a,,0.6343117000069469,0.826037299935706,0.9781178999692202,1.153995499946177,1.2661882999818772,0.0,zibja,pseudo,
214,s09,214,vodka,vo,od,dk,ka,v,o,d,k,a,,0.6219468000344932,0.7259065000107512,0.8619234999641776,1.0143818999640644,1.1580746000399813,0.0,vodka,medwf,
215,s09,215,think,th,hi,in,nk,t,h,i,n,k,,0.5780230000382289,0.6339972000569105,0.7060132999904454,0.8179617000278085,0.8498927999753505,0.0,think,highwf,
216,s09,216,kremp,kr,re,em,mp,k,r,e,m,p,,0.5980013000080362,0.7021724000805989,0.8058922999771312,0.8940042000031099,0.9820119000505656,0.0,kremp,pseudo,
217,s09,217,belly,be,el,ll,ly,b,e,l,l,y,,0.5219290999229997,0.649793199962005,0.7377652999712154,0.8897139999317005,1.00183730002027,0.0,belly,medwf,
218,s09,218,lucky,lu,uc,ck,ky,l,u,c,k,y,,0.5419175999704748,0.6699988999171183,0.8537947000004351,0.917851599981077,1.1339890999952331,0.0,lucky,highwf,
219,s09,219,vodka,vo,od,dk,ka,v,o,d,k,a,,0.6738103000679985,0.8018834000686184,0.9778664000332355,1.1058247999753803,1.2018315000459552,0.0,vodka,medwf,
220,s09,220,cooed,co,oo,oe,ed,c,o,o,e,d,,0.6297775000566617,0.7659026000183076,0.9258280000649393,1.0377480000024661,1.2298466000938788,0.0,cooed,lowwf,
221,s09,221,champ,ch,ha,am,mp,c,h,a,m,p,,0.5617824000073597,0.6817806999897584,0.7937018999364227,0.8578147999942303,0.889839299954474,0.0,champ,medwf,
222,s09,222,think,th,hi,in,nk,t,h,i,n,k,,0.557644100044854,0.5977000000420958,0.6696410999866202,0.7656196000752971,0.805663000093773,0.0,think,highwf,
223,s09,223,druze,dr,ru,uz,ze,d,r,u,z,e,,0.601637199986726,0.8097919999854639,0.9537050999933854,1.0336477999808267,1.1536191999912262,0.0,druze,lowwf,
224,s09,224,buddy,bu,ud,dd,dy,b,u,d,d,y,,0.589663999970071,0.6857864999910817,0.8136071999324486,0.9496349999681115,1.093624599976465,0.0,buddy,highwf,
225,s09,225,theme,th,he,em,me,t,h,e,m,e,,0.5215998999774456,0.5776508999988437,0.6656240000156686,0.7777083000401035,0.8415596999693662,0.0,theme,medwf,
226,s09,226,pykka,py,yk,kk,ka,p,y,k,k,a,,0.6296327000018209,0.7815730000147596,0.949817799963057,1.1017123999772593,1.2216609000461176,0.0,pykka,pseudo,
227,s09,227,puppy,pu,up,pp,py,p,p,p,y,,,0.5455873000901192,1.689567600027658,1.833815100020729,1.9297574000665918,0.0,0.0,pppy,medwf,
228,s09,228,would,wo,ou,ul,ld,w,o,u,l,d,,0.613671200000681,0.6695950999855995,0.7175894000101835,0.8296031999634579,0.9015549999894574,0.0,would,highwf,
229,s09,229,therm,th,he,er,rm,t,h,e,r,m,,0.6254891999997199,0.689527599955909,0.7853700999403372,0.8734155000420287,0.937437399988994,0.0,therm,lowwf,
230,s09,230,buddy,bu,ud,dd,dy,b,u,d,d,y,,0.5574239999987185,0.6453687999164686,0.8054181999759749,0.9573926999000832,1.0773876999737695,0.0,buddy,highwf,
231,s09,231,heond,he,eo,on,nd,h,e,o,n,d,,0.6414076000219211,0.793431399972178,0.9454802999971434,1.0334099000319839,1.1374093000777066,0.0,heond,pseudo,
232,s09,232,would,wo,ou,ul,ld,w,o,u,l,d,,0.5573235000483692,0.5895005000056699,0.6615652000764385,0.7653414000524208,0.8613417000742629,0.0,would,highwf,
233,s09,233,vanru,va,an,nr,ru,v,a,n,r,u,,0.6653070999309421,0.8093399000354111,0.9933411999372765,1.1932476999936625,1.32125429995358,0.0,vanru,pseudo,
234,s09,234,tithe,ti,it,th,he,t,i,t,h,e,,0.6691871000220999,0.7571612000465393,0.9092336000176147,1.0212825000053272,1.0854110000655055,0.0,tithe,lowwf,
235,s09,235,vodka,vo,od,dk,ka,v,o,d,k,a,,0.5852958000032231,0.737341700005345,0.8732266000006348,0.9932490999344736,1.0732093999395147,0.0,vodka,medwf,
236,s09,236,haole,ha,ao,ol,le,h,a,o,l,e,,0.6211841000476852,0.8451885000104085,1.1251812999835238,1.3013008000561967,1.429206300061196,0.0,haole,lowwf,
237,s09,237,tithe,ti,it,th,he,t,i,t,h,e,,0.5692630999255925,0.665085899992846,0.8092545999679714,0.8732280000112951,0.993113899952732,0.0,tithe,lowwf,
238,s09,238,pykka,py,yk,kk,ka,p,y,k,k,a,,0.5811844000127167,0.8131059999577701,0.9651385999750346,1.1175962999695912,1.2131071999901906,0.0,pykka,pseudo,
239,s09,239,heond,he,eo,on,nd,h,e,o,n,d,,0.5932170999003574,0.7531097999308258,0.8495388999581337,0.9371673999121413,1.0332600999390706,0.0,heond,pseudo,
