,sID,Trial #,string,bi_1,bi_2,bi_3,bi_4,key_resp.keys.1,key_resp.keys.2,key_resp.keys.3,key_resp.keys.4,key_resp.keys.5,key_resp.keys.6,key_resp.keys.7,key_resp.rt.1,key_resp.rt.2,key_resp.rt.3,key_resp.rt.4,key_resp.rt.5,key_resp.rt.6,key_resp.rt.7,resp_string,WF Type,BF Type
0,178,0,haole,ha,ao,ol,le,h,a,o,l,e,,,0.9209377709776163,0.9850102080963552,1.3209365513175726,1.5049433130770922,1.5370159540325403,0.0,0.0,haole,lowwf,medbf
1,178,1,theme,th,he,em,me,t,h,e,m,e,,,0.7463249629363418,0.7943653529509902,0.9623293671756983,1.0343167930841446,1.1304526161402464,0.0,0.0,theme,medwf,highbf
2,178,2,druze,dr,ru,uz,ze,d,r,u,z,e,,,0.7102804123423994,0.8703810209408402,0.9743217742070556,1.2383676953613758,1.5023632431402802,0.0,0.0,druze,lowwf,lowbf
3,178,3,vanru,va,an,nr,ru,v,a,n,r,u,,,0.81827502977103,0.8823357438668609,1.0822943788953125,1.2582465531304479,1.3703475538641214,0.0,0.0,vanru,pseudo,medbf
4,178,4,lucky,lu,uc,ck,ky,l,u,c,k,y,,,0.8141813706606627,1.3181224879808724,1.4302191380411386,1.550190765876323,1.7501907236874104,0.0,0.0,lucky,highwf,lowbf
5,178,5,cheer,ch,he,ee,er,c,h,e,e,r,,,0.7140919561497867,0.7781448201276362,0.9621543623507023,1.10616252431646,1.2260528863407671,0.0,0.0,cheer,medwf,highbf
6,178,6,tithe,ti,it,th,he,t,h,i,t,h,e,,0.7739686197601259,0.8700848980806768,1.045988842844963,1.174053966999054,1.2702438798733056,1.3500509890727699,0.0,thithe,lowwf,highbf
7,178,7,belly,be,el,ll,ly,b,e,l,l,y,,,0.8254680573008955,0.889547566883266,1.1054718452505767,1.2335164602845907,1.2975980509072542,0.0,0.0,belly,medwf,medbf
8,178,8,therm,th,he,er,rm,t,h,e,r,m,,,0.7494156686589122,0.7894606189802289,0.9493542700074613,1.0773532148450613,1.1813515648245811,0.0,0.0,therm,lowwf,highbf
9,178,9,cooed,co,oo,oe,ed,c,o,o,e,d,,,0.75346521101892,0.8813714142888784,1.0173250949010253,1.1693996540270746,1.3374422462657094,0.0,0.0,cooed,lowwf,medbf
10,178,10,haole,ha,ao,ol,le,h,a,o,l,e,,,0.7976648500189185,0.861618285998702,1.0935575254261494,1.285665494389832,1.3175524901598692,0.0,0.0,haole,lowwf,medbf
11,178,11,faqir,fa,aq,qi,ir,f,a,q,i,r,,,0.9695665389299393,1.1055551450699568,1.6335883541032672,1.8254936062730849,1.9856026293709874,0.0,0.0,faqir,lowwf,lowbf
12,178,12,vodka,vo,od,dk,ka,v,o,d,k,a,,,0.8696629861369729,0.9735814807936549,1.173594077117741,1.2696636491455138,1.3656598501838744,0.0,0.0,vodka,medwf,lowbf
13,178,13,lucky,lu,uc,ck,ky,l,u,c,k,y,,,0.8493169234134257,1.0732802441343665,1.1613514414057136,1.2733306312002242,1.4412952973507345,0.0,0.0,lucky,highwf,lowbf
14,178,14,champ,ch,ha,am,mp,c,h,a,m,p,,,0.7254387261345983,0.7975069470703602,0.893451586831361,1.0135662541724741,1.2375676548108459,0.0,0.0,champ,medwf,medbf
15,178,15,puppy,pu,up,pp,py,p,u,p,p,y,,,0.809474010951817,1.0334797278046608,1.2895504799671471,1.4335467098280787,1.5054712118580937,0.0,0.0,puppy,medwf,lowbf
16,178,16,edthe,ed,dt,th,he,e,d,t,h,e,,,0.981190677266568,1.181150084361434,1.421106352005154,1.4771462534554303,1.6051853811368346,0.0,0.0,edthe,pseudo,highbf
17,178,17,think,th,hi,in,nk,t,h,i,n,k,,,0.7533729621209204,0.8092952100560069,1.0012916191481054,1.2093043462373316,1.3932838179171085,0.0,0.0,think,highwf,highbf
18,178,18,druze,dr,ru,uz,ze,d,r,u,z,e,,,0.7574699600227177,0.9335440169088542,1.045592329930514,1.2774944081902504,1.541572199203074,0.0,0.0,druze,lowwf,lowbf
19,178,19,heond,he,eo,on,nd,h,e,o,n,d,,,0.977289164904505,1.0413868268951774,1.2172578410245478,1.4252755241468549,1.497324817813933,0.0,0.0,heond,pseudo,highbf
20,178,20,puppy,pu,up,pp,py,p,u,p,p,y,,,0.8054481223225594,1.0054669450037181,1.3654427281580865,1.549450726248324,1.6694441069848835,0.0,0.0,puppy,medwf,lowbf
21,178,21,zibja,zi,ib,bj,ja,z,i,b,j,a,,,1.0807461296208203,1.1687979777343571,1.3847266747616231,1.5766950966790318,1.648807122837752,0.0,0.0,zibja,pseudo,lowbf
22,178,22,vanru,va,an,nr,ru,v,a,n,r,u,,,0.8293693694286048,0.893361481372267,1.0454412451945245,1.181366837117821,1.285358002409339,0.0,0.0,vanru,pseudo,medbf
23,178,23,buddy,bu,ud,dd,dy,b,u,d,d,y,,,0.7615336999297142,0.9855257621966302,1.1375441420823336,1.273535646032542,1.3615099340677261,0.0,0.0,buddy,highwf,lowbf
24,178,24,there,th,he,er,re,t,h,e,r,e,,,0.7011620043776929,0.7892924109473825,0.8692884943448007,0.9892395581118762,1.0931808301247656,0.0,0.0,there,highwf,highbf
25,178,25,belly,be,el,ll,ly,b,e,l,l,y,,,0.7535179420374334,0.8174002449959517,1.0094009093008935,1.1375189921818674,1.1934010172262788,0.0,0.0,belly,medwf,medbf
26,178,26,therm,th,he,er,rm,t,h,e,r,m,,,0.7095233714208007,0.781513141002506,0.8934700270183384,0.9975196612067521,1.1094688693992794,0.0,0.0,therm,lowwf,highbf
27,178,27,zibja,zi,ib,bj,ja,z,i,b,j,a,,,1.1133224996738136,1.1932552317157388,1.4012231859378517,1.5853403629735112,1.66532824607566,0.0,0.0,zibja,pseudo,lowbf
28,178,28,pykka,py,yk,kk,ka,p,y,k,k,a,,,0.9090211498551071,1.277031369972974,1.5251262350939214,1.6531184236519039,1.709039004985243,0.0,0.0,pykka,pseudo,lowbf
29,178,29,therm,th,he,er,rm,t,h,e,r,m,,,1.0012952918186784,1.097384360153228,1.2494011661037803,1.3772987970151007,1.4813215448521078,0.0,0.0,therm,lowwf,highbf
30,178,30,vodka,vo,od,dk,ka,v,o,d,k,a,,,0.7892468618229032,1.0612593069672585,1.1811483139172196,1.3892701799049973,1.4612354249693453,0.0,0.0,vodka,medwf,lowbf
31,178,31,cooed,co,oo,oe,ed,c,o,o,e,d,,,0.7692869789898396,0.9372925222851336,1.0812641279771924,1.217212733346969,1.4092171681113541,0.0,0.0,cooed,lowwf,medbf
32,178,32,champ,ch,ha,am,mp,c,h,a,m,p,,,0.7091937246732414,0.7972426870837808,0.8771457290276885,1.0052667730487883,1.2052672957070172,0.0,0.0,champ,medwf,medbf
33,178,33,faqir,fa,aq,qi,ir,f,a,q,i,r,,,0.8415283369831741,0.9933589859865606,1.3694073711521924,1.6573235392570496,1.7614420079626143,0.0,0.0,faqir,lowwf,lowbf
34,178,34,tithe,ti,it,th,he,t,h,t,i,e,h,,0.7572784251533449,0.8451677388511598,1.0372275211848319,1.1091044801287353,1.277162134181708,1.333226101938635,0.0,thtieh,lowwf,highbf
35,178,35,kremp,kr,re,em,mp,k,r,e,m,p,,,0.8727477947250009,0.9926421567797661,1.12069171667099,1.2487464239820838,1.4727226318791509,0.0,0.0,kremp,pseudo,medbf
36,178,36,tithe,ti,it,th,he,t,h,t,h,e,,,0.8124930029734969,0.9086406910791993,1.3965809880755842,1.668582210317254,1.7566254292614758,0.0,0.0,ththe,lowwf,highbf
37,178,37,heond,he,eo,on,nd,h,e,o,n,d,,,0.7765612583607435,0.8566790111362934,1.0005584862083197,1.2166732670739293,1.2726827883161604,0.0,0.0,heond,pseudo,highbf
38,178,38,there,th,he,er,re,t,h,e,r,e,,,0.7078595068305731,0.7718513458967209,0.8999581369571388,1.0039478507824242,1.107978958170861,0.0,0.0,there,highwf,highbf
39,178,39,would,wo,ou,ul,ld,w,o,u,l,d,,,0.8239199030213058,0.8958426802419126,1.0958628882654011,1.2958630183711648,1.343822575174272,0.0,0.0,would,highwf,medbf
40,178,40,about,ab,bo,ou,ut,a,b,o,u,t,,,0.764362663961947,1.0123717947863042,1.0922783520072699,1.2842640159651637,1.3562760120257735,0.0,0.0,about,highwf,medbf
41,178,41,haole,ha,ao,ol,le,h,a,o,e,l,l,,0.912060156930238,1.0319272088818252,1.5359360380098224,1.647908037994057,2.6479098103009164,3.4639324313029647,0.0,haoell,lowwf,medbf
42,178,42,buddy,bu,ud,dd,dy,b,u,d,d,y,,,0.7639818247407675,0.8599270209670067,1.1479327948763967,1.2839237400330603,1.3479792098514736,0.0,0.0,buddy,highwf,lowbf
43,178,43,pykka,py,yk,kk,ka,o,y,k,k,a,,,0.7599934451282024,0.9839684879407287,1.2320361458696425,1.3600191669538617,1.4640922658145428,0.0,0.0,oykka,pseudo,lowbf
44,178,44,there,th,he,er,re,t,h,e,r,e,,,0.7401323108933866,0.8201342849060893,0.9320810697972775,1.044008060824126,1.164136374834925,0.0,0.0,there,highwf,highbf
45,178,45,pykka,py,yk,kk,ka,p,y,k,k,a,,,0.7200974971055984,1.095994062256068,1.4480116642080247,1.5919860200956464,1.6960197370499372,0.0,0.0,pykka,pseudo,lowbf
46,178,46,think,th,hi,in,nk,t,h,i,n,k,,,0.7556680431589484,0.8276335378177464,1.0196243948303163,1.2356617879122496,1.4356179642491043,0.0,0.0,think,highwf,highbf
47,178,47,kremp,kr,re,em,mp,k,r,e,m,p,,,0.7439008262008429,0.8319722940213978,0.9438955830410123,1.055901078041643,1.2639703559689224,0.0,0.0,kremp,pseudo,medbf
48,178,48,think,th,hi,in,nk,t,h,i,n,k,,,0.7959721991792321,0.875967432744801,1.0679244589991868,1.2839089161716402,1.5079762791283429,0.0,0.0,think,highwf,highbf
49,178,49,cheer,ch,he,ee,er,c,h,e,e,r,,,0.9998622532002628,1.0718749770894647,1.2237606248818338,1.3677549371495843,1.495845687109977,0.0,0.0,cheer,medwf,highbf
50,178,50,vanru,va,an,nr,ru,v,a,n,r,u,,,0.7958060880191624,0.9397512022405863,1.0597580298781395,1.2038071360439062,1.3158125430345535,0.0,0.0,vanru,pseudo,medbf
51,178,51,belly,be,el,ll,ly,b,e,l,l,y,,,0.7199209877289832,0.775858725886792,1.0399426240473986,1.1838177759200335,1.2398319588974118,0.0,0.0,belly,medwf,medbf
52,178,52,therm,th,he,er,rm,t,h,e,r,m,,,0.6919265519827604,0.7638159599155188,0.891959763597697,1.0039686858654022,1.107774153817445,0.0,0.0,therm,lowwf,highbf
53,178,53,buddy,bu,ud,dd,dy,b,u,d,d,y,,,0.8478757990524173,0.9438065481372178,1.1519317841157317,1.2958490811288357,1.3279903708025813,0.0,0.0,buddy,highwf,lowbf
54,178,54,belly,be,el,ll,ly,b,e,l,l,y,,,0.7238908442668617,0.7718211780302227,1.0039021102711558,1.1397823439911008,1.187882031314075,0.0,0.0,belly,medwf,medbf
55,178,55,therm,th,he,er,rm,t,h,e,r,m,,,0.6953552891500294,0.7673162869177759,0.8874809718690813,0.9994499562308192,1.0874295011162758,0.0,0.0,therm,lowwf,highbf
56,178,56,there,th,he,er,re,t,h,e,r,e,,,0.6999584450386465,0.7720152870751917,0.8918874938972294,0.9800111399963498,1.0678896768949926,0.0,0.0,there,highwf,highbf
57,178,57,edthe,ed,dt,th,he,d,t,h,e,,,,1.1038652448914945,1.3359287912026048,1.4159009661525488,1.495778406970203,0.0,0.0,0.0,dthe,pseudo,highbf
58,178,58,zibja,zi,ib,bj,ja,z,i,b,j,a,,,1.050826630089432,1.3069381099194288,1.5469607608392835,1.7709560580551624,1.8268337398767471,0.0,0.0,zibja,pseudo,lowbf
59,178,59,vodka,vo,od,dk,ka,v,o,d,k,a,,,0.8150467281229794,0.9350516139529645,1.0870614359155297,1.2150426139123738,1.311020421795547,0.0,0.0,vodka,medwf,lowbf
60,178,60,champ,ch,ha,am,mp,c,h,a,m,p,,,0.7392352260649204,0.8031587270088494,0.931102252099663,1.0351549247279763,1.2510834988206625,0.0,0.0,champ,medwf,medbf
61,178,61,tithe,ti,it,th,he,t,h,t,i,h,e,,0.7830292759463191,0.8789206626825035,1.0550246480852365,1.1350167556665838,1.3909653848968446,1.4789825989864767,0.0,thtihe,lowwf,highbf
62,178,62,puppy,pu,up,pp,py,p,u,p,p,y,,,0.9070174698717892,1.139048621058464,1.4029781487770379,1.5550498217344284,1.6190002979710698,0.0,0.0,puppy,medwf,lowbf
63,178,63,cheer,ch,he,ee,er,c,h,e,e,r,,,0.7588290269486606,0.8229602458886802,1.022982711903751,1.1749498867429793,1.2948769889771938,0.0,0.0,cheer,medwf,highbf
64,178,64,think,th,hi,in,nk,t,h,i,n,k,,,0.7071321830153465,0.7871360089629889,0.9790815250016749,1.1951088109053671,1.3711287388578057,0.0,0.0,think,highwf,highbf
65,178,65,puppy,pu,up,pp,py,p,u,p,p,y,,,0.7833959693089128,1.0154870701953769,1.2794410362839699,1.4155014818534255,1.487456982024014,0.0,0.0,puppy,medwf,lowbf
66,178,66,would,wo,ou,ul,ld,w,q,o,u,l,d,,1.6031075189821422,1.6111364411190152,1.675200607161969,1.8911361587233841,2.1231819787062705,2.1871905401349068,0.0,wqould,highwf,medbf
67,178,67,edthe,ed,dt,th,he,e,d,t,h,e,,,0.7989576840773225,1.0229918537661433,1.2549450299702585,1.3268728121183813,1.438945037778467,0.0,0.0,edthe,pseudo,highbf
68,178,68,cheer,ch,he,ee,er,c,h,e,e,r,,,0.7391501748934388,0.8430452262982726,1.0112594030797482,1.1551965912804008,1.259060675278306,0.0,0.0,cheer,medwf,highbf
69,178,69,would,wo,ou,ul,ld,w,o,u,l,d,,,0.6867959559895098,0.7827321770600975,0.9666752689518034,1.1666730069555342,1.2547985259443521,0.0,0.0,would,highwf,medbf
70,178,70,belly,be,el,ll,ly,b,e,l,l,y,,,0.8110168599523604,0.8829981461167336,1.507012679707259,1.6588782328180969,1.7228743648156524,0.0,0.0,belly,medwf,medbf
71,178,71,puppy,pu,up,pp,py,p,u,p,p,y,,,0.7189021478407085,0.9508633390069008,1.1989732650108635,1.3349901586771011,1.4069313309155405,0.0,0.0,puppy,medwf,lowbf
72,178,72,theme,th,he,em,me,t,h,e,m,e,,,0.7390779322013259,0.8110894430428743,0.9470629282295704,1.0589727060869336,1.1230617482215166,0.0,0.0,theme,medwf,highbf
73,178,73,about,ab,bo,ou,ut,a,b,o,u,t,,,0.6549286348745227,0.9029909973032773,0.9589133053086698,1.1508958991616964,1.2069069002754986,0.0,0.0,about,highwf,medbf
74,178,74,lucky,lu,uc,ck,ky,l,u,c,k,y,,,0.6989263528957963,0.906980206258595,1.018931387923658,1.1149612991139293,1.2989687831141055,0.0,0.0,lucky,highwf,lowbf
75,178,75,heond,he,eo,on,nd,h,e,o,n,d,,,0.806928921956569,0.878959028981626,1.0389563301578164,1.2231091312132776,1.3110041441395879,0.0,0.0,heond,pseudo,highbf
76,178,76,champ,ch,ha,am,mp,c,h,a,m,p,,,0.795009374152869,0.8748312159441411,1.002771746367216,1.1067599239759147,1.3228134620003402,0.0,0.0,champ,medwf,medbf
77,178,77,about,ab,bo,ou,ut,a,b,o,u,t,,,0.5908974544145167,0.8549472694285214,0.9189332253299654,1.1110302582383156,1.1749482122249901,0.0,0.0,about,highwf,medbf
78,178,78,pykka,py,yk,kk,ka,p,y,k,k,a,,,0.7629574220627546,1.4110382026992738,1.6589193767867982,1.7950532617978752,1.8668974246829748,0.0,0.0,pykka,pseudo,lowbf
79,178,79,theme,th,he,em,me,t,h,e,m,e,,,0.7109515187330544,0.7989246579818428,0.9110187031328678,1.014858148060739,1.0788810309022665,0.0,0.0,theme,medwf,highbf
80,178,80,druze,dr,ru,uz,ze,d,r,u,z,e,,,0.7711562192998827,0.9791044970043004,1.0832016598433256,1.3232142981141806,1.5631764722056687,0.0,0.0,druze,lowwf,lowbf
81,178,81,kremp,kr,re,em,mp,k,r,e,m,p,,,0.8308194321580231,0.9189301799051464,1.014864828903228,1.1428239080123603,1.366874000057578,0.0,0.0,kremp,pseudo,medbf
82,178,82,vodka,vo,od,dk,ka,v,o,d,k,a,,,0.8190803863108158,1.1310099232941866,1.2270176811143756,1.3870792919769883,1.459030797239393,0.0,0.0,vodka,medwf,lowbf
83,178,83,about,ab,bo,ou,ut,a,b,o,u,t,,,0.6469723731279373,1.0390208410099149,1.1429333458654583,1.358952817041427,1.4070078511722386,0.0,0.0,about,highwf,medbf
84,178,84,theme,th,he,em,me,t,h,e,m,e,,,0.6747249853797257,0.7627010853029788,0.8827679231762886,0.9948655483312905,1.0587209491059184,0.0,0.0,theme,medwf,highbf
85,178,85,haole,ha,ao,ol,le,h,a,o,l,e,,,0.9743154691532254,1.3823266620747745,1.5823656050488353,1.8223656653426588,1.910389750264585,0.0,0.0,haole,lowwf,medbf
86,178,86,would,wo,ou,ul,ld,w,o,u,l,d,,,0.7068618191406131,0.7868688884191215,0.9788696891628206,1.1949090883135796,1.2587699573487043,0.0,0.0,would,highwf,medbf
87,178,87,lucky,lu,uc,ck,ky,l,u,c,k,y,,,0.7188525814563036,0.9188530170358717,1.0147664062678814,1.11886080307886,1.278799801133573,0.0,0.0,lucky,highwf,lowbf
88,178,88,heond,he,eo,on,nd,h,e,o,n,d,,,0.7547788522206247,0.826665136963129,0.9947901819832623,1.2027352559380233,1.2827380918897688,0.0,0.0,heond,pseudo,highbf
89,178,89,haole,ha,ao,ol,le,h,a,o,l,e,,,0.7187646478414536,0.7987134079448879,1.0146763599477708,1.1986859100870788,1.2626567701809108,0.0,0.0,haole,lowwf,medbf
90,178,90,cooed,co,oo,oe,ed,c,o,o,e,d,,,0.68283223034814,0.8187519991770387,0.970809540245682,1.0507962312549353,1.2427588170394301,0.0,0.0,cooed,lowwf,medbf
91,178,91,edthe,ed,dt,th,he,e,d,t,h,e,,,0.8867164119146764,1.094697703141719,1.3266388229094446,1.438642953056842,1.6066429750062525,0.0,0.0,edthe,pseudo,highbf
92,178,92,kremp,kr,re,em,mp,k,r,e,m,p,,,0.8269388261251152,0.9230192522518337,0.9869905062951148,1.0830348073504865,1.283048561308533,0.0,0.0,kremp,pseudo,medbf
93,178,93,about,ab,bo,ou,ut,a,b,o,u,t,,,0.6789705781266093,0.9428678900003433,1.02294084103778,1.2228876003064215,1.2869638781994581,0.0,0.0,about,highwf,medbf
94,178,94,champ,ch,ha,am,mp,c,h,a,m,p,,,0.6269465261138976,0.7629334512166679,0.8668969939462841,1.003017078153789,1.2190126413479447,0.0,0.0,champ,medwf,medbf
95,178,95,vodka,vo,od,dk,ka,v,o,d,k,a,,,0.926912538241595,1.0309205702506006,1.190850947983563,1.302989133168012,1.4149315180256963,0.0,0.0,vodka,medwf,lowbf
96,178,96,cooed,co,oo,oe,ed,c,o,o,e,d,,,0.6907921568490565,0.8187048258259892,0.970765832811594,1.0586648611351848,1.2506707110442221,0.0,0.0,cooed,lowwf,medbf
97,178,97,pykka,py,yk,kk,ka,p,y,k,k,a,,,0.9185354700312018,1.278538128361106,1.5744804292917252,1.7185442852787673,1.7905110511928797,0.0,0.0,pykka,pseudo,lowbf
98,178,98,tithe,ti,it,th,he,t,h,t,h,e,,,0.7709251511842012,0.8508811560459435,1.1310258484445512,3.4030072153545916,3.450875555165112,0.0,0.0,ththe,lowwf,highbf
99,178,99,faqir,fa,aq,qi,ir,f,a,q,i,r,,,0.838826437946409,0.9908326822333038,1.286873889155686,1.3988346098922193,1.5828338582068682,0.0,0.0,faqir,lowwf,lowbf
100,178,100,edthe,ed,dt,th,he,e,d,t,h,e,,,0.7701460868120193,3.074145636986941,3.290091303177178,3.354057173244655,3.4580557262524962,0.0,0.0,edthe,pseudo,highbf
101,178,101,druze,dr,ru,uz,ze,d,r,u,z,e,,,0.7107892357744277,0.8868542211130261,0.9988351929932833,1.2308393330313265,1.4868456670083106,0.0,0.0,druze,lowwf,lowbf
102,178,102,there,th,he,er,re,t,h,e,r,e,,,0.8026566207408905,0.8747119940817356,0.9946577027440071,1.1226597079075873,3.2265313691459596,0.0,0.0,there,highwf,highbf
103,178,103,zibja,zi,ib,bj,ja,z,i,b,j,a,,,0.9030635692179203,1.103038658387959,1.3190046730451286,1.535016254056245,1.5830302191898227,0.0,0.0,zibja,pseudo,lowbf
104,178,104,think,th,hi,in,nk,t,h,i,n,k,,,0.7308872072026134,0.8108192910440266,0.9948669630102813,1.186897389125079,1.3468533400446177,0.0,0.0,think,highwf,highbf
105,178,105,druze,dr,ru,uz,ze,d,r,u,z,e,,,0.7188764298334718,0.8948218571022153,0.9828673987649381,1.1988269640132785,1.4388874331489205,0.0,0.0,druze,lowwf,lowbf
106,178,106,vanru,va,an,nr,ru,v,a,n,r,u,,,0.8348262067884207,0.8909493647515774,1.058912209700793,1.2109005437232554,1.3069344768300653,0.0,0.0,vanru,pseudo,medbf
107,178,107,would,wo,ou,ul,ld,w,o,u,l,d,,,0.7587239467538893,0.814778121188283,1.0068471990525723,1.2067446638830006,1.2627391899004579,0.0,0.0,would,highwf,medbf
108,178,108,lucky,lu,uc,ck,ky,l,u,c,k,y,,,0.7469697049818933,0.978991474956274,1.0989654841832817,1.2029812862165272,1.4189825281500816,0.0,0.0,lucky,highwf,lowbf
109,178,109,vanru,va,an,nr,ru,v,a,n,r,u,,,0.8947966801933944,1.0707663889043033,1.2067735479213297,1.3346996889449656,1.4387757331132889,0.0,0.0,vanru,pseudo,medbf
110,178,110,cheer,ch,he,ee,er,c,h,e,e,r,,,0.9306239360012114,1.0186914433725178,1.2266030530445278,1.3787485864013433,1.4987218673340976,0.0,0.0,cheer,medwf,highbf
111,178,111,faqir,fa,aq,qi,ir,f,q,a,i,,,,0.7348754061385989,0.9267779421061277,3.3028297522105277,3.454838023055345,0.0,0.0,0.0,fqai,lowwf,lowbf
112,178,112,zibja,zi,ib,bj,ja,z,i,b,j,a,,,1.3388248081319034,1.4507373538799584,1.6668106261640787,1.9708266728557646,2.0426951590925455,0.0,0.0,zibja,pseudo,lowbf
113,178,113,buddy,bu,ud,dd,dy,b,u,d,d,y,,,0.8945391601882875,0.9825616208836436,1.24654143396765,1.3985728421248496,1.4545447281561792,0.0,0.0,buddy,highwf,lowbf
114,178,114,kremp,kr,re,em,mp,k,r,e,m,p,,,0.9067030274309218,1.0105789182707667,1.0747050852514803,1.1866490463726223,1.4105807393789291,0.0,0.0,kremp,pseudo,medbf
115,178,115,cooed,co,oo,oe,ed,c,o,o,e,d,,,0.7986633568070829,0.9505551238544285,1.0786761678755283,1.1666275546886027,1.3505528010427952,0.0,0.0,cooed,lowwf,medbf
116,178,116,theme,th,he,em,me,t,h,e,m,e,,,0.7548994547687471,0.8429052559658885,0.9709652289748192,1.0909110610373318,1.1549122161231935,0.0,0.0,theme,medwf,highbf
117,178,117,faqir,fa,aq,qi,ir,f,a,q,i,r,,,0.6786134946160018,0.8466614196076989,1.5186590645462275,1.678680487908423,1.8145973137579858,0.0,0.0,faqir,lowwf,lowbf
118,178,118,heond,he,eo,on,nd,h,e,o,n,d,,,0.7786817168816924,0.8505593868903816,1.0186112876981497,1.218645507004112,1.2986265467479825,0.0,0.0,heond,pseudo,highbf
119,178,119,buddy,bu,ud,dd,dy,b,u,d,d,y,,,0.7427427708171308,0.8308471869677305,1.0388150252401829,1.1747453920543194,1.2547984742559493,0.0,0.0,buddy,highwf,lowbf
120,178,120,belly,be,el,ll,ly,b,e,l,l,y,,,0.7179585257545114,0.7819291520863771,0.9979017940349877,1.1339131030254066,1.1980416979640722,0.0,0.0,belly,medwf,medbf
121,178,121,therm,th,he,er,rm,t,h,e,r,m,,,0.6747004962526262,0.7627293732948601,0.8746927380561829,1.0107217049226165,1.1068403562530875,0.0,0.0,therm,lowwf,highbf
122,178,122,vodka,vo,od,dk,ka,v,o,d,k,a,,,1.0786895453929901,1.174689693376422,1.326632919255644,1.4626206583343446,1.5667298352345824,0.0,0.0,vodka,medwf,lowbf
123,178,123,therm,th,he,er,rm,t,h,e,r,m,,,0.7224776791408658,0.8104041069746017,0.9304782398976386,1.0344236339442432,1.0905152410268784,0.0,0.0,therm,lowwf,highbf
124,178,124,would,wo,ou,ul,ld,w,o,u,l,d,,,0.686508574988693,0.7586171729490161,0.9424426881596446,1.126456394791603,1.1905152420513332,0.0,0.0,would,highwf,medbf
125,178,125,pykka,py,yk,kk,ka,p,y,k,k,a,,,0.7704561268910766,1.026436836924404,1.274551561102271,1.4104188960045576,1.4745347700081766,0.0,0.0,pykka,pseudo,lowbf
126,178,126,there,th,he,er,re,t,h,e,r,e,e,,0.6626095729880035,0.7586323088034987,0.8466347516514361,0.9745453228242695,1.038555892650038,1.5265421876683831,0.0,theree,highwf,highbf
127,178,127,vodka,vo,od,dk,ka,v,o,d,k,a,,,1.1299407100304961,1.226061322260648,1.4179211631417274,1.5939163803122938,1.6579860430210829,0.0,0.0,vodka,medwf,lowbf
128,178,128,lucky,lu,uc,ck,ky,l,u,c,k,y,,,0.7659210823476315,0.9659616001881659,1.0458825291134417,1.1819352181628346,1.325950819067657,0.0,0.0,lucky,highwf,lowbf
129,178,129,zibja,zi,ib,bj,ja,z,i,b,j,a,,,0.9860708513297141,1.154091581236571,1.386110640130937,1.6020851703360677,1.6421245923265815,0.0,0.0,zibja,pseudo,lowbf
130,178,130,buddy,bu,ud,dd,dy,b,u,d,d,y,,,0.7820948041044176,0.8620503940619528,1.0780740501359105,1.2221391489729285,1.3020538939163089,0.0,0.0,buddy,highwf,lowbf
131,178,131,about,ab,bo,ou,ut,a,b,o,u,t,,,0.681991680059582,0.9299462288618088,1.0019891220144928,1.1938760532066226,1.2499905549921095,0.0,0.0,about,highwf,medbf
132,178,132,think,th,hi,in,nk,t,h,i,n,k,,,0.6699877376668155,0.7339593176729977,0.9260044749826193,1.1019677948206663,1.277962360996753,0.0,0.0,think,highwf,highbf
133,178,133,tithe,ti,it,th,he,t,i,t,h,e,,,1.273936402052641,1.3859878350049257,1.5619798391126096,1.6739850379526615,1.7938748341985047,0.0,0.0,tithe,lowwf,highbf
134,178,134,zibja,zi,ib,bj,ja,z,i,b,j,a,,,0.8936946871690452,1.109702437184751,1.3258368358947337,1.6138039780780673,1.6538094752468169,0.0,0.0,zibja,pseudo,lowbf
135,178,135,would,wo,ou,ul,ld,w,o,u,l,d,,,0.617606766987592,0.6976153217256069,0.8737351368181407,1.0657196827232838,1.1217329120263457,0.0,0.0,would,highwf,medbf
136,178,136,puppy,pu,up,pp,py,p,u,p,p,y,,,1.4856721283867955,1.7336001321673393,2.013631490059197,2.1496864520013332,2.213705745059997,0.0,0.0,puppy,medwf,lowbf
137,178,137,vanru,va,an,nr,ru,v,a,n,r,u,,,0.7777931462042034,1.0177121642045677,1.1218629679642618,1.249822844285518,1.337770749349147,0.0,0.0,vanru,pseudo,medbf
138,178,138,lucky,lu,uc,ck,ky,l,u,c,k,y,,,1.1897198571823537,1.4618223421275616,1.54981640400365,1.6698075542226434,1.82972675235942,0.0,0.0,lucky,highwf,lowbf
139,178,139,cooed,co,oo,oe,ed,c,o,o,e,d,,,0.8978386130183935,1.089907594025135,1.233785851392895,1.3618548572994769,1.5699061742052436,0.0,0.0,cooed,lowwf,medbf
140,178,140,kremp,kr,re,em,mp,k,r,e,m,p,,,0.789507906883955,0.8696298361755908,0.9575818022713065,1.069617671892047,1.2775802752003074,0.0,0.0,kremp,pseudo,medbf
141,178,141,haole,ha,ao,ol,le,h,a,o,l,e,,,0.8738039270974696,0.9697957681491971,1.1297599710524082,1.2977642421610653,1.3778683324344456,0.0,0.0,haole,lowwf,medbf
142,178,142,kremp,kr,re,em,mp,k,r,e,m,p,,,0.9499819679185748,1.0379430041648448,1.14203575020656,1.2300188918597996,1.446003313176334,0.0,0.0,kremp,pseudo,medbf
143,178,143,cheer,ch,he,ee,er,c,h,e,e,r,,,0.8499019863083959,0.929904174990952,1.1298568369820714,1.273946194909513,1.4019304271787405,0.0,0.0,cheer,medwf,highbf
144,178,144,buddy,bu,ud,dd,dy,b,u,d,d,y,,,0.8059047739952803,1.0058278469368815,1.1818931140005589,1.333789214026183,1.389907798729837,0.0,0.0,buddy,highwf,lowbf
145,178,145,therm,th,he,er,rm,t,h,e,r,m,,,0.6976915039122105,0.8017696901224554,0.9216981530189514,1.0416996078565717,1.1457233550027013,0.0,0.0,therm,lowwf,highbf
146,178,146,heond,he,eo,on,nd,h,e,o,n,d,,,0.8138156030327082,0.8618207070976496,1.045788160059601,1.245772616006434,1.3177028470672667,0.0,0.0,heond,pseudo,highbf
147,178,147,edthe,ed,dt,th,he,e,d,t,h,e,,,0.7216696958057582,0.9457256319001317,1.1537436419166625,1.24172449298203,1.3297337666153908,0.0,0.0,edthe,pseudo,highbf
148,178,148,there,th,he,er,re,t,h,e,r,e,,,0.6777400886639953,0.7656960319727659,0.869643144775182,0.9816732318140566,1.1017485270276666,0.0,0.0,there,highwf,highbf
149,178,149,zibja,zi,ib,bj,ja,z,i,b,j,a,,,0.9538847520016134,1.1618476719595492,1.3858933178707957,1.5779184107668698,1.6257598400115967,0.0,0.0,zibja,pseudo,lowbf
150,178,150,heond,he,eo,on,nd,h,e,o,n,d,,,0.8209889787249267,0.8850544989109039,1.0369928479194641,1.2209379659034312,1.3010184769518673,0.0,0.0,heond,pseudo,highbf
151,178,151,cooed,co,oo,oe,ed,c,o,o,e,d,,,0.7618078151717782,0.9057803922332823,1.049802578985691,1.1377202728763223,1.3218224858865142,0.0,0.0,cooed,lowwf,medbf
152,178,152,champ,ch,ha,am,mp,c,h,a,m,p,,,0.7098049437627196,0.7578147486783564,0.8698635599575937,0.9578118720091879,1.1498880656436086,0.0,0.0,champ,medwf,medbf
153,178,153,lucky,lu,uc,ck,ky,l,u,c,k,y,,,0.8417189121246338,1.0657606390304863,1.1616895967163146,1.2657289011403918,1.4417198379524052,0.0,0.0,lucky,highwf,lowbf
154,178,154,druze,dr,ru,uz,ze,d,r,u,z,e,,,0.8055797517299652,0.9897004989907146,1.109573784749955,1.2777198269031942,1.5095712249167264,0.0,0.0,druze,lowwf,lowbf
155,178,155,champ,ch,ha,am,mp,c,h,a,m,p,,,0.6337935570627451,0.7219265350140631,0.8189637549221516,0.9138736096210778,1.1138794529251754,0.0,0.0,champ,medwf,medbf
156,178,156,haole,ha,ao,ol,le,h,a,o,l,e,,,1.1338041960261762,1.1978330542333424,1.3417982389219105,1.5018556099385023,1.565885242074728,0.0,0.0,haole,lowwf,medbf
157,178,157,edthe,ed,dt,th,he,e,d,t,h,e,,,0.705768080893904,0.91387187410146,1.0977907101623714,1.1858580629341304,1.273769007064402,0.0,0.0,edthe,pseudo,highbf
158,178,158,tithe,ti,it,th,he,t,i,t,h,e,,,0.9176508830860257,1.1417359439656138,1.2937095612287521,1.3897742480039597,1.4936598162166774,0.0,0.0,tithe,lowwf,highbf
159,178,159,faqir,fa,aq,qi,ir,f,a,q,i,r,,,0.7615824490785599,0.9295544540509582,1.5135378963313997,1.6094658393412828,1.873483510222286,0.0,0.0,faqir,lowwf,lowbf
160,178,160,would,wo,ou,ul,ld,w,o,u,l,d,,,0.6935174698010087,0.7815850777551532,0.9816009947098792,1.181628068909049,1.2376389149576426,0.0,0.0,would,highwf,medbf
161,178,161,cooed,co,oo,oe,ed,c,o,o,e,d,,,0.7774539408273995,0.8973402390256524,1.0414636596105993,1.1374640120193362,1.3054148647934198,0.0,0.0,cooed,lowwf,medbf
162,178,162,vodka,vo,od,dk,ka,v,o,d,j,k,a,,0.7736206999979913,0.8615863951854408,0.997561352327466,1.1655806303024292,1.1735982559621334,1.2216422902420163,0.0,vodjka,medwf,lowbf
163,178,163,tithe,ti,it,th,he,t,i,t,h,e,,,1.0176107012666762,1.0896737491711974,1.2416026662103832,1.3137169000692666,1.4256186801940203,0.0,0.0,tithe,lowwf,highbf
164,178,164,think,th,hi,in,nk,t,h,i,n,k,,,0.7576274531893432,0.8295108331367373,1.021539052017033,1.2295442619360983,1.40558828599751,0.0,0.0,think,highwf,highbf
165,178,165,vodka,vo,od,dk,ka,v,o,d,k,a,,,0.985901874024421,1.049843861721456,1.2337885238230228,1.3778117587789893,1.4418039708398283,0.0,0.0,vodka,medwf,lowbf
166,178,166,faqir,fa,aq,qi,ir,f,a,q,i,r,,,0.7573198108002543,1.069392768200487,1.4054214050993323,1.525320575106889,1.7014197311364114,0.0,0.0,faqir,lowwf,lowbf
167,178,167,champ,ch,ha,am,mp,c,h,a,m,p,,,0.7935983273200691,0.8896188209764659,0.9776932541280985,1.1136670582927763,1.321668716147542,0.0,0.0,champ,medwf,medbf
168,178,168,edthe,ed,dt,th,he,e,d,t,h,e,,,0.7095339107327163,0.9175382386893034,1.1095244949683547,1.2136257938109338,1.2775348876602948,0.0,0.0,edthe,pseudo,highbf
169,178,169,about,ab,bo,ou,ut,a,b,o,u,t,,,0.6097180056385696,0.8578436216339469,0.9297086438164115,1.1138332937844098,1.169839150737971,0.0,0.0,about,highwf,medbf
170,178,170,think,th,hi,in,nk,t,h,i,n,k,,,0.6936191911809146,0.7816183450631797,0.9656618111766875,1.133575201034546,1.2936330190859735,0.0,0.0,think,highwf,highbf
171,178,171,faqir,fa,aq,qi,ir,f,a,q,i,r,,,0.7537797503173351,0.9137727352790534,1.2576516442932189,1.3537845420651138,1.505733144003898,0.0,0.0,faqir,lowwf,lowbf
172,178,172,vanru,va,an,nr,ru,v,a,n,r,u,,,0.7495669559575617,0.9094955958425999,1.0375594878569245,1.1495631667785347,1.2615293827839196,0.0,0.0,vanru,pseudo,medbf
173,178,173,would,wo,ou,ul,ld,w,o,u,l,d,,,0.8254259219393134,0.9055142346769571,1.1055344296619296,1.2975007900968194,1.3214859920553863,0.0,0.0,would,highwf,medbf
174,178,174,cooed,co,oo,oe,ed,c,o,o,e,d,e,,0.6933229411952198,0.837331279180944,0.9814323768950999,1.0614516171626747,1.2374096210114658,1.2454229411669075,0.0,cooede,lowwf,medbf
175,178,175,would,wo,ou,ul,ld,w,o,u,l,d,,,0.7376240231096745,0.8255237932316959,1.0175257022492588,1.2095225099474192,1.2735391152091324,0.0,0.0,would,highwf,medbf
176,178,176,belly,be,el,ll,ly,b,e,l,l,y,,,0.7656077747233212,0.8136801226064563,1.0376714426092803,1.1815817425958812,1.2456599469296634,0.0,0.0,belly,medwf,medbf
177,178,177,puppy,pu,up,pp,py,p,u,p,p,y,,,1.3056539669632912,1.553677452262491,1.785639061126858,1.9056905042380095,1.993567354977131,0.0,0.0,puppy,medwf,lowbf
178,178,178,faqir,fa,aq,qi,ir,f,a,q,i,r,,,0.7334775971248746,0.9975075121037662,1.4134669532068074,1.5334845730103552,1.6855348921380937,0.0,0.0,faqir,lowwf,lowbf
179,178,179,heond,he,eo,on,nd,h,e,o,n,d,,,0.7454076739959419,0.809316448867321,0.9533831202425063,1.1293309298343956,1.2093120701611042,0.0,0.0,heond,pseudo,highbf
180,178,180,druze,dr,ru,uz,ze,d,r,u,z,e,,,0.7252227999269962,0.9172106692567468,0.9973163031972945,1.1732818679884076,1.421279476955533,0.0,0.0,druze,lowwf,lowbf
181,178,181,haole,ha,ao,ol,le,h,a,o,l,e,,,0.7613832070492208,0.8494204850867391,1.0013519432395697,1.1854260279797018,1.2413552929647267,0.0,0.0,haole,lowwf,medbf
182,178,182,heond,he,eo,on,nd,h,e,o,n,d,,,0.8614975800737739,0.9335156506858766,1.0695096789859235,1.2614799328148365,1.3254012009128928,0.0,0.0,heond,pseudo,highbf
183,178,183,about,ab,bo,ou,ut,a,b,o,u,t,,,0.6416272511705756,0.8895832290872931,0.9616421451792121,1.1696627070195973,1.2255478999577463,0.0,0.0,about,highwf,medbf
184,178,184,kremp,kr,re,em,mp,k,r,e,m,p,,,0.9015464512631297,0.9975860742852092,1.0616015843115747,1.221507650334388,1.4216320542618632,0.0,0.0,kremp,pseudo,medbf
185,178,185,tithe,ti,it,th,he,t,i,t,h,e,,,0.8976319348439574,0.977600353769958,1.1056430507451296,1.2015956216491759,1.2976042269729078,0.0,0.0,tithe,lowwf,highbf
186,178,186,haole,ha,ao,ol,le,j,h,a,o,l,e,,0.7095034057274461,0.7095034057274461,1.7174914297647774,1.8295180718414485,1.989623553585261,2.045644952915609,0.0,jhaole,lowwf,medbf
187,178,187,cheer,ch,he,ee,er,c,v,h,e,e,r,,0.7934624720364809,0.801435493864119,0.8734714649617672,1.073518737219274,1.225451669190079,1.3375305980443954,0.0,cvheer,medwf,highbf
188,178,188,about,ab,bo,ou,ut,a,b,o,u,t,,,0.6135194189846516,0.909399013966322,0.9894117610529065,1.18146187113598,1.2454373268410563,0.0,0.0,about,highwf,medbf
189,178,189,therm,th,he,er,rm,t,h,e,r,m,,,0.6414765599183738,0.7374432319775224,0.8813785412348807,0.9933453579433262,1.1053747702389956,0.0,0.0,therm,lowwf,highbf
190,178,190,cheer,ch,he,ee,er,c,h,e,e,r,,,0.7814024789258838,0.8535114750266075,1.0774226756766438,1.2294228309765458,1.3575504370965064,0.0,0.0,cheer,medwf,highbf
191,178,191,heond,he,eo,on,nd,h,e,o,n,d,,,0.7615550141781569,0.9695108220912516,1.1055669519118965,1.3135816110298038,1.3934758459217846,0.0,0.0,heond,pseudo,highbf
192,178,192,vodka,vo,od,dk,ka,v,o,d,k,a,,,0.8853114838711917,0.9973160605877638,1.2132529648952186,1.469275735784322,1.557327906601131,0.0,0.0,vodka,medwf,lowbf
193,178,193,theme,th,he,em,me,t,g,h,e,m,e,,0.7452698149718344,0.7691885181702673,0.8332208311185241,0.9532583169639111,1.1052963198162615,1.1772324400953948,0.0,tgheme,medwf,highbf
194,178,194,champ,ch,ha,am,mp,c,h,a,m,p,,,0.7336470573209226,0.8216385850682855,0.949634063988924,1.061661384999752,1.2696405532769859,0.0,0.0,champ,medwf,medbf
195,178,195,belly,be,el,ll,ly,b,e,l,l,y,,,0.7853477741591632,0.857469080016017,1.0814101160503924,1.2093574292957783,1.2813681112602353,0.0,0.0,belly,medwf,medbf
196,178,196,there,th,he,er,re,t,h,e,r,e,,,0.733443096280098,0.837437747977674,0.9494371563196182,1.0933674373663962,1.1973965493962169,0.0,0.0,there,highwf,highbf
197,178,197,vanru,va,an,nr,ru,v,a,n,r,u,,,0.9615603336133063,1.0255933976732194,1.1855305559001863,1.2975441766902804,1.4014411456882954,0.0,0.0,vanru,pseudo,medbf
198,178,198,zibja,zi,ib,bj,ja,z,i,b,j,a,,,1.3495182343758643,1.4774907799437642,1.701469138264656,1.9094622302800417,1.965540195349604,0.0,0.0,zibja,pseudo,lowbf
199,178,199,think,th,hi,in,nk,t,h,i,n,k,,,0.7054648576304317,0.7853865646757185,0.985382738057524,1.1933375499211252,1.39333602366969,0.0,0.0,think,highwf,highbf
200,178,200,druze,dr,ru,uz,ze,d,r,u,z,e,,,0.8613504059612751,1.0373347229324281,1.1653121458366513,1.3892274149693549,1.6772068990394473,0.0,0.0,druze,lowwf,lowbf
201,178,201,pykka,py,yk,kk,ka,p,y,k,k,a,,,0.7692506262101233,1.1771513880230486,1.4892412880435586,1.6171336681582034,1.7212544120848179,0.0,0.0,pykka,pseudo,lowbf
202,178,202,edthe,ed,dt,th,he,e,d,t,h,e,,,0.7573491609655321,0.9813098958693445,1.173354092054069,1.2532899118959904,1.341349151916802,0.0,0.0,edthe,pseudo,highbf
203,178,203,kremp,kr,re,em,mp,k,r,e,m,p,,,0.7855500099249184,0.8495620978064835,0.9455470377579331,1.0814848495647311,1.2655487288720906,0.0,0.0,kremp,pseudo,medbf
204,178,204,about,ab,bo,ou,ut,a,b,o,u,t,,,0.7892154832370579,1.0292390040121973,1.1092239222489297,1.2932225931435823,1.3572749313898385,0.0,0.0,about,highwf,medbf
205,178,205,therm,th,he,er,rm,t,h,e,r,m,,,0.6652626558206975,0.7612833678722382,0.8733196747489274,0.9852803940884769,1.0973092699423432,0.0,0.0,therm,lowwf,highbf
206,178,206,belly,be,el,ll,ly,b,e,l,l,y,,,0.8373176590539515,0.9012128179892898,1.1253239721991122,1.269313641358167,1.333314458373934,0.0,0.0,belly,medwf,medbf
207,178,207,faqir,fa,aq,qi,ir,f,a,q,i,r,,,0.7453643148764968,0.8893807148560882,1.1533833290450275,1.2812966806814075,1.4413963668048382,0.0,0.0,faqir,lowwf,lowbf
208,178,208,edthe,ed,dt,th,he,e,c,d,d,t,h,e,0.6694646659307182,0.8934220881201327,0.9093433520756662,2.1173472101800144,2.317347928881645,2.405475868843496,2.485387569759041,ecddthe,pseudo,highbf
209,178,209,belly,be,el,ll,ly,b,e,l,l,y,,,0.841465522069484,0.9213435500860214,1.1694606370292604,1.329339625313878,1.3773375991731882,0.0,0.0,belly,medwf,medbf
210,178,210,buddy,bu,ud,dd,dy,b,u,d,d,y,,,0.7894402369856834,1.0214464259333909,1.1734939347952604,1.325539377052337,1.4134853738360107,0.0,0.0,buddy,highwf,lowbf
211,178,211,think,th,hi,in,nk,t,h,i,n,k,,,0.7533037075772882,0.8253908576443791,1.0413042795844376,1.2492456226609647,1.4412223566323519,0.0,0.0,think,highwf,highbf
212,178,212,pykka,py,yk,kk,ka,p,y,k,k,a,,,0.7255526687949896,0.9814250897616148,1.2293738550506532,1.365484748966992,1.4374578217975795,0.0,0.0,pykka,pseudo,lowbf
213,178,213,cheer,ch,he,ee,er,c,h,e,e,r,,,0.9614387201145291,1.073396760970354,1.2493918500840664,1.3932950659655035,1.5213620401918888,0.0,0.0,cheer,medwf,highbf
214,178,214,zibja,zi,ib,bj,ja,z,i,b,j,a,,,1.1890770602039993,1.461151486262679,1.6930710510350764,1.9010586282238364,1.9731212500482798,0.0,0.0,zibja,pseudo,lowbf
215,178,215,druze,dr,ru,uz,ze,d,r,u,z,d,e,,0.7612939793616533,0.9533152263611555,1.057360203936696,1.2812069151550531,1.5372965391725302,2.3853102941066027,0.0,druzde,lowwf,lowbf
216,178,216,vanru,va,an,nr,ru,v,a,n,r,u,,,0.7652811021544039,0.8212332432158291,0.9811833840794861,1.1091908561065793,1.2132275709882379,0.0,0.0,vanru,pseudo,medbf
217,178,217,lucky,lu,uc,ck,ky,l,u,c,k,y,,,0.8093670597299933,1.0012926668860018,1.0974061298184097,1.209332271013409,1.3534045540727675,0.0,0.0,lucky,highwf,lowbf
218,178,218,champ,ch,ha,am,mp,c,h,a,m,p,,,0.7571808993816376,0.8372447299771011,0.9571414501406252,1.0612001679837704,1.2771039311774075,0.0,0.0,champ,medwf,medbf
219,178,219,pykka,py,yk,kk,ka,p,y,k,k,a,,,0.75323292799294,0.9771275869570673,1.2332086181268096,1.3612020341679454,1.4492366900667548,0.0,0.0,pykka,pseudo,lowbf
220,178,220,haole,ha,ao,ol,le,h,a,o,l,e,,,0.7972804480232298,0.8771979981102049,1.0292404163628817,1.1892073941417038,1.2533032963983715,0.0,0.0,haole,lowwf,medbf
221,178,221,buddy,bu,ud,dd,dy,b,u,d,d,y,,,0.8572228783741593,1.5852350043132901,1.8092227573506534,1.9613234563730657,2.025198151357472,0.0,0.0,buddy,highwf,lowbf
222,178,222,druze,dr,ru,uz,ze,d,r,u,z,e,,,0.7732272706925869,1.0132179376669228,1.1171597326174378,1.3892724816687405,1.6852842029184103,0.0,0.0,druze,lowwf,lowbf
223,178,223,buddy,bu,ud,dd,dy,b,u,d,d,y,,,0.6733815078623593,0.8813584106974304,1.0494061717763543,1.2094648936763406,1.2813967010006309,0.0,0.0,buddy,highwf,lowbf
224,178,224,theme,th,he,em,me,t,h,e,m,e,,,0.7012514639645815,0.8133305232040584,0.9172576949931681,1.0293308589607477,1.1093237181194127,0.0,0.0,theme,medwf,highbf
225,178,225,vanru,va,an,nr,ru,b,a,n,r,u,,,0.721156335901469,0.7852062359452248,2.1291451449505985,2.353247639723122,2.433241620659828,0.0,0.0,banru,pseudo,medbf
226,178,226,puppy,pu,up,pp,py,p,u,p,p,y,,,0.7965889312326908,0.9967070082202554,1.2686662198975682,1.3966747829690576,1.4765598801895976,0.0,0.0,puppy,medwf,lowbf
227,178,227,kremp,kr,re,em,mp,k,r,e,m,p,,,0.7685673949308693,0.8325844323262572,0.9285222571343184,1.024498051032424,1.2086314312182367,0.0,0.0,kremp,pseudo,medbf
228,178,228,theme,th,he,em,me,t,h,e,m,e,,,0.7003079010173678,0.780412157997489,0.8842951799742877,0.9723039600066841,1.044439421966672,0.0,0.0,theme,medwf,highbf
229,178,229,there,th,he,er,re,t,h,e,r,e,,,0.7204713588580489,0.8003836190328002,0.9123367690481246,1.0085131912492216,1.112409245222807,0.0,0.0,there,highwf,highbf
230,178,230,puppy,pu,up,pp,py,p,u,p,p,y,,,0.6604315941222012,0.8764086039736867,1.1004372341558337,1.244560033082962,1.3085474441759288,0.0,0.0,puppy,medwf,lowbf
231,178,231,there,th,he,er,re,t,h,e,r,e,,,0.7364728599786758,0.8086095782928169,0.9364264099858701,1.0404660641215742,1.1364695942029357,0.0,0.0,there,highwf,highbf
232,178,232,theme,th,he,em,me,t,h,e,m,e,,,0.7325281100347638,0.8044865829870105,0.9085548557341099,1.0124939777888358,1.0844082059338689,0.0,0.0,theme,medwf,highbf
233,178,233,puppy,pu,up,pp,py,p,u,p,p,y,,,1.1045516389422119,1.4246085709892213,1.6645311382599175,1.8005322171375155,1.8965387330390513,0.0,0.0,puppy,medwf,lowbf
234,178,234,lucky,lu,uc,ck,ky,l,u,c,k,y,,,0.7165596010163426,0.9244831381365657,1.0205613411962986,1.140485486947,1.2924854131415486,0.0,0.0,lucky,highwf,lowbf
235,178,235,cheer,ch,he,ee,er,c,h,e,e,r,,,0.7363680941052735,0.8243827549740672,1.0244186990894377,1.176263782195747,1.2962877792306244,0.0,0.0,cheer,medwf,highbf
236,178,236,tithe,ti,it,th,he,t,i,t,h,e,,,0.7724266019649804,1.044475648086518,1.2124049002304673,1.2924331170506775,1.4043381260707974,0.0,0.0,tithe,lowwf,highbf
237,178,237,pykka,py,yk,kk,ka,p,y,k,k,a,,,0.672246671281755,1.0003099152818322,1.2802481073886156,1.4322096151299775,1.544250833336264,0.0,0.0,pykka,pseudo,lowbf
238,178,238,cooed,co,oo,oe,ed,c,o,o,e,d,,,0.6763337929733098,0.8364367200993001,0.9804209591820836,1.0843268083408475,1.2683664532378316,0.0,0.0,cooed,lowwf,medbf
239,178,239,theme,th,he,em,me,t,h,e,m,e,,,0.6803242806345224,0.7602108106948435,0.8962763319723308,0.9922379236668348,1.0562931359745562,0.0,0.0,theme,medwf,highbf
