,sID,Trial #,string,bi_1,bi_2,bi_3,bi_4,key_resp.keys.1,key_resp.keys.2,key_resp.keys.3,key_resp.keys.4,key_resp.keys.5,key_resp.keys.6,key_resp.rt.1,key_resp.rt.2,key_resp.rt.3,key_resp.rt.4,key_resp.rt.5,key_resp.rt.6,resp_string,WF Type,BF Type
0,179,0,pykka,py,yk,kk,ka,p,y,y,k,k,a,0.8598642311990261,1.003759650979191,2.347826394252479,2.659872786141932,2.771893871948123,2.883851525839418,pyykka,pseudo,lowbf
1,179,1,faqir,fa,aq,qi,ir,f,a,q,i,r,,0.7572004976682365,0.8771390677429736,1.221149574033916,1.6930699069052935,1.837200955953449,0.0,faqir,lowwf,lowbf
2,179,2,belly,be,el,ll,ly,b,e,l,l,y,,0.6499263369478285,0.7938538938760757,0.9299046979285777,1.057869688142091,1.1938214539550245,0.0,belly,medwf,medbf
3,179,3,therm,th,he,er,rm,t,h,e,r,m,,0.9018603693693876,0.9977765399962664,1.157859057188034,1.221815244294703,1.3018682501278818,0.0,therm,lowwf,highbf
4,179,4,theme,th,he,em,me,t,h,e,m,e,,0.6017916509881616,0.6817003930918872,0.8657271172851324,0.9537181169725955,1.0896422280929983,0.0,theme,medwf,highbf
5,179,5,haole,ha,ao,ol,le,h,a,o,l,e,,0.8697003512643278,1.0456031281501055,1.2057590209878981,1.3896073731593788,1.565717631019652,0.0,haole,lowwf,medbf
6,179,6,champ,ch,ha,am,mp,c,h,a,m,p,,0.985729874111712,1.0897825583815575,1.2096609761938453,1.3298099781386554,1.4736823802813888,0.0,champ,medwf,medbf
7,179,7,haole,ha,ao,ol,le,h,a,o,l,e,,0.7097266181372106,0.8937169881537557,0.9977265163324773,1.1977232652716339,1.2778836241923273,0.0,haole,lowwf,medbf
8,179,8,cheer,ch,he,ee,er,c,h,e,e,r,,0.8096723351627588,0.9378004372119904,1.1296844240278006,1.2657821541652083,1.4096825602464378,0.0,cheer,medwf,highbf
9,179,9,think,th,hi,in,nk,t,h,i,n,k,,0.6620413018390536,0.7179289809428155,0.8299633371643722,0.9739429969340563,1.102037241216749,0.0,think,highwf,highbf
10,179,10,buddy,bu,ud,dd,dy,b,u,d,d,y,,0.6794309667311609,1.127328859642148,1.4313143179751933,1.5674368715845048,1.6553225959651172,0.0,buddy,highwf,lowbf
11,179,11,zibja,zi,ib,bj,ja,z,i,b,j,a,,0.9249069318175316,1.0850504469126463,1.26903030090034,1.5570290558971465,1.7089139479212463,0.0,zibja,pseudo,lowbf
12,179,12,druze,dr,ru,uz,ze,d,r,u,z,e,,0.7458433960564435,0.9219272769987583,1.0499644172377884,1.2659264262765646,1.4258790980093181,0.0,druze,lowwf,lowbf
13,179,13,puppy,pu,up,pp,py,p,u,p,p,y,,0.6459113634191453,0.7659301003441215,1.0619260310195386,1.1978350402787328,1.3338233199901879,0.0,puppy,medwf,lowbf
14,179,14,theme,th,he,em,me,t,h,e,m,e,,0.7053809519857168,0.7693727910518646,0.9293249221518636,1.0252407579682767,1.1693723751232028,0.0,theme,medwf,highbf
15,179,15,vodka,vo,od,dk,ka,c,o,d,k,a,,0.9416961860843003,1.0696922191418707,1.2456593234091997,1.5256903884001076,1.6697437684051692,0.0,codka,medwf,lowbf
16,179,16,edthe,ed,dt,th,he,e,d,t,h,e,,0.8497679699212313,1.0657773669809103,1.257786228787154,1.3617341378703713,1.4737835600972176,0.0,edthe,pseudo,highbf
17,179,17,would,wo,ou,ul,ld,w,o,u,l,d,,0.6698799128644168,0.7579088690690696,0.8218958950601518,1.005927017889917,1.117777586914599,0.0,would,highwf,medbf
18,179,18,about,ab,bo,ou,ut,a,b,o,u,t,,0.6417330610565841,0.7616720190271735,0.9296165890991688,1.0096141309477389,1.169684843160212,0.0,about,highwf,medbf
19,179,19,puppy,pu,up,pp,py,p,u,p,p,y,,0.7735943547450006,0.8776966710574925,1.7416240628808737,1.8935115379281342,1.9896403891034424,0.0,puppy,medwf,lowbf
20,179,20,theme,th,he,em,me,t,h,e,m,e,,0.5936749735847116,0.6577829485759139,0.7936577759683132,0.9137821616604924,1.0657709636725485,0.0,theme,medwf,highbf
21,179,21,heond,he,eo,on,nd,h,e,o,n,d,,0.74153176182881,0.8776240241713822,0.9814920201897621,1.1495666159316897,1.325511849950999,0.0,heond,pseudo,highbf
22,179,22,champ,ch,ha,am,mp,c,h,a,m,p,,0.6495136409066617,0.7294764509424567,0.8734229099936783,0.9775592777878046,1.073553507681936,0.0,champ,medwf,medbf
23,179,23,about,ab,bo,ou,ut,a,b,o,u,t,,0.5815522097982466,0.6935312729328871,0.8535499759018421,0.957576896995306,1.0855836947448552,0.0,about,highwf,medbf
24,179,24,vanru,va,an,nr,ru,v,a,n,r,u,,0.80173146026209,0.9216876798309386,1.1616514730267227,1.5295892269350588,1.721579804085195,0.0,vanru,pseudo,medbf
25,179,25,champ,ch,ha,am,mp,c,h,a,m,p,,0.6937556839548051,0.7818278381600976,0.9017137009650469,1.0218275021761656,1.1177245993167162,0.0,champ,medwf,medbf
26,179,26,pykka,py,yk,kk,ka,p,y,k,k,a,,0.6976190819405019,0.8416547658853233,1.1696789907291532,1.2816220209933817,1.417557803913951,0.0,pykka,pseudo,lowbf
27,179,27,there,th,he,er,re,t,h,e,r,e,,0.5576847698539495,0.6617758590728045,0.7977013261988759,0.8697610511444509,0.9817825239151716,0.0,there,highwf,highbf
28,179,28,would,wo,ou,ul,ld,w,o,u,l,d,,0.6249425360001624,0.7209861092269421,0.8009138121269643,0.9849464041180909,1.1449305210262537,0.0,would,highwf,medbf
29,179,29,therm,th,he,er,rm,t,h,e,r,m,,0.5328922467306256,0.6369380140677094,0.7648631939664483,0.8688906878232956,1.0768240890465677,0.0,therm,lowwf,highbf
30,179,30,belly,be,el,ll,ly,b,e,l,l,y,,0.6487900372594595,0.8167206980288029,0.9528127103112638,1.0726905511692166,1.2247984949499369,0.0,belly,medwf,medbf
31,179,31,zibja,zi,ib,bj,ja,z,i,b,j,a,,0.7727350597269833,0.8846390536054969,1.0607375036925077,1.276627155020833,1.4046909250319004,0.0,zibja,pseudo,lowbf
32,179,32,therm,th,he,er,rm,t,h,e,r,m,,0.616736832074821,0.6887422981671989,0.8247437989339232,0.9046852043829858,1.0407682843506336,0.0,therm,lowwf,highbf
33,179,33,buddy,bu,ud,dd,dy,b,u,d,d,y,,0.6448858906514943,0.8608401538804173,1.0449037328362465,1.1727831228636205,1.268760731909424,0.0,buddy,highwf,lowbf
34,179,34,pykka,py,yk,kk,ka,p,y,k,k,a,,0.6248257933184505,0.7607697253115475,1.1048596650362015,1.2408494460396469,1.3767290473915637,0.0,pykka,pseudo,lowbf
35,179,35,edthe,ed,dt,th,he,e,t,h,e,,,0.6289378218352795,0.8690723860636353,1.8610978526994586,1.9970621829852462,0.0,0.0,ethe,pseudo,highbf
36,179,36,vodka,vo,od,dk,ka,z,o,d,k,a,,0.8969921651296318,1.232993088196963,1.5529785002581775,1.7609593961387873,1.8649359978735447,0.0,zodka,medwf,lowbf
37,179,37,cooed,co,oo,oe,ed,c,o,o,e,d,,1.0610357718542218,2.004979494959116,2.157020346727222,2.412991460878402,2.6290486468933523,0.0,cooed,lowwf,medbf
38,179,38,cheer,ch,he,ee,er,c,h,e,e,r,,0.840994733851403,1.0008621672168374,1.2088772961869836,1.3609303338453174,1.5128709231503308,0.0,cheer,medwf,highbf
39,179,39,tithe,ti,it,th,he,t,h,i,t,h,e,0.7168921208940446,0.8127782889641821,0.8927654908038676,1.20489069679752,1.3408336187712848,1.8688559718430042,thithe,lowwf,highbf
40,179,40,there,th,he,er,re,t,h,e,r,e,,0.7048461181111634,0.8007881040684879,0.9449260290712118,1.0088365408591926,1.1368736121803522,0.0,there,highwf,highbf
41,179,41,cooed,co,oo,oe,ed,c,o,o,e,d,,1.8049880429171026,2.0290205241180956,2.1648855502717197,2.5249839182943106,2.7730031609535217,0.0,cooed,lowwf,medbf
42,179,42,puppy,pu,up,pp,py,p,u,p,p,y,,0.6646878989413381,0.8006469742394984,1.0487811090424657,1.192640250083059,1.328718083910644,0.0,puppy,medwf,lowbf
43,179,43,kremp,kr,re,em,mp,k,r,e,m,p,,0.7648007231764495,0.9328674641437829,1.0368846552446485,1.1328709162771702,1.2448887801729143,0.0,kremp,pseudo,medbf
44,179,44,cooed,co,oo,oe,ed,c,o,o,e,d,,1.1607180889695883,1.472794382367283,1.6168526010587811,1.6968043241649866,1.9288337472826242,0.0,cooed,lowwf,medbf
45,179,45,druze,dr,ru,uz,ze,d,r,u,z,e,,0.7005740259774029,0.8846208690665662,1.0286561539396644,1.1966711883433163,1.3326738933101296,0.0,druze,lowwf,lowbf
46,179,46,heond,he,eo,on,nd,h,e,o,n,d,,0.6807373561896384,0.8246430712752044,0.9288144940510392,1.0726872109808028,1.2806972851976752,0.0,heond,pseudo,highbf
47,179,47,faqir,fa,aq,qi,ir,f,a,q,u,r,,0.8128454838879406,0.948859725613147,1.204904526937753,1.428823966998607,2.380917641799897,0.0,faqur,lowwf,lowbf
48,179,48,there,th,he,er,re,t,h,e,r,e,,0.7288541747257113,0.8007514076307416,0.9288468328304589,0.9848322719335556,1.1048633116297424,0.0,there,highwf,highbf
49,179,49,cooed,co,oo,oe,ed,c,o,o,e,d,,0.8209183770231903,1.052976748906076,1.1968627469614148,1.2688947869464755,1.5089158480986953,0.0,cooed,lowwf,medbf
50,179,50,buddy,bu,ud,dd,dy,b,u,d,d,y,,0.6808044370263815,0.9208268281072378,1.1528500681743026,1.3047925760038197,1.4007373158819973,0.0,buddy,highwf,lowbf
51,179,51,puppy,pu,up,pp,py,p,u,p,p,y,,0.6530231032520533,0.7890141303651035,1.0449757534079254,1.1889599040150642,1.3169650384224951,0.0,puppy,medwf,lowbf
52,179,52,champ,ch,ha,am,mp,c,h,a,m,p,,0.7127583883702755,0.7766821109689772,0.8967308672145009,1.032772438134998,1.1047325390391052,0.0,champ,medwf,medbf
53,179,53,vodka,vo,od,dk,ka,z,o,d,k,a,,0.9005769998766482,1.1567215765826404,1.3567156088538468,1.6125826467759907,1.7246669488959014,0.0,zodka,medwf,lowbf
54,179,54,lucky,lu,uc,ck,ky,l,u,c,k,y,,0.7207858180627227,0.8647350198589265,1.304809452034533,1.3448244747705758,1.9927022960036993,0.0,lucky,highwf,lowbf
55,179,55,haole,ha,ao,ol,le,h,a,o,l,e,,0.7886550459079444,0.9006629879586399,1.0047209858894348,1.212785325013101,1.3327731750905514,0.0,haole,lowwf,medbf
56,179,56,pykka,py,yk,kk,ka,p,y,k,k,a,,0.7606197549030185,0.8966879858635366,1.224599501118064,1.3686812720261514,1.5046488740481436,0.0,pykka,pseudo,lowbf
57,179,57,haole,ha,ao,ol,le,h,a,o,l,e,,0.6445381697267294,0.7804611916653812,0.8845356567762792,1.100440084002912,1.2365448269993067,0.0,haole,lowwf,medbf
58,179,58,edthe,ed,dt,th,he,e,d,t,h,e,,0.7125692539848387,0.960566246882081,1.2406647210009396,1.3685075677931309,1.5125503619201481,0.0,edthe,pseudo,highbf
59,179,59,vanru,va,an,nr,ru,v,a,n,r,u,,1.4527958016842604,1.5966919818893075,1.7807261077687144,1.9727774686180055,2.1166890147142112,0.0,vanru,pseudo,medbf
60,179,60,faqir,fa,aq,qi,ir,f,a,q,i,r,,0.8407640922814608,0.9047552100382745,1.1606327104382217,1.4006327921524644,1.5846285172738135,0.0,faqir,lowwf,lowbf
61,179,61,druze,dr,ru,uz,ze,d,r,u,z,e,,0.6447992972098291,0.836744022089988,0.9647505204193294,1.1168114403262734,1.2447872990742326,0.0,druze,lowwf,lowbf
62,179,62,tithe,ti,it,th,he,t,i,t,h,e,,0.7368871029466391,0.8408824247308075,1.0007719187997282,1.1608717776834965,1.3289131768979132,0.0,tithe,lowwf,highbf
63,179,63,kremp,kr,re,em,mp,k,r,e,m,p,,0.7728075091727078,0.932748160790652,1.036765730008483,1.1247576791793108,1.2606868501752615,0.0,kremp,pseudo,medbf
64,179,64,lucky,lu,uc,ck,ky,u,c,k,y,,,0.7447802452370524,1.3367767413146794,1.5048280963674188,1.704848748166114,0.0,0.0,ucky,highwf,lowbf
65,179,65,vodka,vo,od,dk,ka,v,o,d,k,a,,1.3005735715851188,1.4686185447499156,1.6765501266345382,2.3726526838727295,2.4925547828897834,0.0,vodka,medwf,lowbf
66,179,66,lucky,lu,uc,ck,ky,l,u,c,k,y,,0.6326905856840312,0.8567082537338138,1.1207008650526404,1.2486868971027434,1.4486631411127746,0.0,lucky,highwf,lowbf
67,179,67,heond,he,eo,on,nd,h,e,o,n,d,,0.644785373006016,0.740767857991159,0.8366948217153549,0.9646916748024523,1.1486963299103081,0.0,heond,pseudo,highbf
68,179,68,about,ab,bo,ou,ut,a,b,o,u,t,,0.6005653832107782,0.7686208193190396,0.9206396723166108,1.02466051094234,1.1366453832015395,0.0,about,highwf,medbf
69,179,69,vanru,va,an,nr,ru,v,a,n,r,u,,0.7806301270611584,0.9086775663308799,1.0925211771391332,1.3645285642705858,1.5405251691117883,0.0,vanru,pseudo,medbf
70,179,70,about,ab,bo,ou,ut,a,b,o,u,t,,0.6006316170096397,0.7367128389887512,0.8966700951568782,0.9846202759072185,1.1126343170180917,0.0,about,highwf,medbf
71,179,71,think,th,hi,in,nk,t,h,i,n,k,,0.7084826920181513,0.7965222029015422,0.8844237411394715,1.0524874338880181,1.1965434812009335,0.0,think,highwf,highbf
72,179,72,zibja,zi,ib,bj,ja,z,i,b,j,a,,0.8485995596274734,0.9925106489099562,1.2004981939680874,1.400498820003122,1.5045912396162748,0.0,zibja,pseudo,lowbf
73,179,73,edthe,ed,dt,th,he,e,d,t,h,e,,0.7003522459417582,0.9564920039847493,1.2684334618970752,1.3804863379336894,1.5164775690063834,0.0,edthe,pseudo,highbf
74,179,74,there,th,he,er,re,t,h,e,r,e,,0.8086732910014689,0.9046496953815222,1.0485939090140164,1.112565752118826,1.2405892750248313,0.0,there,highwf,highbf
75,179,75,faqir,fa,aq,qi,ir,f,a,q,i,r,,0.7646152749657631,0.8926581023260951,1.3727195393294096,1.8046888639219105,1.9326747138984501,0.0,faqir,lowwf,lowbf
76,179,76,kremp,kr,re,em,mp,k,r,e,m,p,,0.7605957970954478,0.8806765042245388,0.9766162489540875,1.1446902360767126,1.2327221441082656,0.0,kremp,pseudo,medbf
77,179,77,there,th,he,er,re,t,h,e,r,e,,0.6526644327677786,0.772600129712373,0.9246016987599432,0.9966648989357054,1.1166303199715912,0.0,there,highwf,highbf
78,179,78,theme,th,he,em,me,t,h,e,m,e,,0.544483220204711,0.6484183729626238,0.8003451637923717,0.9364601518027484,1.056462112814188,0.0,theme,medwf,highbf
79,179,79,would,wo,ou,ul,ld,w,o,u,l,d,,0.7644933168776333,0.876496430952102,0.9806004259735346,1.156615565996617,1.2926384801976383,0.0,would,highwf,medbf
80,179,80,think,th,hi,in,nk,t,h,i,n,k,,0.6163084008730948,0.688370409887284,0.8002431746572256,0.9602432758547366,1.1043849517591298,0.0,think,highwf,highbf
81,179,81,belly,be,el,ll,ly,b,e,l,l,y,,0.7005138411186635,0.8844942897558212,1.0205949121154845,1.156658655963838,1.316573103889823,0.0,belly,medwf,medbf
82,179,82,vodka,vo,od,dk,ka,v,o,d,k,a,,1.600432274863124,1.800435178913176,1.9365621940232813,2.0804991549812257,2.2404970601201057,0.0,vodka,medwf,lowbf
83,179,83,belly,be,el,ll,ly,b,e,l,l,y,,0.6124278409406543,0.7724680490791798,0.8763672620989382,1.0123958778567612,1.172371453139931,0.0,belly,medwf,medbf
84,179,84,tithe,ti,it,th,he,t,i,t,h,e,,0.8485955288633704,0.9685136368498206,1.1765368771739304,1.2486274070106447,1.4246491710655391,0.0,tithe,lowwf,highbf
85,179,85,about,ab,bo,ou,ut,a,b,o,u,t,,0.6444295579567552,0.7803614768199623,0.9403031026013196,1.0283795585855842,1.1964331627823412,0.0,about,highwf,medbf
86,179,86,would,wo,ou,ul,ld,q,o,u,l,d,,0.6084887832403183,0.7285707090049982,0.7844381053000689,0.9604505342431366,1.104505502153188,0.0,qould,highwf,medbf
87,179,87,druze,dr,ru,uz,ze,d,r,u,z,e,,0.7003891579806805,0.8684350117109716,1.0124169257469475,1.1725159077905118,1.3484619739465415,0.0,druze,lowwf,lowbf
88,179,88,theme,th,he,em,me,t,h,e,m,e,,0.5926040327176452,0.6967079327441752,0.8246128889732063,0.9766054679639637,1.0966942170634866,0.0,theme,medwf,highbf
89,179,89,tithe,ti,it,th,he,t,i,t,h,e,,0.8045746763236821,0.9085440463386476,1.0206297752447426,1.172642338089645,1.3165894453413785,0.0,tithe,lowwf,highbf
90,179,90,cheer,ch,he,ee,er,c,h,e,e,r,,0.8485624799504876,1.0487052598036826,1.2645718920975924,1.4005521200597286,1.5845695221796632,0.0,cheer,medwf,highbf
91,179,91,lucky,lu,uc,ck,ky,l,u,c,k,y,,0.6525077810510993,0.8124420857056975,1.060383207630366,1.1964040850289166,1.3885296396911144,0.0,lucky,highwf,lowbf
92,179,92,heond,he,eo,on,nd,h,e,o,n,d,,0.6964987213723361,0.808469733223319,0.8966030799783766,1.032569149043411,1.2004792103543878,0.0,heond,pseudo,highbf
93,179,93,therm,th,he,er,rm,t,h,e,r,m,,0.596562092192471,0.700427464209497,0.8365583200939,0.9245589189231396,1.0445190500468016,0.0,therm,lowwf,highbf
94,179,94,tithe,ti,it,th,he,t,i,t,h,e,,0.6244788919575512,0.7683975179679692,0.9524669158272445,1.0804675058461726,1.2244391897693276,0.0,tithe,lowwf,highbf
95,179,95,haole,ha,ao,ol,le,h,a,o,l,e,,0.6923370561562479,0.8363388571888208,0.9563931180164218,1.1803693091496825,1.324388423934579,0.0,haole,lowwf,medbf
96,179,96,druze,dr,ru,uz,ze,d,r,u,z,e,,0.7124951197765768,0.8805760638788342,1.0405885679647326,1.1685261386446655,1.3124567018821836,0.0,druze,lowwf,lowbf
97,179,97,heond,he,eo,on,nd,h,e,o,n,d,,0.652385578956455,0.7723837830126286,0.876265054102987,0.9963811058551073,1.220349402166903,0.0,heond,pseudo,highbf
98,179,98,puppy,pu,up,pp,py,p,u,p,p,y,,0.6723014190793037,0.8162830378860235,1.0802890588529408,1.2162904902361333,1.368223360273987,0.0,puppy,medwf,lowbf
99,179,99,would,wo,ou,ul,ld,w,o,u,l,d,,0.6760449940338731,0.7640509246848524,0.8442219840362668,1.0281928307376802,1.1640951968729496,0.0,would,highwf,medbf
100,179,100,kremp,kr,re,em,mp,k,r,e,m,p,,0.6643524812534451,0.8324069282971323,0.944444322027266,1.0083965668454766,1.160319693852216,0.0,kremp,pseudo,medbf
101,179,101,lucky,lu,uc,ck,ky,l,u,c,k,y,,0.5804353142157197,0.7563879042863846,0.9804362119175494,1.1003909669816494,1.276313732843846,0.0,lucky,highwf,lowbf
102,179,102,think,th,hi,in,nk,t,h,i,n,k,,0.6084393421187997,0.6804812322370708,0.7924163490533829,0.9683997640386224,1.112419473938644,0.0,think,highwf,highbf
103,179,103,buddy,bu,ud,dd,dy,b,u,d,d,y,,0.6044343896210194,0.8444750509224832,1.0603866428136826,1.220433915965259,1.3164631458930671,0.0,buddy,highwf,lowbf
104,179,104,zibja,zi,ib,bj,ja,z,i,b,j,a,,0.7682303939945996,0.9121844847686589,1.0881640850566328,1.3202353650704026,1.4322375049814582,0.0,zibja,pseudo,lowbf
105,179,105,vanru,va,an,nr,ru,v,a,n,r,u,,0.7805033740587533,0.9324931781738997,1.1164641687646508,1.260388737078756,1.4043920040130615,0.0,vanru,pseudo,medbf
106,179,106,cooed,co,oo,oe,ed,c,o,o,e,d,,0.9840783271938562,1.2640657732263207,1.400118297431618,1.4881417662836611,1.720197911374271,0.0,cooed,lowwf,medbf
107,179,107,cheer,ch,he,ee,er,c,h,e,e,r,,0.6600954020395875,0.8201937032863498,1.0282010422088206,1.1882608602754772,1.3241910799406469,0.0,cheer,medwf,highbf
108,179,108,pykka,py,yk,kk,ka,p,y,k,k,a,,0.7204741998575628,0.8483938090503216,1.152473097667098,1.2963713030330837,1.4804660119116306,0.0,pykka,pseudo,lowbf
109,179,109,edthe,ed,dt,th,he,e,d,t,h,e,,0.6204535490833223,0.8444624249823391,1.1244080220349133,1.2684415034018457,1.4204147472046316,0.0,edthe,pseudo,highbf
110,179,110,therm,th,he,er,rm,t,h,e,r,m,,0.5682052308693528,0.6562690739519894,0.7523538107052445,0.8482374027371407,0.9602187490090728,0.0,therm,lowwf,highbf
111,179,111,zibja,zi,ib,bj,ja,z,i,b,j,a,,0.7242329511791468,0.8362761260941625,1.0202359650284052,1.236242480110377,1.3721787668764591,0.0,zibja,pseudo,lowbf
112,179,112,faqir,fa,aq,qi,ir,f,a,q,i,r,,1.0641992799937725,1.2162026148289442,1.5681332759559155,1.9041835209354758,2.0242786020971835,0.0,faqir,lowwf,lowbf
113,179,113,kremp,kr,re,em,mp,k,r,e,m,p,,0.6760994018986821,0.7721942840144038,0.8600845369510353,0.940165261272341,1.0920741041190922,0.0,kremp,pseudo,medbf
114,179,114,buddy,bu,ud,dd,dy,b,u,d,d,y,,0.7125704810023308,0.9525815169326961,1.1526412488892674,1.288595617748797,1.3925167876295745,0.0,buddy,highwf,lowbf
115,179,115,vanru,va,an,nr,ru,c,v,a,n,r,u,0.8443958517163992,0.8443958517163992,1.4283956540748477,1.572361548896879,1.7643271731212735,1.8922554650343955,cvanru,pseudo,medbf
116,179,116,champ,ch,ha,am,mp,c,h,a,m,p,,0.7603932903148234,0.8564610010944307,0.9603265402838588,1.07233410095796,1.1923627681098878,0.0,champ,medwf,medbf
117,179,117,cheer,ch,he,ee,er,c,h,e,e,r,,0.7963284100405872,0.9883239660412073,1.2284314003773034,1.3723807041533291,1.5004098461940885,0.0,cheer,medwf,highbf
118,179,118,think,th,hi,in,nk,t,h,i,n,k,,0.7284576157107949,0.7763776360079646,0.8804466966539621,1.07251642877236,1.2324001085944474,0.0,think,highwf,highbf
119,179,119,belly,be,el,ll,ly,b,e,l,l,y,,0.6364450277760625,0.7963708639144897,0.9563402710482478,1.0842990637756884,1.3243932877667248,0.0,belly,medwf,medbf
120,179,120,haole,ha,ao,ol,le,h,a,o,l,e,,1.0423746788874269,1.1623583449982107,1.2263929238542914,1.4182882588356733,1.5383795727975667,0.0,haole,lowwf,medbf
121,179,121,there,th,he,er,re,t,h,e,r,e,,0.5958574106916785,0.6678760279901326,0.7958992957137525,0.867970653809607,0.9799710516817868,0.0,there,highwf,highbf
122,179,122,think,th,hi,in,nk,t,h,i,n,k,,0.5919876187108457,0.6399522158317268,0.7598761920817196,0.9280116800218821,1.111961015034467,0.0,think,highwf,highbf
123,179,123,tithe,ti,it,th,he,t,i,t,h,e,,0.6172092398628592,0.9931504959240556,1.313212312757969,1.473133962135762,1.6252939407713711,0.0,tithe,lowwf,highbf
124,179,124,druze,dr,ru,uz,ze,d,r,u,z,e,,1.112205175217241,1.3600340182892978,1.5680410251952708,1.696045792195946,1.8561958950012922,0.0,druze,lowwf,lowbf
125,179,125,heond,he,eo,on,nd,h,e,o,n,d,,0.7480605598539114,0.8281922377645969,0.9400690458714962,1.0680435779504478,1.2361742476932704,0.0,heond,pseudo,highbf
126,179,126,would,wo,ou,ul,ld,w,o,u,l,d,,0.6318203555420041,0.7278450517915189,0.8238412286154926,1.0078259948641062,1.1518217278644443,0.0,would,highwf,medbf
127,179,127,pykka,py,yk,kk,ka,p,y,k,k,a,,0.6994396606460214,0.8195118587464094,1.1634345958009362,1.2914343317970634,1.4275183868594468,0.0,pykka,pseudo,lowbf
128,179,128,heond,he,eo,on,nd,h,e,o,n,d,,0.5922390180639923,0.7361861760728061,0.8162247529253364,0.9522190010175109,1.1841135551221669,0.0,heond,pseudo,highbf
129,179,129,about,ab,bo,ou,ut,a,b,o,u,t,,0.6681094411760569,0.7959869639016688,0.9719918789342046,1.0999802588485181,1.2519990471191704,0.0,about,highwf,medbf
130,179,130,edthe,ed,dt,th,he,e,d,t,h,e,,0.695796174928546,0.9278092877939343,1.1038673887960613,1.2078399839811027,1.3359066206030548,0.0,edthe,pseudo,highbf
131,179,131,puppy,pu,up,pp,py,p,u,p,p,y,,0.6521008592098951,0.772159319370985,1.0440477752126753,1.2121301852166653,1.332141921389848,0.0,puppy,medwf,lowbf
132,179,132,belly,be,el,ll,ly,b,e,l,l,y,,0.6560261650010943,0.8401169390417635,1.0879438603296876,1.2320393710397184,1.432065101340413,0.0,belly,medwf,medbf
133,179,133,kremp,kr,re,em,mp,k,r,e,m,p,,0.6119540170766413,0.7719217599369586,0.899916647002101,0.9559337529353797,1.1238761879503727,0.0,kremp,pseudo,medbf
134,179,134,haole,ha,ao,ol,le,h,a,o,l,e,,0.8400462209247053,0.983961961697787,1.1120631229132414,1.3520812108181417,1.4801285779103637,0.0,haole,lowwf,medbf
135,179,135,edthe,ed,dt,th,he,e,d,t,h,e,,0.6199425971135497,0.843824153766036,1.0838147937320173,1.1878816150128841,1.3078924557194114,0.0,edthe,pseudo,highbf
136,179,136,would,wo,ou,ul,ld,w,o,u,l,d,,0.6720038959756494,0.7200141423381865,0.9280524691566825,1.143887388985604,1.2878848402760923,0.0,would,highwf,medbf
137,179,137,cooed,co,oo,oe,ed,c,o,o,e,d,,1.0678309751674533,1.3159590042196214,1.4598574470728636,1.5639564939774573,1.827909897081554,0.0,cooed,lowwf,medbf
138,179,138,lucky,lu,uc,ck,ky,l,u,c,k,y,,0.5678460393100977,0.7758125639520586,1.0158700603060424,1.1519217309542,1.3598320102319121,0.0,lucky,highwf,lowbf
139,179,139,druze,dr,ru,uz,ze,d,r,u,z,e,,0.6921518188901246,0.8440129510127008,0.9881345396861434,1.1480354946106672,1.3001297609880567,0.0,druze,lowwf,lowbf
140,179,140,therm,th,he,er,rm,t,h,e,r,m,,0.6399176167324185,0.759860266931355,0.9039567010477185,0.9999663280323148,1.1039681038819253,0.0,therm,lowwf,highbf
141,179,141,zibja,zi,ib,bj,ja,z,u,b,j,a,,0.699935573618859,0.8759732986800373,1.1158575918525457,1.3558966829441488,1.4678495526313782,0.0,zubja,pseudo,lowbf
142,179,142,vodka,vo,od,dk,ka,v,o,d,k,a,,1.1202056570909917,1.3601267170161009,1.5522073712199926,1.6881640581414104,1.8321633823215961,0.0,vodka,medwf,lowbf
143,179,143,kremp,kr,re,em,mp,k,r,e,m,p,,0.6600152729079127,0.7960112881846726,0.9001174941658974,0.9880134109407663,1.1080192709341645,0.0,kremp,pseudo,medbf
144,179,144,buddy,bu,ud,dd,dy,b,u,d,d,y,,0.7117950259707868,0.9756872160360217,1.1596969780512154,1.319894275162369,1.431815193966031,0.0,buddy,highwf,lowbf
145,179,145,champ,ch,ha,am,mp,c,h,a,m,p,,0.7320032748393714,0.8279893710277975,0.9879607786424458,1.0760044930502772,1.187939910683781,0.0,champ,medwf,medbf
146,179,146,about,ab,bo,ou,ut,a,b,o,u,t,,0.6159522607922554,0.7518501477316022,0.9198852218687534,1.0319178448989987,1.2079735337756574,0.0,about,highwf,medbf
147,179,147,cheer,ch,he,ee,er,c,h,e,e,r,,0.6116953021846712,0.747639783192426,0.9557568551972508,1.1237582373432815,1.2596338014118373,0.0,cheer,medwf,highbf
148,179,148,think,th,hi,in,nk,t,h,i,n,k,,0.6078181103803217,0.6956750173121691,0.7997492691501975,0.9676650580950081,1.127761045936495,0.0,think,highwf,highbf
149,179,149,druze,dr,ru,uz,ze,d,r,u,z,e,,0.7958380142226815,0.9799123462289572,1.1639072629623115,1.307941973209381,1.427954480983317,0.0,druze,lowwf,lowbf
150,179,150,vanru,va,an,nr,ru,v,a,n,r,u,,0.8797648986801505,1.015830528922379,1.1997786457650363,1.3278425079770386,1.5118149579502642,0.0,vanru,pseudo,medbf
151,179,151,zibja,zi,ib,bj,ja,z,i,b,j,a,,0.8517977106384933,1.011790211778134,1.2197611760348082,1.5877069826237857,1.7797811520285904,0.0,zibja,pseudo,lowbf
152,179,152,belly,be,el,ll,ly,b,e,l,l,y,,0.6716052778065205,0.8237219769507647,0.975762777030468,1.1197331841103733,1.2716637509875,0.0,belly,medwf,medbf
153,179,153,about,ab,bo,ou,ut,a,b,o,u,t,,0.6118003884330392,0.7158236773684621,0.8837024583481252,0.971876681316644,1.1237289430573583,0.0,about,highwf,medbf
154,179,154,champ,ch,ha,am,mp,c,h,a,m,p,,0.7036947892047465,0.8076473311521113,0.9516937993466854,1.055706332437694,1.1835828311741352,0.0,champ,medwf,medbf
155,179,155,pykka,py,yk,kk,ka,p,y,k,k,a,,0.6758921556174755,0.803976196795702,1.1159614818170667,1.259863018989563,1.4119524918496609,0.0,pykka,pseudo,lowbf
156,179,156,there,th,he,er,re,t,h,e,r,e,,0.6639770502224565,0.8159636589698493,0.9678574549034238,1.0558611522428691,1.1838335562497377,0.0,there,highwf,highbf
157,179,157,think,th,hi,in,nk,t,h,i,n,k,,0.5958677702583373,0.7319011250510812,0.8278348622843623,1.0119337169453502,1.195787976961583,0.0,think,highwf,highbf
158,179,158,there,th,he,er,re,t,h,e,r,e,,0.5359437400475144,0.6718588741496205,0.7838373710401356,0.8798902733251452,0.9998868401162326,0.0,there,highwf,highbf
159,179,159,zibja,zi,ib,bj,ja,z,i,b,j,a,,0.8195283617824316,0.9394304468296468,1.1394289401359856,1.379481424111873,1.4914319720119238,0.0,zibja,pseudo,lowbf
160,179,160,therm,th,he,er,rm,t,h,e,r,m,,0.5919124488718808,0.7038066647946835,0.8158627538941801,0.8957525589503348,1.0557789551094174,0.0,therm,lowwf,highbf
161,179,161,puppy,pu,up,pp,py,p,u,p,p,y,,0.7077121650800109,0.8437348799780011,1.179698129184544,1.3477362738922238,1.491803864017129,0.0,puppy,medwf,lowbf
162,179,162,there,th,he,er,re,h,e,r,e,,,0.7436954076401889,1.1757438089698553,1.2956842640414834,1.4237842569127679,0.0,0.0,here,highwf,highbf
163,179,163,vodka,vo,od,dk,ka,v,o,d,k,a,,0.907730364240706,1.083607076201588,1.5956148602999747,1.7717591249383986,1.939755659084767,0.0,vodka,medwf,lowbf
164,179,164,vanru,va,an,nr,ru,v,a,n,r,u,,0.9676143550314009,1.1036844719201326,1.3197333859279752,1.4797578998841345,1.6557747917249799,0.0,vanru,pseudo,medbf
165,179,165,kremp,kr,re,em,mp,k,r,e,m,p,,0.6437015254050493,0.7717722891829908,0.8676128061488271,0.9477147874422371,1.091697643045336,0.0,kremp,pseudo,medbf
166,179,166,zibja,zi,ib,bj,ja,z,i,b,j,a,,0.7995261210016906,1.2155114230699837,1.495405632071197,1.7514373413287103,1.871539541054517,0.0,zibja,pseudo,lowbf
167,179,167,heond,he,eo,on,nd,h,e,o,n,d,,0.7397264051251113,0.843649361282587,0.9797014030627906,1.1157258013263345,1.307819141075015,0.0,heond,pseudo,highbf
168,179,168,buddy,bu,ud,dd,dy,b,u,d,d,y,,0.6558339199982584,0.9198144660331309,1.1117901839315891,1.2638116138987243,1.3918145010247827,0.0,buddy,highwf,lowbf
169,179,169,vanru,va,an,nr,ru,v,a,n,r,u,,0.747728421818465,0.8676622579805553,1.0357732251286507,1.2197740110568702,1.4197810790501535,0.0,vanru,pseudo,medbf
170,179,170,faqir,fa,aq,qi,ir,f,a,q,i,r,,0.8956905859522521,1.0157861188054085,1.2157782828435302,1.415772985201329,1.5596796600148082,0.0,faqir,lowwf,lowbf
171,179,171,theme,th,he,em,me,t,h,e,m,e,,0.6039041243493557,0.7399599212221801,0.9079082319512963,1.035946102347225,1.1799878613092005,0.0,theme,medwf,highbf
172,179,172,champ,ch,ha,am,mp,c,a,m,p,,,0.6718329950235784,0.7836928348988295,0.8797097378410399,1.039767986163497,0.0,0.0,camp,medwf,medbf
173,179,173,puppy,pu,up,pp,py,p,u,p,p,y,,0.6515176789835095,1.0275327563285828,1.2434290903620422,1.3794987662695348,1.5155583722516894,0.0,puppy,medwf,lowbf
174,179,174,would,wo,ou,ul,ld,w,o,u,l,d,,0.6475425232201815,0.7516404571942985,0.855554539244622,1.0475684711709619,1.2636329741217196,0.0,would,highwf,medbf
175,179,175,lucky,lu,uc,ck,ky,l,u,c,k,y,,0.6355996229685843,0.771533811930567,0.9875347968190908,1.4835213287733495,1.7795216818340123,0.0,lucky,highwf,lowbf
176,179,176,therm,th,he,er,rm,t,h,e,r,m,,0.7358385510742664,0.8797327009961009,1.0877960100769997,1.2078366870991886,1.351724128704518,0.0,therm,lowwf,highbf
177,179,177,about,ab,bo,ou,ut,a,b,o,u,t,,0.6915780501440167,0.8355863462202251,1.0357063291594386,1.0996350613422692,1.2756081642583013,0.0,about,highwf,medbf
178,179,178,belly,be,el,ll,ly,b,e,l,l,y,,0.6155857881531119,0.7355325152166188,0.9036051519215107,1.0235312320291996,1.2156243431381881,0.0,belly,medwf,medbf
179,179,179,edthe,ed,dt,th,he,e,d,t,h,e,,0.6354365390725434,0.8514032149687409,1.0513075892813504,1.1713855611160398,1.331354670226574,0.0,edthe,pseudo,highbf
180,179,180,heond,he,eo,on,nd,h,e,o,n,d,,0.7916322899982333,0.895592596847564,1.0075590987689793,1.1595579320564866,1.375584959052503,0.0,heond,pseudo,highbf
181,179,181,lucky,lu,uc,ck,ky,l,u,c,k,y,,0.5877654124051332,0.7477443492971361,0.9877572180703282,1.1157963462173939,1.3317400612868369,0.0,lucky,highwf,lowbf
182,179,182,cooed,co,oo,oe,ed,c,o,o,e,d,,1.127675263211131,1.4075910090468824,1.567581806331873,1.66369290323928,1.9036694900132716,0.0,cooed,lowwf,medbf
183,179,183,tithe,ti,it,th,he,t,i,t,h,e,,0.7957784961909056,0.9158044969663024,1.0437402199022472,1.1877955170348287,1.3558120280504227,0.0,tithe,lowwf,highbf
184,179,184,haole,ha,ao,ol,le,h,a,o,l,e,,0.6636584028601646,0.8316807812079787,0.9516619830392301,1.2077298732474446,1.3197038332000375,0.0,haole,lowwf,medbf
185,179,185,belly,be,el,ll,ly,b,e,l,l,y,,0.7875599930994213,0.9715576497837901,1.1235546567477286,1.235560174100101,1.4594459948129952,0.0,belly,medwf,medbf
186,179,186,cheer,ch,he,ee,er,c,h,e,e,r,,0.7675595385953784,0.9116431148722768,1.159584516659379,1.3116283267736435,1.471636498812586,0.0,cheer,medwf,highbf
187,179,187,lucky,lu,uc,ck,ky,l,u,c,k,y,,0.611510697286576,0.7715184153057635,0.995505687315017,1.1474537029862404,1.5235266322270036,0.0,lucky,highwf,lowbf
188,179,188,there,th,he,er,re,t,h,e,r,e,,0.6314683207310736,0.7674217247404158,0.9114777809008956,1.015508744865656,1.119484796654433,0.0,there,highwf,highbf
189,179,189,cooed,co,oo,oe,ed,c,o,o,e,d,,0.85152552369982,1.0835337778553367,1.243472863920033,1.3395695476792753,1.6115415100939572,0.0,cooed,lowwf,medbf
190,179,190,therm,th,he,er,rm,t,h,e,r,m,,0.5676495372317731,0.7197313238866627,0.8317736862227321,0.9596504340879619,1.0956697510555387,0.0,therm,lowwf,highbf
191,179,191,would,wo,ou,ul,ld,w,o,u,l,d,,0.7556761442683637,0.8836821662262082,0.9956079283729196,1.1717383852228522,1.4036905663087964,0.0,would,highwf,medbf
192,179,192,vanru,va,an,nr,ru,v,a,n,r,u,,0.8073649890720844,0.9432546971365809,1.119367036037147,1.2233230429701507,1.4073742623440921,0.0,vanru,pseudo,medbf
193,179,193,edthe,ed,dt,th,he,e,t,h,e,,,0.707194178365171,1.0511575262062252,1.7791076130233705,1.9071497963741422,0.0,0.0,ethe,pseudo,highbf
194,179,194,kremp,kr,re,em,mp,k,r,e,m,p,,0.6634953371249139,0.7754726759158075,0.8875290700234473,0.9035191801376641,1.0634895279072225,0.0,kremp,pseudo,medbf
195,179,195,pykka,py,yk,kk,ka,p,y,k,k,a,,0.7555208699777722,0.8675287938676775,1.1875249091535807,1.3235954539850354,1.5155894528143108,0.0,pykka,pseudo,lowbf
196,179,196,haole,ha,ao,ol,le,h,a,o,l,e,,0.7113693109713495,0.8313335021957755,0.9272701572626829,1.1432776432484388,1.2633350729011,0.0,haole,lowwf,medbf
197,179,197,faqir,fa,aq,qi,ir,f,a,q,i,r,,0.6917332019656897,0.8117338167503476,1.1877326439134777,1.6436225050128996,1.7717371177859604,0.0,faqir,lowwf,lowbf
198,179,198,pykka,py,yk,kk,ka,p,y,u,k,k,a,0.911450476385653,1.0714804893359542,1.0793717834167182,1.7195194093510509,1.8874350492842495,1.9673567581921816,pyukka,pseudo,lowbf
199,179,199,faqir,fa,aq,qi,ir,f,a,q,i,r,,0.7154453438706696,0.8593097347766161,1.2673101918771863,1.9953993167728186,2.0913040288724005,0.0,faqir,lowwf,lowbf
200,179,200,therm,th,he,er,rm,t,h,e,r,m,,0.6472926209680736,0.7672353028319776,0.9113456448540092,1.0312980338931084,1.1353590600192547,0.0,therm,lowwf,highbf
201,179,201,puppy,pu,up,pp,py,p,y,p,p,t,,0.763424607925117,0.9234595508314669,1.1874451716430485,1.3394519896246493,1.5234023709781468,0.0,pyppt,medwf,lowbf
202,179,202,theme,th,he,em,me,t,h,e,m,e,,0.6233845208771527,0.7114183679223061,0.8554913098923862,0.9994361060671508,1.1994314980693161,0.0,theme,medwf,highbf
203,179,203,cooed,co,oo,oe,ed,c,o,o,e,d,,0.9072696729563177,1.139269354287535,1.2992532821372151,1.4032798819243908,1.6671518282964826,0.0,cooed,lowwf,medbf
204,179,204,belly,be,el,ll,ly,b,e,l,l,y,,0.7592723020352423,0.9513789233751595,1.0633494681678712,1.1913509611040354,1.3912749360315502,0.0,belly,medwf,medbf
205,179,205,buddy,bu,ud,dd,dy,b,u,d,d,y,,0.6197418500669301,0.9236505189910531,1.2037652200087905,1.3716430277563632,1.499732033815235,0.0,buddy,highwf,lowbf
206,179,206,vodka,vo,od,dk,ka,v,o,d,k,a,,1.0635656099766493,1.21556564187631,1.4155413620173931,1.9116043741814792,2.079488379880786,0.0,vodka,medwf,lowbf
207,179,207,cheer,ch,he,ee,er,c,h,e,e,r,,0.7152677956037223,0.9072292656637728,1.195400467608124,1.3472850397229195,1.4753088876605034,0.0,cheer,medwf,highbf
208,179,208,theme,th,he,em,me,t,h,e,m,e,,0.6555836941115558,0.7756314338184893,0.9115974307060242,1.047573466785252,1.2075707339681685,0.0,theme,medwf,highbf
209,179,209,druze,dr,ru,uz,ze,d,r,u,z,e,,0.739543482195586,0.9154916112311184,1.0755650703795254,1.2195736709982157,1.3475883789360523,0.0,druze,lowwf,lowbf
210,179,210,think,th,hi,in,nk,t,h,i,n,k,,0.6314366739243269,0.7194654997438192,0.8154582977294922,0.9994987808167934,1.1673889900557697,0.0,think,highwf,highbf
211,179,211,edthe,ed,dt,th,he,e,d,t,h,e,,0.691537322010845,0.9394838339649141,1.1474522780627012,1.283517966978252,1.4115453651174903,0.0,edthe,pseudo,highbf
212,179,212,vanru,va,an,nr,ru,v,a,n,r,u,,0.9673933768644929,1.0954782189801335,1.2714827978052199,1.4313993346877396,1.5995065979659557,0.0,vanru,pseudo,medbf
213,179,213,druze,dr,ru,uz,ze,d,r,u,z,e,,0.7312477030791342,0.8912778780795634,1.0272600171156228,1.1953115407377481,1.3393062558025122,0.0,druze,lowwf,lowbf
214,179,214,buddy,bu,ud,dd,dy,b,u,d,d,y,,1.0154168880544603,1.2634138809517026,1.4554642499424517,1.5914247282780707,1.711441915947944,0.0,buddy,highwf,lowbf
215,179,215,cheer,ch,he,ee,er,c,h,e,e,r,,0.9392617959529161,1.0671905153430998,1.33118334133178,1.4752860539592803,1.5952513441443443,0.0,cheer,medwf,highbf
216,179,216,tithe,ti,it,th,he,t,i,t,h,e,,0.69531384203583,0.8232528637163341,0.9272615071386099,1.0713538341224194,1.2392689138650894,0.0,tithe,lowwf,highbf
217,179,217,vodka,vo,od,dk,ka,v,o,d,k,a,,0.7393907196819782,0.9233828186988831,1.395415980834514,1.507394511718303,1.6592650706879795,0.0,vodka,medwf,lowbf
218,179,218,would,wo,ou,ul,ld,w,o,u,l,d,,0.6151540619321167,0.7192065897397697,0.8151620170101523,0.9991933437995613,1.151093244086951,0.0,would,highwf,medbf
219,179,219,think,th,hi,in,nk,t,h,i,n,k,,0.6431329431943595,0.7152185030281544,0.8191990260966122,1.003236731979996,1.1711123860441148,0.0,think,highwf,highbf
220,179,220,lucky,lu,uc,ck,ky,l,u,c,k,y,,0.6474070297554135,0.783374912571162,1.0313663547858596,1.1433092677034438,1.367347862571478,0.0,lucky,highwf,lowbf
221,179,221,buddy,bu,ud,dd,dy,b,u,d,d,y,,0.6913207811303437,0.9472926598973572,1.1873375019058585,1.347312050871551,1.4432315500453115,0.0,buddy,highwf,lowbf
222,179,222,pykka,py,yk,kk,ka,p,y,k,k,a,,0.663358966819942,0.7834321861155331,1.1114556430839002,1.247386410832405,1.4233322348445654,0.0,pykka,pseudo,lowbf
223,179,223,heond,he,eo,on,nd,h,e,o,n,d,,0.6594152869656682,0.7714390316978097,0.8594379867427051,0.9954987727105618,1.2594244186766446,0.0,heond,pseudo,highbf
224,179,224,about,ab,bo,ou,ut,a,b,o,u,t,,0.7195472377352417,0.8314656368456781,1.007542028091848,1.0955551341176033,1.2794457199051976,0.0,about,highwf,medbf
225,179,225,tithe,ti,it,th,he,t,i,t,h,e,,0.699383020401001,0.8432252230122685,1.0432323440909386,1.1633310969918966,1.3153023612685502,0.0,tithe,lowwf,highbf
226,179,226,champ,ch,ha,am,mp,c,h,a,m,p,,0.6712401579134166,0.7752915010787547,0.9271709369495511,1.015282860957086,1.1592005928978324,0.0,champ,medwf,medbf
227,179,227,cooed,co,oo,oe,ed,c,o,o,e,d,,0.8833175683394074,1.0833081509917974,1.2353117833845317,1.3472740310244262,1.5953494212590158,0.0,cooed,lowwf,medbf
228,179,228,haole,ha,ao,ol,le,h,a,o,l,e,,0.7272510002367198,0.8473363998346031,0.9272594870999455,1.1753423968330026,1.3033837750554085,0.0,haole,lowwf,medbf
229,179,229,theme,th,he,em,me,t,h,e,m,e,,0.6593698509968817,0.7632087152451277,0.9073352320119739,1.0432283030822873,1.2672204952687025,0.0,theme,medwf,highbf
230,179,230,vodka,vo,od,dk,ka,v,o,d,k,a,,0.8710918626748025,1.0391653985716403,1.3430978269316256,1.5112104779109359,1.7032066597603261,0.0,vodka,medwf,lowbf
231,179,231,champ,ch,ha,am,mp,c,h,a,m,p,,0.6835294277407229,0.7795128640718758,0.9234536099247634,1.0274507058784366,1.1475545857101679,0.0,champ,medwf,medbf
232,179,232,puppy,pu,up,pp,py,p,y,p,p,y,,0.6236807890236378,0.7597149889916182,1.0476970369927585,1.183609729167074,1.3356212759390473,0.0,pyppy,medwf,lowbf
233,179,233,zibja,zi,ib,bj,ja,z,i,b,j,a,,0.8591633490286767,0.9790890011936426,1.2111376971006393,1.4351129452697933,1.5471466719172895,0.0,zibja,pseudo,lowbf
234,179,234,faqir,fa,aq,qi,ir,f,a,q,i,r,,0.7430971786379814,0.8791016708128154,1.2232030327431858,1.591105876956135,1.7351869526319206,0.0,faqir,lowwf,lowbf
235,179,235,kremp,kr,re,em,mp,k,r,e,m,p,,0.6994166979566216,0.8114482909440994,0.9393782089464366,0.9954146160744131,1.171381841879338,0.0,kremp,pseudo,medbf
236,179,236,tithe,ti,it,th,he,t,i,t,h,e,,0.6633228491991758,0.7512968140654266,0.8953511961735785,1.0153633132576942,1.1912959073670208,0.0,tithe,lowwf,highbf
237,179,237,faqir,fa,aq,qi,ir,f,a,q,i,r,,0.7231973242014647,0.947238459251821,1.427115370053798,1.8352333600632846,1.9631927241571248,0.0,faqir,lowwf,lowbf
238,179,238,cheer,ch,he,ee,er,c,h,e,e,r,,0.7111855000257492,0.8631718847900629,1.1830929247662425,1.3190558678470552,1.463092495687306,0.0,cheer,medwf,highbf
239,179,239,theme,th,he,em,me,t,h,e,m,e,,0.611157507635653,0.6992020816542208,0.8351844726130366,0.9631066638976336,1.139238144736737,0.0,theme,medwf,highbf
