,sID,Trial #,string,bi_1,bi_2,bi_3,bi_4,key_resp.keys.1,key_resp.keys.2,key_resp.keys.3,key_resp.keys.4,key_resp.keys.5,key_resp.keys.6,key_resp.keys.7,key_resp.rt.1,key_resp.rt.2,key_resp.rt.3,key_resp.rt.4,key_resp.rt.5,key_resp.rt.6,key_resp.rt.7,resp_string,WF Type,BF Type
0,s181,0,buddy,bu,ud,dd,dy,b,u,d,d,y,,,1.1917982809827663,1.30374883802142,1.3918640210176818,1.5197689380147494,1.6158825980382971,0.0,0.0,buddy,highwf,
1,s181,1,lucky,lu,uc,ck,ky,l,u,c,k,y,,,0.6739760909695178,0.8499270099564455,0.9619926209561527,1.0659702839911915,1.2419860309455544,0.0,0.0,lucky,highwf,
2,s181,2,would,wo,ou,ul,ld,w,o,u,l,d,,,0.6861748379888013,0.8060615760041401,0.8701186370453797,1.0141495279967785,1.0861285470309667,0.0,0.0,would,highwf,
3,s181,3,edthe,ed,dt,th,he,e,d,t,h,e,,,0.922039486002177,1.0819686310132965,1.290005379007198,1.417921471002046,1.5059337239945307,0.0,0.0,edthe,pseudo,
4,s181,4,heond,he,eo,on,nd,h,e,o,n,d,,,1.006052584038116,1.1099598259897903,1.270053098036442,1.6300421970081516,1.774038408009801,0.0,0.0,heond,pseudo,
5,s181,5,vanru,va,an,nr,ru,v,a,n,r,u,,,1.2337978379800916,1.321876086993143,1.4177995159989223,1.5299354110029526,1.6419772650115192,0.0,0.0,vanru,pseudo,
6,s181,6,there,th,he,er,re,t,h,e,r,e,,,0.7018594319815747,0.7898316420032643,0.8538030189811252,0.925733046955429,1.0138630119618028,0.0,0.0,there,highwf,
7,s181,7,pykka,py,yk,kk,ka,p,y,k,k,a,,,0.9855729240225628,1.1934618210070767,1.8174537990125827,1.9375600140192546,2.0335358799784444,0.0,0.0,pykka,pseudo,
8,s181,8,theme,th,he,em,me,t,h,e,m,e,,,0.7174704589997418,0.7895293619949371,0.8775349500356242,0.9895508220070042,1.053614433039911,0.0,0.0,theme,medwf,
9,s181,9,haole,ha,ao,ol,le,h,a,o,l,e,,,0.8413882129825652,0.9374083139700815,1.1053452090127394,1.281297640001867,1.3852857400197536,0.0,0.0,haole,lowwf,
10,s181,10,there,th,he,er,re,t,h,e,r,e,,,0.6691750980098732,0.7412370269885287,0.8052338099805638,0.8852271820069291,0.9651661880197935,0.0,0.0,there,highwf,
11,s181,11,cooed,co,oo,oe,ed,c,o,o,e,d,,,0.801137775008101,0.9692462740349583,1.09721196902683,1.2011210540076718,1.3532580350292847,0.0,0.0,cooed,lowwf,
12,s181,12,champ,ch,ha,am,mp,c,h,a,m,p,,,0.7172200359636918,0.7972807429614477,0.8693394970032386,0.9812664809869602,1.117216193000786,0.0,0.0,champ,medwf,
13,s181,13,buddy,bu,ud,dd,dy,b,u,d,d,y,,,0.9534749999875203,1.0574128690059297,1.1534392230096273,1.2813687219750136,1.393373741011601,0.0,0.0,buddy,highwf,
14,s181,14,faqir,fa,aq,qi,ir,f,a,q,i,r,,,0.9011631850153208,0.9810740970424376,1.2370720710023306,1.6050712460419163,1.7410703930072486,0.0,0.0,faqir,lowwf,
15,s181,15,therm,th,he,er,rm,t,h,e,r,m,,,0.793111052014865,0.9051918309996836,0.9771114100003615,1.057234428008087,1.193116600974463,0.0,0.0,therm,lowwf,
16,s181,16,zibja,zi,ib,bj,ja,z,i,b,j,a,,,1.1188185960054398,1.2787744450033642,1.478741629049182,1.8867229649913497,1.982823949016165,0.0,0.0,zibja,pseudo,
17,s181,17,think,th,hi,in,nk,t,h,i,n,k,,,0.6574415710056201,0.7215476040146314,0.8338237199932337,0.9615263710147701,1.0254314260091633,0.0,0.0,think,highwf,
18,s181,18,lucky,lu,uc,ck,ky,l,u,c,k,y,,,0.707088636001572,0.883114613010548,0.9231244700495154,1.05908067204291,1.251170989999082,0.0,0.0,lucky,highwf,
19,s181,19,puppy,pu,up,pp,py,p,u,p,p,y,,,0.8248067350359634,0.9688054540310986,1.1448244969942607,1.2647556090378202,1.4247962409863248,0.0,0.0,puppy,medwf,
20,s181,20,champ,ch,ha,am,mp,c,h,a,m,p,,,0.644511535007041,0.7244744120398536,0.804537064046599,0.908609182049986,1.0285705650458112,0.0,0.0,champ,medwf,
21,s181,21,cooed,co,oo,oe,ed,c,o,o,e,d,,,0.7124448359827511,0.856531556986738,0.9764192729489878,1.056538056989666,1.208577475976199,0.0,0.0,cooed,lowwf,
22,s181,22,kremp,kr,re,em,mp,k,r,e,m,p,,,1.0845366080175154,1.172544781002216,1.2526055140187964,1.3405451300204732,1.460518862993922,0.0,0.0,kremp,pseudo,
23,s181,23,belly,be,el,ll,ly,b,e,l,l,y,,,0.7925499060074799,0.8564543959801085,0.9684288559947163,1.0965435940306634,1.248481502989307,0.0,0.0,belly,medwf,
24,s181,24,theme,th,he,em,me,t,h,e,m,e,,,0.6603869820246473,0.7403709689970128,0.8205065280199051,0.9244916400057264,0.9964781239978038,0.0,0.0,theme,medwf,
25,s181,25,edthe,ed,dt,th,he,e,d,t,h,e,,,0.7923505819635466,0.9603273579850793,1.1124030459905043,1.2084157099598087,1.272401602996979,0.0,0.0,edthe,pseudo,
26,s181,26,therm,th,he,er,rm,t,h,e,r,m,,,0.692317143024411,0.756362161017023,0.8523335960344411,0.9244404220371507,1.0043575830059126,0.0,0.0,therm,lowwf,
27,s181,27,tithe,ti,it,th,he,t,i,t,h,e,,,0.7685726819909178,0.8565246830112301,0.9366330479970202,1.0245150679838844,1.088541958015412,0.0,0.0,tithe,lowwf,
28,s181,28,pykka,py,yk,kk,ka,p,y,k,k,a,,,0.9961932079750113,1.188199786003679,1.5241960639832541,1.6523205299745314,1.7562071779975668,0.0,0.0,pykka,pseudo,
29,s181,29,about,ab,bo,ou,ut,a,b,o,u,t,,,0.6567036839551292,0.7526766189839691,0.8966856729821302,0.9287190839531831,1.0326691700029187,0.0,0.0,about,highwf,
30,s181,30,theme,th,he,em,me,t,h,e,m,e,,,0.6206331580178812,0.7086534870322794,0.7806564530474134,0.8926134959910996,0.9406660890090279,0.0,0.0,theme,medwf,
31,s181,31,cheer,ch,he,ee,er,c,h,e,e,r,,,0.624555499991402,0.7124673899961635,0.8085587329696864,0.9365722559741698,1.0724914079764858,0.0,0.0,cheer,medwf,
32,s181,32,lucky,lu,uc,ck,ky,l,u,c,k,y,,,0.6764518119744025,0.844558116979897,0.9004545909701847,1.0285236630006693,1.1964729169849306,0.0,0.0,lucky,highwf,
33,s181,33,therm,th,he,er,rm,t,h,e,r,m,,,0.6565854320069775,0.7365303669939749,0.8245889649842866,0.8885500530013815,1.0004595100181177,0.0,0.0,therm,lowwf,
34,s181,34,puppy,pu,up,pp,py,p,u,p,p,y,,,0.6923127140034921,0.8202784369932488,0.9563728410284966,1.0923038650071248,1.2523560670088045,0.0,0.0,puppy,medwf,
35,s181,35,heond,he,eo,on,nd,h,e,o,n,d,,,0.992341058969032,1.0883298059925437,1.2084104579989798,1.4083899439428933,1.504339334962424,0.0,0.0,heond,pseudo,
36,s181,36,vodka,vo,od,dk,ka,v,o,d,k,a,,,1.1806120859691873,1.2604723239783198,1.3724864440155216,1.7405520919710398,1.828528079960961,0.0,0.0,vodka,medwf,
37,s181,37,belly,be,el,ll,ly,b,e,l,l,y,,,0.704522278974764,0.7685752579709515,0.8805643209489062,1.0004511719453149,1.1604628309723921,0.0,0.0,belly,medwf,
38,s181,38,druze,dr,ru,uz,ze,d,r,u,z,e,,,0.9003044220153242,0.9723242460167967,1.1324055260047317,1.4524489680188708,1.6603183019906282,0.0,0.0,druze,lowwf,
39,s181,39,champ,ch,ha,am,mp,c,h,a,m,p,,,0.6802446920191869,0.752254388993606,0.8402094169869088,0.9363209780422039,1.048204844002612,0.0,0.0,champ,medwf,
40,s181,40,cheer,ch,he,ee,er,c,h,e,e,r,,,0.660336249973625,0.7563433839823119,0.8444486910011619,0.9804095639847219,1.108465833007358,0.0,0.0,cheer,medwf,
41,s181,41,faqir,fa,aq,qi,ir,f,a,q,i,r,,,0.7926191759761423,0.9045969590079039,1.1765896530123428,1.4967012779670767,1.7206696659559384,0.0,0.0,faqir,lowwf,
42,s181,42,tithe,ti,it,th,he,t,h,i,t,h,e,,0.6844793420168571,0.7645457980106585,1.628568243002519,1.7725938759976998,1.8845359290135093,1.9405911240028217,0.0,thithe,lowwf,
43,s181,43,theme,th,he,em,me,t,h,e,m,e,,,0.6157592529780231,0.7037930419901386,0.7836388599826023,0.9118287429446355,0.9518063309951685,0.0,0.0,theme,medwf,
44,s181,44,therm,th,he,er,rm,t,h,e,r,m,,,0.6998361090081744,0.7877300420077518,0.8677120170323178,0.9318259910214692,1.0597231769934297,0.0,0.0,therm,lowwf,
45,s181,45,think,th,hi,in,nk,t,h,i,n,k,,,0.6237996299751103,0.6957795899943449,0.8078970419592224,0.919838459987659,1.0478311659535393,0.0,0.0,think,highwf,
46,s181,46,puppy,pu,up,pp,py,p,u,p,p,y,,,0.6837977639515884,0.8278422349831089,1.0118478299700655,1.1238674229825847,1.331830650975462,0.0,0.0,puppy,medwf,
47,s181,47,faqir,fa,aq,qi,ir,f,q,a,q,i,e,r,0.7676331149996258,0.9836149910115637,1.8637177830096334,2.0556926640565507,2.2476967210532166,2.3756489530205727,2.879751260043122,fqaqier,lowwf,
48,s181,48,therm,th,he,er,rm,t,h,e,r,m,,,0.6113149329903536,0.6912328280159272,0.7872948999865912,0.8431612410349771,0.9472240140312351,0.0,0.0,therm,lowwf,
49,s181,49,belly,be,el,ll,ly,b,e,l,l,y,,,0.7353116869926453,0.8072382970131002,0.9511654889793135,1.0631991869886406,1.2231577669735998,0.0,0.0,belly,medwf,
50,s181,50,edthe,ed,dt,th,he,e,d,t,h,e,,,0.8112529259524308,0.9632390890037641,1.1472241269657388,1.2671637749881484,1.3232250069850124,0.0,0.0,edthe,pseudo,
51,s181,51,about,ab,bo,ou,ut,a,b,o,u,t,,,0.6473249010159634,0.7833221710170619,0.9192720449646004,0.983328113972675,1.1193496090127155,0.0,0.0,about,highwf,
52,s181,52,think,th,hi,in,nk,t,h,i,n,k,,,0.6428842149907723,0.714951507980004,0.8269089260138571,0.9309367570094764,1.0508913850062527,0.0,0.0,think,highwf,
53,s181,53,champ,ch,ha,am,mp,c,h,a,m,p,,,0.6389108640141785,0.7267868900089525,0.7988942629890516,0.9109040640178137,1.0627969310153276,0.0,0.0,champ,medwf,
54,s181,54,belly,be,el,ll,ly,b,e,l,l,y,,,0.6667414590483531,0.7308033320005052,0.8667360090184957,0.9868267900310457,1.1627731920452788,0.0,0.0,belly,medwf,
55,s181,55,lucky,lu,uc,ck,ky,l,u,c,k,y,,,0.623012400988955,0.8469627680024132,1.0149886819999665,1.1190285049960949,1.3190013309940696,0.0,0.0,lucky,highwf,
56,s181,56,vanru,va,an,nr,ru,v,a,n,r,u,,,0.9470411210204475,1.0190544149954803,1.1629954800009727,1.2909993620123714,1.4109928359976038,0.0,0.0,vanru,pseudo,
57,s181,57,would,wo,ou,ul,ld,w,o,u,l,d,,,0.7908596770139411,0.8947621340048499,0.9427051310194656,1.1027709969785064,1.2068208489799872,0.0,0.0,would,highwf,
58,s181,58,kremp,kr,re,em,mp,k,r,e,m,p,,,1.0188886189716868,1.1068556500249542,1.1628200390259735,1.2828684850246646,1.4108785819844343,0.0,0.0,kremp,pseudo,
59,s181,59,tithe,ti,it,th,he,t,i,t,h,e,,,0.7268968319986016,0.8149159129825421,0.9268527999520302,1.070940860954579,1.1508690089685842,0.0,0.0,tithe,lowwf,
60,s181,60,cooed,co,oo,oe,ed,c,o,o,e,d,,,0.7068870619987138,0.8587579830200411,0.9708429560414515,1.082817706046626,1.2188814820256084,0.0,0.0,cooed,lowwf,
61,s181,61,there,th,he,er,re,t,h,e,r,e,,,0.6950100120157003,0.7589253190089948,0.8390428880229592,0.8950428440002725,0.9989898310159333,0.0,0.0,there,highwf,
62,s181,62,puppy,pu,up,pp,py,p,u,p,p,y,,,0.6911414499627426,0.8510219620075077,1.0590131710050628,1.1790803289623,1.3390298199956305,0.0,0.0,puppy,medwf,
63,s181,63,theme,th,he,em,me,t,h,e,r,m,e,,0.6230010759900324,0.6870118619990535,0.7669064389774576,0.86292541900184,1.3748967939754948,1.4629421990248375,0.0,therme,medwf,
64,s181,64,belly,be,el,ll,ly,b,e,l,l,y,,,0.7223232610267587,0.8182543970178813,0.9222594529855996,1.0422672919812612,1.2023759770090692,0.0,0.0,belly,medwf,
65,s181,65,druze,dr,ru,uz,ze,d,r,u,z,e,,,1.2061820439994335,1.3260622149682604,1.4701614449732006,1.702178235980682,1.8941480499925092,0.0,0.0,druze,lowwf,
66,s181,66,cheer,ch,he,ee,er,c,h,e,e,r,,,0.7142440970055759,0.7942739999853075,0.8903230429859832,1.0183064480079338,1.1462757549597882,0.0,0.0,cheer,medwf,
67,s181,67,think,th,hi,in,nk,t,h,i,n,k,,,0.7419760630000383,0.7979819409665652,0.9099713309551589,0.9980533229536377,1.0940084579633549,0.0,0.0,think,highwf,
68,s181,68,edthe,ed,dt,th,he,e,d,t,h,e,,,0.8015813539968804,0.9616036950028501,1.129622116975952,1.2495299800066277,1.3295864629908465,0.0,0.0,edthe,pseudo,
69,s181,69,heond,he,eo,on,nd,h,e,o,n,d,,,0.9098394729662687,1.005916220950894,1.109793877985794,1.261884666979313,1.3658967569936067,0.0,0.0,heond,pseudo,
70,s181,70,faqir,fa,aq,qi,ir,f,a,q,i,r,,,0.7460853159427643,1.058138185995631,1.434037720959168,1.610066013992764,1.8100410629995167,0.0,0.0,faqir,lowwf,
71,s181,71,buddy,bu,ud,dd,dy,b,u,d,d,y,,,0.8863149150274694,1.0143212989787571,1.1743154569994658,1.2864562069880776,1.4463221930200234,0.0,0.0,buddy,highwf,
72,s181,72,vanru,va,an,nr,ru,v,a,n,r,u,,,0.9541224529966712,1.026026453007944,1.13815243501449,1.2741521219722927,1.3861078590271063,0.0,0.0,vanru,pseudo,
73,s181,73,cheer,ch,he,ee,er,c,h,e,e,r,,,0.6143044930067845,0.6862921259598807,0.798221819975879,0.9342171179596335,1.0543007259839214,0.0,0.0,cheer,medwf,
74,s181,74,about,ab,bo,ou,ut,a,b,o,u,t,,,0.586521404038649,0.7064676220179535,0.8184044749941677,0.8664031199878082,1.0183425910072401,0.0,0.0,about,highwf,
75,s181,75,cooed,co,oo,oe,ed,c,o,o,e,d,,,0.6782068889588118,0.8301962429541163,0.9661681459983811,1.054165932990145,1.2141645060037263,0.0,0.0,cooed,lowwf,
76,s181,76,tithe,ti,it,th,he,t,i,t,h,e,,,0.7701957339886576,0.8661558460444212,0.954152882040944,1.0501084540155716,1.1381849210010841,0.0,0.0,tithe,lowwf,
77,s181,77,vodka,vo,od,dk,ka,v,o,d,k,a,,,0.9420738610206172,1.0541115950327367,1.1339597910409793,1.3660348060075194,1.4861001360113733,0.0,0.0,vodka,medwf,
78,s181,78,pykka,py,yk,kk,ka,p,y,k,k,a,,,0.890107047976926,1.0981111419969238,1.4901144480099902,1.6100384420133196,1.7301338769611903,0.0,0.0,pykka,pseudo,
79,s181,79,heond,he,eo,on,nd,h,e,o,n,d,,,0.8701739899697714,0.9421725519932806,1.022164198977407,1.1741869850084186,1.2621186850010417,0.0,0.0,heond,pseudo,
80,s181,80,pykka,py,yk,kk,ka,p,y,k,k,a,,,0.7061453959904611,0.882099776994437,1.1781636420055293,1.3060385070275515,1.426042757986579,0.0,0.0,pykka,pseudo,
81,s181,81,puppy,pu,up,pp,py,p,u,p,p,y,,,0.6617811629548669,0.7978133449796587,0.9418446379713714,1.0699210919556208,1.2379021460074,0.0,0.0,puppy,medwf,
82,s181,82,think,th,hi,in,nk,t,h,i,n,k,,,0.690154665033333,0.7542208090308122,0.8582026400254108,0.9622137740370817,1.0501515250070952,0.0,0.0,think,highwf,
83,s181,83,cooed,co,oo,oe,ed,c,o,o,e,d,,,1.0142301000305451,1.1261583020095713,1.2622925890027545,1.3502588780247606,1.50223508203635,0.0,0.0,cooed,lowwf,
84,s181,84,kremp,kr,re,em,mp,k,r,e,m,p,,,0.9059943869942799,0.994013799005188,1.058101084025111,1.130063058983069,1.2339900450315326,0.0,0.0,kremp,pseudo,
85,s181,85,faqir,fa,aq,qi,ir,f,a,q,i,r,,,0.7261574600124732,0.8142472060280852,1.078305859991815,1.238271915994119,1.4461948390235193,0.0,0.0,faqir,lowwf,
86,s181,86,lucky,lu,uc,ck,ky,l,u,c,k,y,,,0.5942031939630397,0.7702665479737334,0.8423041919595562,0.9622742659994401,1.1462305859895423,0.0,0.0,lucky,highwf,
87,s181,87,haole,ha,ao,ol,le,f,a,o,l,e,,,0.774179229978472,0.8701913140248507,1.9024328090017661,2.078155583993066,2.1821856609894894,0.0,0.0,faole,lowwf,
88,s181,88,zibja,zi,ib,bj,ja,z,i,b,j,a,,,1.097468674997799,1.249454737000633,1.4254595020320266,1.6494433869956993,1.7694787899963558,0.0,0.0,zibja,pseudo,
89,s181,89,haole,ha,ao,ol,le,h,a,o,l,e,,,1.069409422983881,1.1973138009780087,1.581259203958325,1.7493418979574926,1.8533526620012708,0.0,0.0,haole,lowwf,
90,s181,90,would,wo,ou,ul,ld,w,o,u,l,d,,,0.6889784609666094,0.7689956270041876,0.8169551989994943,0.9690684289671481,1.057022609980777,0.0,0.0,would,highwf,
91,s181,91,haole,ha,ao,ol,le,h,a,o,l,e,,,0.8053487180150114,0.8772160400403664,0.9812911199987866,1.149262779043056,1.2372086730320007,0.0,0.0,haole,lowwf,
92,s181,92,edthe,ed,dt,th,he,e,d,t,h,e,,,0.7133440629695542,0.8653120470116846,1.0573868369683623,1.1693634919938631,1.2493375319754705,0.0,0.0,edthe,pseudo,
93,s181,93,tithe,ti,it,th,he,t,i,t,h,e,,,0.8293788519804366,0.9254770780098625,1.0214879360282794,1.1173534900299273,1.1974652080098167,0.0,0.0,tithe,lowwf,
94,s181,94,would,wo,ou,ul,ld,w,o,u,l,d,,,0.5374423149623908,0.6254034659941681,0.6734902529860847,0.8173702219501138,0.897451483993791,0.0,0.0,would,highwf,
95,s181,95,champ,ch,ha,am,mp,c,h,a,m,p,,,0.6615451140096411,0.7334482520236634,0.8215485240216367,0.9174172430066392,1.0215358950081281,0.0,0.0,champ,medwf,
96,s181,96,about,ab,bo,ou,ut,a,b,o,u,t,,,0.6014033689862117,0.7135002469876781,0.8173899960238487,0.8655069560045376,0.9695343219791539,0.0,0.0,about,highwf,
97,s181,97,would,wo,ou,ul,ld,w,o,u,l,d,,,0.5974514189874753,0.6614527690107934,0.7013288729940541,0.8614257969893515,0.9334495189832523,0.0,0.0,would,highwf,
98,s181,98,about,ab,bo,ou,ut,a,b,o,u,t,,,0.5931843310245313,0.6972417940269224,0.7931744109955616,0.8492876600357704,0.9532940799836069,0.0,0.0,about,highwf,
99,s181,99,vanru,va,an,nr,ru,v,a,n,r,u,,,0.9008578999782912,0.9888527310104109,1.1168474450241774,1.3009443830233067,1.4288597900304012,0.0,0.0,vanru,pseudo,
100,s181,100,vodka,vo,od,dk,ka,v,o,d,k,a,,,0.8172718239948153,0.8973348580184393,0.9932091279770248,1.1932166389888152,1.2973211939679459,0.0,0.0,vodka,medwf,
101,s181,101,druze,dr,ru,uz,ze,d,r,u,z,e,,,0.8053141330019571,0.8933054499793798,1.061358509992715,1.1973494440317154,1.397335498011671,0.0,0.0,druze,lowwf,
102,s181,102,vanru,va,an,nr,ru,v,a,n,r,u,,,0.9212372279725969,0.9932077449630015,1.1051810549688525,1.2091755279689096,1.2891706239897758,0.0,0.0,vanru,pseudo,
103,s181,103,heond,he,eo,on,nd,h,e,o,l,n,d,,0.9092081879498437,0.9973105439567007,1.0613286749576218,1.2292269219760783,1.6771899729501456,1.7812405809527263,0.0,heolnd,pseudo,
104,s181,104,druze,dr,ru,uz,ze,d,r,u,z,e,,,0.7531407630303875,0.8251928630052134,0.961172424023971,1.0251949920202605,1.1531232650158927,0.0,0.0,druze,lowwf,
105,s181,105,buddy,bu,ud,dd,dy,b,u,d,d,y,,,0.8769580539665185,0.9809874820057303,1.0769555569859222,1.2049504739698023,1.3169468119740486,0.0,0.0,buddy,highwf,
106,s181,106,there,th,he,er,re,t,h,e,r,e,,,0.6333270350005478,0.6893163659842685,0.769417795992922,0.8493473689886741,0.9373493390157819,0.0,0.0,there,highwf,
107,s181,107,kremp,kr,re,em,mp,k,r,e,m,p,,,0.9573925470467657,1.0374461220344529,1.1093460490228608,1.149451666045934,1.2613527310313657,0.0,0.0,kremp,pseudo,
108,s181,108,vodka,vo,od,dk,ka,v,o,d,k,a,,,0.8493650670279749,0.9292825650190935,1.0333418369991705,1.2092631940031424,1.3052409419906326,0.0,0.0,vodka,medwf,
109,s181,109,zibja,zi,ib,bj,ja,z,i,b,j,a,,,1.0373763949610293,1.1173317999928258,1.269385217980016,1.4453743899939582,1.5493952370015904,0.0,0.0,zibja,pseudo,
110,s181,110,pykka,py,yk,kk,ka,p,y,k,k,a,,,0.7293232110096142,0.8973676970344968,1.169475629052613,1.2974013370112516,1.4012906360439956,0.0,0.0,pykka,pseudo,
111,s181,111,zibja,zi,ib,bj,ja,z,i,b,j,a,,,0.9332429659552872,0.9972032379591838,1.1412436949904077,1.3171660399530083,1.437303060956765,0.0,0.0,zibja,pseudo,
112,s181,112,cheer,ch,he,ee,er,c,h,e,e,r,,,0.6572564710513689,0.7132235130411573,0.8333091450040229,0.9533082990092225,1.0812286700238474,0.0,0.0,cheer,medwf,
113,s181,113,druze,dr,ru,uz,ze,d,r,u,z,e,,,0.789115165011026,0.9011226249858737,1.0771409079898149,1.133254949003458,1.2611161569948308,0.0,0.0,druze,lowwf,
114,s181,114,there,th,he,er,re,t,h,e,r,e,,,0.6331178919645026,0.6970913109835237,0.7769890819909051,0.8490657229558565,0.9451251569553278,0.0,0.0,there,highwf,
115,s181,115,buddy,bu,ud,dd,dy,b,u,d,d,y,,,1.0772256960044615,1.1653068590094335,1.2532675429829396,1.3812245670123957,1.4932042619911954,0.0,0.0,buddy,highwf,
116,s181,116,haole,ha,ao,ol,le,h,a,o,l,e,,,0.7691602840204723,0.8571802660007961,1.2971862489939667,1.4892255690065213,1.5931117680156603,0.0,0.0,haole,lowwf,
117,s181,117,zibja,zi,ib,bj,ja,z,i,b,j,a,,,0.9170945180230774,0.9892020990373567,1.1092336020083167,1.2851757980533876,1.397161302040331,0.0,0.0,zibja,pseudo,
118,s181,118,vodka,vo,od,dk,ka,v,o,d,k,a,,,1.128548807988409,1.232558660034556,1.4486702950089239,1.5925693709868938,1.712687838007696,0.0,0.0,vodka,medwf,
119,s181,119,kremp,kr,re,em,mp,k,r,e,m,p,,,0.8453491239924915,0.9252584719797596,0.9811861640191637,1.061271745013073,1.173140573024284,0.0,0.0,kremp,pseudo,
120,s181,120,buddy,bu,ud,dd,dy,b,u,d,d,y,,,0.8628706720191985,0.958903188991826,1.0709669250063598,1.1908902259892784,1.294902038993314,0.0,0.0,buddy,highwf,
121,s181,121,would,wo,ou,ul,ld,w,o,u,l,d,,,0.6015938550117426,0.6736531470087357,0.7135941710439511,0.8575448060291819,0.9296168810105883,0.0,0.0,would,highwf,
122,s181,122,zibja,zi,ib,bj,ja,z,i,b,j,a,,,1.1418014519731514,1.2217291939887218,1.3737749960273504,1.549741239985451,1.6617696179891936,0.0,0.0,zibja,pseudo,
123,s181,123,cheer,ch,he,ee,er,c,h,e,e,r,,,0.617413905041758,0.6894095070310868,0.8015271030017175,0.9215242130449042,1.1454109530313872,0.0,0.0,cheer,medwf,
124,s181,124,therm,th,he,er,rm,t,h,e,r,m,,,0.6932029839954339,0.7572778689791448,0.8613146269926801,0.9332158239558339,1.0293042249977589,0.0,0.0,therm,lowwf,
125,s181,125,haole,ha,ao,ol,le,h,a,o,l,e,,,0.7616197280003689,0.8496052700211294,1.0335174220381305,1.2094824259984307,1.2975607640109956,0.0,0.0,haole,lowwf,
126,s181,126,puppy,pu,up,pp,py,p,u,p,p,y,,,0.6297056259936653,0.7576763380202465,0.9016870770137757,1.0218001090106554,1.18170363700483,0.0,0.0,puppy,medwf,
127,s181,127,edthe,ed,dt,th,he,e,d,t,h,e,,,0.6576972769689746,0.8096913879853673,0.977844531997107,1.081682630989235,1.1457054399652407,0.0,0.0,edthe,pseudo,
128,s181,128,belly,be,el,ll,ly,b,e,l,l,y,,,0.8136655970010906,0.8856752339634113,0.9976275069639087,1.109538727963809,1.2456332969595678,0.0,0.0,belly,medwf,
129,s181,129,there,th,he,er,re,t,h,e,r,e,,,0.6098466130206361,0.6739711500122212,0.7539272470166907,0.833863198000472,0.9059698019991629,0.0,0.0,there,highwf,
130,s181,130,tithe,ti,it,th,he,t,i,t,h,e,,,0.7496966320322827,0.8216908909962513,0.9175743370433338,1.0537216170341708,1.1415785070275888,0.0,0.0,tithe,lowwf,
131,s181,131,heond,he,eo,on,nd,h,e,o,n,d,,,0.7533146290224977,0.8092391190002672,0.8894157970207743,1.1452694960171357,1.2413475170033053,0.0,0.0,heond,pseudo,
132,s181,132,lucky,lu,uc,ck,ky,l,u,c,k,y,,,0.67752406996442,0.8615436480031349,0.9974724299972877,1.1014380909618922,1.2934571160003543,0.0,0.0,lucky,highwf,
133,s181,133,theme,th,he,em,me,t,h,e,m,e,,,0.6334561289986596,0.7294945589965209,0.8095229879836552,0.9135503209545277,0.9776132759870961,0.0,0.0,theme,medwf,
134,s181,134,think,th,hi,in,nk,t,h,i,n,k,,,0.7096035330323502,0.7657038340112194,0.8697065149899572,0.9737227960140444,1.0537441759952344,0.0,0.0,think,highwf,
135,s181,135,vanru,va,an,nr,ru,v,a,n,r,u,,,0.9854975250200368,1.0495224019978195,1.1455040780128911,1.2734912890009582,1.369676178030204,0.0,0.0,vanru,pseudo,
136,s181,136,zibja,zi,ib,bj,ja,z,i,b,j,a,,,0.9413859229534864,0.9893814349779859,1.1173377849627286,1.293244058964774,1.389380419976078,0.0,0.0,zibja,pseudo,
137,s181,137,faqir,fa,aq,qi,ir,f,a,q,i,r,,,0.8495411589974537,0.9535120500368066,1.1774820380378515,1.5615406790166162,1.6735434270231053,0.0,0.0,faqir,lowwf,
138,s181,138,therm,th,he,er,rm,t,h,e,r,m,,,0.6537705400260165,0.7337003090069629,0.8218452620203607,0.885996958008036,0.9736801600083709,0.0,0.0,therm,lowwf,
139,s181,139,theme,th,he,em,me,t,h,e,m,e,,,0.6495070430100895,0.7134938109666109,0.8093991060159169,0.905364247970283,0.977546704991255,0.0,0.0,theme,medwf,
140,s181,140,zibja,zi,ib,bj,ja,z,i,b,j,a,,,0.9498168840073049,1.0057212939718738,1.133749742002692,1.3017560640000738,1.3817399310064502,0.0,0.0,zibja,pseudo,
141,s181,141,pykka,py,yk,kk,ka,p,y,k,k,a,,,0.7296255479450338,0.8657407159917057,1.1457076429505832,1.2816658539813943,1.377744980971329,0.0,0.0,pykka,pseudo,
142,s181,142,vanru,va,an,nr,ru,v,a,n,r,u,,,0.8456620320212096,0.9095726100495085,1.0136819489998743,1.1255908110179007,1.2295935630099848,0.0,0.0,vanru,pseudo,
143,s181,143,theme,th,he,em,me,t,h,e,m,e,,,0.665614360012114,0.7535772960400209,0.8174879700527526,0.9295270960428752,0.9775088340393268,0.0,0.0,theme,medwf,
144,s181,144,lucky,lu,uc,ck,ky,l,u,c,k,y,,,0.6456143039977178,0.8136620359728113,0.8536599299986847,1.0136657489929348,1.1816049909684807,0.0,0.0,lucky,highwf,
145,s181,145,think,th,hi,in,nk,t,h,i,n,k,,,0.6010207969811745,0.6571047229808755,0.7450668420060538,0.8490457630250603,0.9211094990023412,0.0,0.0,think,highwf,
146,s181,146,belly,be,el,ll,ly,b,e,l,l,y,,,0.9413119959644973,1.0133611349738203,1.1252934559597634,1.2452457929612137,1.405357280978933,0.0,0.0,belly,medwf,
147,s181,147,edthe,ed,dt,th,he,e,d,t,h,e,,,0.7374139659805223,0.8813013999606483,1.0493604819639586,1.1453858769964427,1.2173054709564894,0.0,0.0,edthe,pseudo,
148,s181,148,tithe,ti,it,th,he,i,t,t,h,e,,,0.8293736740015447,0.9173633740283549,1.6293995550367981,1.7013691010070033,1.8053924670093693,0.0,0.0,itthe,lowwf,
149,s181,149,about,ab,bo,ou,ut,a,b,o,u,t,,,0.6166784149827436,0.7206678310176358,0.8326896569924429,0.8726609569857828,0.9766375559847802,0.0,0.0,about,highwf,
150,s181,150,vanru,va,an,nr,ru,v,a,n,r,u,,,0.7808698720182292,0.8449664430227131,0.9409570819698274,1.044919005013071,1.1489391240174882,0.0,0.0,vanru,pseudo,
151,s181,151,there,th,he,er,re,t,h,e,r,e,,,0.6730387369752862,0.7769170899991877,0.8250326419947669,0.9451507980120368,1.049037316988688,0.0,0.0,there,highwf,
152,s181,152,buddy,bu,ud,dd,dy,b,u,d,d,y,,,0.820900818973314,0.9329272760078311,1.0128507090266794,1.1648857209947892,1.276809474977199,0.0,0.0,buddy,highwf,
153,s181,153,zibja,zi,ib,bj,ja,z,i,b,j,a,,,0.9926719229551964,1.0647146200062707,1.2006625889916904,1.3926687290077098,1.4886917599942535,0.0,0.0,zibja,pseudo,
154,s181,154,vodka,vo,od,dk,ka,v,o,d,k,a,,,0.8767545589944348,0.9808202899876051,1.0608082870021462,1.1967887390055694,1.3168351140338928,0.0,0.0,vodka,medwf,
155,s181,155,haole,ha,ao,ol,le,h,a,o,l,e,,,0.8325671849888749,0.9044566520024091,1.0965266589773819,1.264520080992952,1.3365557249635458,0.0,0.0,haole,lowwf,
156,s181,156,kremp,kr,re,em,mp,k,r,e,m,p,,,0.9084410869982094,0.9883133869734593,1.0603440779959783,1.1084327140124515,1.2283958650077693,0.0,0.0,kremp,pseudo,
157,s181,157,haole,ha,ao,ol,le,h,a,o,l,e,,,0.8646404540049843,0.9126584909972735,1.0487385930027813,1.2167585900169797,1.2888431570027024,0.0,0.0,haole,lowwf,
158,s181,158,champ,ch,ha,am,mp,c,h,a,m,p,,,0.644695219991263,0.7005916849593632,0.8046043679933064,0.8766208439483307,1.0047203360009007,0.0,0.0,champ,medwf,
159,s181,159,belly,be,el,ll,ly,b,e,l,l,y,,,0.5685966219753027,0.6325596980168484,0.7366096809855662,0.8725574919953942,1.0325348009937443,0.0,0.0,belly,medwf,
160,s181,160,about,ab,bo,ou,ut,a,b,o,u,t,,,0.4765405030339025,0.5726344750146382,0.6685971090337262,0.7085750530241057,0.8126154480269179,0.0,0.0,about,highwf,
161,s181,161,there,th,he,er,re,t,h,e,r,e,,,0.64067742502084,0.7367415310000069,0.7766079310094938,0.8486849370528944,0.9447546150186099,0.0,0.0,there,highwf,
162,s181,162,heond,he,eo,on,nd,h,e,o,n,d,,,0.7726337870117277,0.8286961360136047,0.932708318985533,1.0686743080150336,1.1406110029784031,0.0,0.0,heond,pseudo,
163,s181,163,pykka,py,yk,kk,ka,p,y,k,k,a,,,0.832894243998453,1.0328658020007424,1.288916125020478,1.4007812810014002,1.496861590014305,0.0,0.0,pykka,pseudo,
164,s181,164,about,ab,bo,ou,ut,a,b,o,u,t,,,0.5648171729990281,0.6847717019845732,0.7887755599804223,0.8049029770190828,0.9007709000143223,0.0,0.0,about,highwf,
165,s181,165,tithe,ti,it,th,he,t,i,t,h,e,,,0.7448633600142784,0.840828298998531,0.9128059340291657,1.0169356139958836,1.0889564490062185,0.0,0.0,tithe,lowwf,
166,s181,166,pykka,py,yk,kk,ka,p,y,k,k,a,,,0.7406236249953508,0.8765045419568196,1.124555911985226,1.268626637000125,1.3726185569539666,0.0,0.0,pykka,pseudo,
167,s181,167,cheer,ch,he,ee,er,c,h,e,e,r,,,0.6806544999708422,0.7446403629728593,0.8486014769878238,0.9765495709725656,1.104700508993119,0.0,0.0,cheer,medwf,
168,s181,168,faqir,fa,aq,qi,ir,f,a,q,i,r,,,0.82853633799823,0.9165375839802437,1.204543575993739,1.6125070870039053,1.7484925679746084,0.0,0.0,faqir,lowwf,
169,s181,169,druze,dr,ru,uz,ze,d,r,u,z,e,,,0.7125869379960932,0.8087308570393361,0.9926507649943233,1.1126426529954188,1.3206933769979514,0.0,0.0,druze,lowwf,
170,s181,170,edthe,ed,dt,th,he,e,d,t,h,e,,,0.7005291519453749,0.8845731289475225,1.1005257029901259,1.2046389389433898,1.2605559529620223,0.0,0.0,edthe,pseudo,
171,s181,171,lucky,lu,uc,ck,ky,l,u,c,k,y,,,0.6885948830167763,0.8406921300338581,0.9286310460302047,1.0166576150222681,1.2005397439934313,0.0,0.0,lucky,highwf,
172,s181,172,cooed,co,oo,oe,ed,c,o,o,e,d,,,0.7802806859835982,0.8923154600197449,1.0042320400243625,1.1082345449831337,1.2523959000245668,0.0,0.0,cooed,lowwf,
173,s181,173,faqir,fa,aq,qi,ir,f,a,q,i,r,,,0.7364641699823551,0.816393812012393,1.0484021580195986,1.248462374031078,1.3603521829936653,0.0,0.0,faqir,lowwf,
174,s181,174,buddy,bu,ud,dd,dy,b,u,d,d,y,,,0.764758826000616,0.8687228249618784,0.9567253519780934,1.0847344819922,1.1887302009854466,0.0,0.0,buddy,highwf,
175,s181,175,think,th,hi,in,nk,t,h,i,n,k,,,0.6485485279699787,0.7045695259585045,0.7844881079508923,0.888497787003871,0.9604840819956735,0.0,0.0,think,highwf,
176,s181,176,vodka,vo,od,dk,ka,v,o,d,k,a,,,0.7647040510200895,0.8766652760095894,0.9487630969961174,1.0846592780435458,1.1807714269962162,0.0,0.0,vodka,medwf,
177,s181,177,therm,th,he,er,rm,t,h,e,r,m,,,0.6407003939966671,0.7125906639848836,0.7927010249695741,0.8726976590114646,0.9527728699613363,0.0,0.0,therm,lowwf,
178,s181,178,druze,dr,ru,uz,ze,d,r,u,z,e,,,0.7165677979937755,0.7565495520248078,1.0445822110050358,1.1484938699868508,1.2685510140145198,0.0,0.0,druze,lowwf,
179,s181,179,champ,ch,ha,am,mp,c,h,a,m,p,,,0.6635317300097086,0.7355874380446039,0.8156500770128332,0.9117104230099358,1.0316053970018402,0.0,0.0,champ,medwf,
180,s181,180,cooed,co,oo,oe,ed,c,o,o,e,d,,,0.67639317602152,0.7804512900183909,0.908347531047184,0.9804531360277906,1.1403744980343617,0.0,0.0,cooed,lowwf,
181,s181,181,puppy,pu,up,pp,py,p,u,p,p,y,,,0.792510851053521,0.9204852050170302,1.0485229710466228,1.176473927043844,1.3924980370211415,0.0,0.0,puppy,medwf,
182,s181,182,kremp,kr,re,em,mp,k,r,e,m,p,,,1.220685645006597,1.3326369189890102,1.3966606000321917,1.4765468980185688,1.588594225991983,0.0,0.0,kremp,pseudo,
183,s181,183,cheer,ch,he,ee,er,c,h,e,e,r,,,0.584453248011414,0.6565102080348879,0.7524622980272397,0.888564997992944,1.04057787603233,0.0,0.0,cheer,medwf,
184,s181,184,vanru,va,an,nr,ru,v,a,n,r,u,,,0.788584258989431,0.8764643719769083,1.020585267979186,1.116583121009171,1.2206204239628278,0.0,0.0,vanru,pseudo,
185,s181,185,champ,ch,ha,am,mp,c,h,a,m,p,,,0.6165042769862339,0.7123733750195242,0.7603709669783711,0.8883756540017202,0.992383235017769,0.0,0.0,champ,medwf,
186,s181,186,kremp,kr,re,em,mp,k,r,e,m,p,,,1.0761537799844518,1.1642160990159027,1.2202748869895004,1.2841496000182815,1.388171554019209,0.0,0.0,kremp,pseudo,
187,s181,187,think,th,hi,in,nk,t,h,n,k,,,,0.6244601149810478,0.6645654080202803,0.864479127980303,0.9285699040046893,0.0,0.0,0.0,thnk,highwf,
188,s181,188,buddy,bu,ud,dd,dy,b,u,d,d,y,,,0.7240768409683369,0.8041235440177843,0.900112735980656,1.0361543339677155,1.1320895879762247,0.0,0.0,buddy,highwf,
189,s181,189,champ,ch,ha,am,mp,c,h,a,m,p,,,0.5998747479752637,0.6559143830090761,0.7678627109853551,0.8318419909919612,0.9437840799801052,0.0,0.0,champ,medwf,
190,s181,190,theme,th,he,em,me,t,h,e,m,e,,,0.579847440996673,0.6518705439521,0.7558888900093734,0.8437581099569798,0.923839220951777,0.0,0.0,theme,medwf,
191,s181,191,puppy,pu,up,pp,py,p,u,p,p,y,,,0.6716681899852119,0.775584509014152,0.9277154579758644,1.0476105799898505,1.2156677679740824,0.0,0.0,puppy,medwf,
192,s181,192,would,wo,ou,ul,ld,w,o,u,l,d,,,0.6359294619760476,0.7078770310035907,0.7638921909965575,0.9077990349614993,0.9718232089653611,0.0,0.0,would,highwf,
193,s181,193,pykka,py,yk,kk,ka,p,y,k,k,a,,,0.6639061910100281,0.807919146027416,1.1118732500472106,1.2558872740482911,1.3597727820160799,0.0,0.0,pykka,pseudo,
194,s181,194,cheer,ch,he,ee,er,c,h,e,e,r,,,0.7716657420387492,0.8757288990309462,0.9716915070312098,1.1077819870552048,1.235671610047575,0.0,0.0,cheer,medwf,
195,s181,195,lucky,lu,uc,ck,ky,l,u,c,k,y,,,0.6157329059788026,0.7917474010027945,0.8956125039840117,1.0316597649944015,1.2637357779894955,0.0,0.0,lucky,highwf,
196,s181,196,zibja,zi,ib,bj,ja,z,i,b,j,a,,,0.8995526850339957,0.9874835360096768,1.1795791480108164,1.3795788820134476,1.4915962310042232,0.0,0.0,zibja,pseudo,
197,s181,197,heond,he,eo,on,nd,h,e,o,n,d,,,0.7760567240184173,0.8480159559985623,0.9280808820039965,1.0720006779883988,1.152025573013816,0.0,0.0,heond,pseudo,
198,s181,198,faqir,fa,aq,qi,ir,f,a,q,i,r,,,0.7558001109864563,0.8437026310130022,1.139761010010261,1.4120126640191302,1.5157585680135526,0.0,0.0,faqir,lowwf,
199,s181,199,would,wo,ou,ul,ld,w,o,u,l,d,,,0.4957493080291897,0.5837523170048371,0.6238733690115623,0.7918248630012386,0.8877907150308602,0.0,0.0,would,highwf,
200,s181,200,tithe,ti,it,th,he,t,i,t,h,e,,,0.7158721389714628,0.8118669249815866,0.8998625730164349,0.995855834975373,1.0597811419866048,0.0,0.0,tithe,lowwf,
201,s181,201,theme,th,he,em,me,t,h,e,m,e,,,0.6557807819917798,0.7357973750331439,0.8157889970461838,0.9118528930121101,0.9917188350227661,0.0,0.0,theme,medwf,
202,s181,202,would,wo,ou,ul,ld,w,o,u,l,d,,,0.5791960040223785,0.63531216600677,0.6831978459958918,0.8272618289920501,0.8913088710396551,0.0,0.0,would,highwf,
203,s181,203,druze,dr,ru,uz,ze,d,r,u,z,e,,,0.6238574730232358,0.7118497929768637,0.855811144981999,0.9437359939911403,1.047787668008823,0.0,0.0,druze,lowwf,
204,s181,204,think,th,hi,in,nk,t,h,i,n,k,,,0.6436945150489919,0.7077266720007174,0.7877413220121525,0.8997837910428643,0.9557291970122606,0.0,0.0,think,highwf,
205,s181,205,cooed,co,oo,oe,ed,c,o,o,e,d,,,0.69556876498973,0.7996841620188206,0.927751042007003,1.0396242889692076,1.1916400920017622,0.0,0.0,cooed,lowwf,
206,s181,206,druze,dr,ru,uz,ze,d,r,u,z,e,,,0.643374206032604,0.7073529180488549,0.827358594047837,0.9154602560447529,0.9954083019983955,0.0,0.0,druze,lowwf,
207,s181,207,there,th,he,er,re,t,h,e,r,e,,,0.5674895930569619,0.6555073540075682,0.7195254110265523,0.8236259650439024,0.9035678910440765,0.0,0.0,there,highwf,
208,s181,208,cooed,co,oo,oe,ed,c,o,o,e,d,,,0.7395917089888826,0.8515378779848106,0.9795240180101246,1.0674969850224443,1.2195605160086416,0.0,0.0,cooed,lowwf,
209,s181,209,kremp,kr,re,em,mp,k,r,e,m,p,,,1.1596919239964336,1.2476923110079952,1.3118567600031383,1.391754980024416,1.5037499130121432,0.0,0.0,kremp,pseudo,
210,s181,210,therm,th,he,er,rm,t,h,e,r,m,,,0.6036488930112682,0.6916066280100495,0.771658092038706,0.8435359040158801,0.9716797810397111,0.0,0.0,therm,lowwf,
211,s181,211,buddy,bu,ud,dd,dy,b,u,d,d,y,,,0.7835444530355744,0.8876441750326194,1.0156282240059227,1.1435648790211417,1.2556037830072455,0.0,0.0,buddy,highwf,
212,s181,212,vodka,vo,od,dk,ka,v,o,d,k,a,,,0.9156134519726038,1.0115969579783268,1.1075683680246584,1.2356278150109574,1.339491792023182,0.0,0.0,vodka,medwf,
213,s181,213,druze,dr,ru,uz,ze,d,r,u,z,e,,,0.6637406939989887,0.7437022270169109,0.8957809080020525,0.983729524014052,1.0397997520049103,0.0,0.0,druze,lowwf,
214,s181,214,belly,be,el,ll,ly,b,e,l,l,y,,,0.7078093810123391,0.795784254965838,0.899821344006341,1.0437250609975308,1.1877996280090883,0.0,0.0,belly,medwf,
215,s181,215,haole,ha,ao,ol,le,h,a,o,l,e,,,0.8398909050156362,0.9038968540262431,0.9758010299992748,1.1277914180536754,1.2078480970230885,0.0,0.0,haole,lowwf,
216,s181,216,champ,ch,ha,am,mp,c,h,a,m,p,,,0.6358141770469956,0.6837223310139962,0.7957155940239318,0.8676941000157967,0.9797087270417251,0.0,0.0,champ,medwf,
217,s181,217,vodka,vo,od,dk,ka,v,o,d,k,a,,,0.7355135400430299,0.8075107100303285,0.9115303630242124,0.9995076790219173,1.1115399640402757,0.0,0.0,vodka,medwf,
218,s181,218,heond,he,eo,on,nd,h,e,o,n,d,,,0.7714938630233519,0.8594705470022745,0.9074842890258878,1.0754549030098133,1.1555782919749618,0.0,0.0,heond,pseudo,
219,s181,219,faqir,fa,aq,qi,ir,f,a,q,i,r,,,0.7755873459973373,0.8636781200184487,1.0876674330211245,1.2236829100293107,1.3196839300217107,0.0,0.0,faqir,lowwf,
220,s181,220,there,th,he,er,re,t,h,e,r,e,,,0.6116217030212283,0.6835625169915147,0.7395805949927308,0.8276159429806285,0.9075616500340402,0.0,0.0,there,highwf,
221,s181,221,would,wo,ou,ul,ld,w,o,u,l,d,,,0.5834877159795724,0.6634651990025304,0.7114833279629238,0.8634885879582725,0.9034517380059697,0.0,0.0,would,highwf,
222,s181,222,edthe,ed,dt,th,he,e,d,t,h,e,,,0.6673149109701626,0.819458112004213,0.9714407720020972,1.075310879969038,1.131375668977853,0.0,0.0,edthe,pseudo,
223,s181,223,therm,th,he,er,rm,t,h,e,r,m,,,0.5997177839744836,0.6717022879747674,0.7516596339992248,0.8157126239966601,0.9197224989766255,0.0,0.0,therm,lowwf,
224,s181,224,kremp,kr,re,em,mp,k,r,e,m,p,,,0.7635818179696798,0.8356194809894077,0.8914879499934614,0.9875169919687323,1.0915893329656683,0.0,0.0,kremp,pseudo,
225,s181,225,pykka,py,yk,kk,ka,p,y,k,k,a,,,0.6712320860242471,0.8152403910062276,1.0552265690057538,1.1992709009791724,1.311220925010275,0.0,0.0,pykka,pseudo,
226,s181,226,tithe,ti,it,th,he,t,i,t,h,e,,,0.6749730379669927,0.7469843429862522,0.8428844250156544,0.9149059350020252,0.9870160549762659,0.0,0.0,tithe,lowwf,
227,s181,227,cheer,ch,he,ee,er,c,h,e,e,r,,,0.86278352298541,0.9267166940262541,1.038795307977125,1.1668517590151168,1.3347227760241367,0.0,0.0,cheer,medwf,
228,s181,228,belly,be,el,ll,ly,b,e,l,l,y,,,0.6508106810506433,0.7148139800410718,0.8268377670319751,0.9789417490246706,1.0989113440155052,0.0,0.0,belly,medwf,
229,s181,229,lucky,lu,uc,ck,ky,l,u,c,k,y,,,0.6386243799934164,0.7986686670337804,0.8625858059967868,0.9826521290233359,1.1505589270382188,0.0,0.0,lucky,highwf,
230,s181,230,heond,he,eo,on,nd,h,e,o,n,d,,,0.7707969110342674,0.8507503010332584,0.8988141529844142,1.0267377250129357,1.09080487099709,0.0,0.0,heond,pseudo,
231,s181,231,about,ab,bo,ou,ut,a,b,o,u,t,,,0.5746648400090635,0.6626663850038312,0.758613483980298,0.7906638339627534,0.8947126769926399,0.0,0.0,about,highwf,
232,s181,232,vodka,vo,od,dk,ka,v,o,d,k,a,,,0.7466456520487554,0.8265676680020988,0.914597669034265,1.0026585530140437,1.1066354300128296,0.0,0.0,vodka,medwf,
233,s181,233,puppy,pu,up,pp,py,p,u,p,p,y,,,0.6544549280079082,0.758532085979823,0.8865561910206452,1.0144673390313983,1.2145395430270582,0.0,0.0,puppy,medwf,
234,s181,234,edthe,ed,dt,th,he,e,d,t,h,e,,,0.8588559440104291,1.0029094209894538,1.1549023530096747,1.250782809976954,1.3147921930067241,0.0,0.0,edthe,pseudo,
235,s181,235,cooed,co,oo,oe,ed,c,o,o,e,d,,,0.6628598849638365,0.7749513409798965,0.9189166289870627,0.9989345069625415,1.1428256889921613,0.0,0.0,cooed,lowwf,
236,s181,236,vanru,va,an,nr,ru,v,a,n,r,u,,,0.7548322699731216,0.8188319809851237,0.9227754769963212,1.0266977649880573,1.1228293890017085,0.0,0.0,vanru,pseudo,
237,s181,237,puppy,pu,up,pp,py,p,u,p,p,y,,,0.6388469730154611,0.7668293510214426,0.9107380850473419,1.0388453589985147,1.222860093053896,0.0,0.0,puppy,medwf,
238,s181,238,haole,ha,ao,ol,le,h,a,o,l,e,,,0.8346610289881937,0.9067349979886785,1.0186492680222727,1.1788040160317905,1.2667443139944226,0.0,0.0,haole,lowwf,
239,s181,239,about,ab,bo,ou,ut,a,b,o,u,t,,,0.5507563810097054,0.6468639369704761,0.7267700919765048,0.7828733919886872,0.8868366259848699,0.0,0.0,about,highwf,
