,sID,Trial #,string,bi_1,bi_2,bi_3,bi_4,key_resp.keys.1,key_resp.keys.2,key_resp.keys.3,key_resp.keys.4,key_resp.keys.5,key_resp.keys.6,key_resp.keys.7,key_resp.keys.8,key_resp.keys.9,key_resp.rt.1,key_resp.rt.2,key_resp.rt.3,key_resp.rt.4,key_resp.rt.5,key_resp.rt.6,key_resp.rt.7,key_resp.rt.8,key_resp.rt.9,resp_string,WF Type,BF Type
0,s183,0,zibja,zi,ib,bj,ja,z,i,b,j,a,,,,,1.1359702600000219,1.3599487240001054,1.5839731220000886,1.7919857530000627,1.9279891549999775,0.0,0.0,0.0,0.0,zibja,pseudo,lowbf
1,s183,1,theme,th,he,em,me,t,h,e,m,e,,,,,0.862717750999991,0.9427914899999905,1.1107779100000243,1.1907547890000387,1.3507685500001116,0.0,0.0,0.0,0.0,theme,medwf,highbf
2,s183,2,cheer,ch,he,ee,er,c,h,e,e,r,,,,,0.9465990799999418,1.1065622369999346,1.29858569299995,1.466557187000035,1.6345164489998751,0.0,0.0,0.0,0.0,cheer,medwf,highbf
3,s183,3,faqir,fa,aq,qi,ir,f,a,q,i,r,,,,,0.8708167130000675,1.0389570249999451,1.3108840479999344,1.6148985970000922,1.7989380240001083,0.0,0.0,0.0,0.0,faqir,lowwf,lowbf
4,s183,4,buddy,bu,ud,dd,dy,b,u,d,d,y,,,,,0.9143914969999969,1.074438101999931,1.186479726000016,1.346474839999928,1.4584650009999223,0.0,0.0,0.0,0.0,buddy,highwf,lowbf
5,s183,5,puppy,pu,up,pp,py,p,u,p,p,y,,,,,0.7980984239998179,1.054105846999846,1.25410527799977,1.406165632000011,1.5580894770000668,0.0,0.0,0.0,0.0,puppy,medwf,lowbf
6,s183,6,druze,dr,ru,uz,ze,d,r,i,z,e,,,,,0.7537947989999338,0.9298519089998081,1.105821049000042,1.5457666339998468,1.7457599229996958,0.0,0.0,0.0,0.0,drize,lowwf,lowbf
7,s183,7,therm,th,he,er,rm,t,h,e,r,m,,,,,0.8618113130000893,0.9498211259997333,1.1337195900000552,1.213813941999888,1.4057950809997237,0.0,0.0,0.0,0.0,therm,lowwf,highbf
8,s183,8,zibja,zi,ib,bj,ja,z,i,n,j,backspace,backspace,b,j,a,1.145752148000156,1.321843127000193,1.5217851550000887,1.705793796999842,2.369834100999924,2.5218416329998945,3.0257563039999695,3.1617993939998996,3.241851778000182,zinjbackspacebackspacebja,pseudo,lowbf
9,s183,9,belly,be,el,ll,ly,b,r,e,l,l,y,,,,0.8375701080003637,1.0295447870003045,1.0375653950000014,1.4135208110001258,1.5895760930002325,1.7015590800001519,0.0,0.0,0.0,brelly,medwf,medbf
10,s183,10,tithe,ti,it,th,he,t,i,t,h,e,w,,,,0.8736717410001802,1.0335619890001908,1.2095600369998465,1.3455991119999453,1.497620108999854,1.5056278339998244,0.0,0.0,0.0,tithew,lowwf,highbf
11,s183,11,cheer,ch,he,ee,er,c,h,e,e,r,,,,,0.7902675619998263,0.9582320599997729,1.1502053269996395,1.3181123089998437,1.4862214329996277,0.0,0.0,0.0,0.0,cheer,medwf,highbf
12,s183,12,puppy,pu,up,pp,py,p,u,p,p,y,,,,,1.0096889860001284,1.2657462650004163,1.6976810720002504,1.8497447450004074,1.953776831000141,0.0,0.0,0.0,0.0,puppy,medwf,lowbf
13,s183,13,haole,ha,ao,ol,le,h,a,o,l,e,,,,,0.8858221249997769,1.5097214990000793,1.701772556999913,1.8538272319997304,1.9977379829997517,0.0,0.0,0.0,0.0,haole,lowwf,medbf
14,s183,14,edthe,ed,dt,th,he,e,d,t,h,e,,,,,0.8977702820002378,1.0577700270000605,1.2818707610003912,1.4259190679999847,1.5138561120002123,0.0,0.0,0.0,0.0,edthe,pseudo,highbf
15,s183,15,think,th,hi,in,nk,t,h,i,n,k,,,,,0.7817895210000643,0.8778363629999149,1.0056982930000231,1.133661372000006,1.2456878160000997,0.0,0.0,0.0,0.0,think,highwf,highbf
16,s183,16,there,th,he,er,re,t,h,e,r,,,,,,0.7615742330003741,0.8655468000001747,1.0496079009999448,1.1215544330002558,0.0,0.0,0.0,0.0,0.0,ther,highwf,highbf
17,s183,17,would,wo,ou,ul,ld,w,o,u,l,d,,,,,0.8536826709996603,0.9736430299999483,1.1576890319997801,1.3175694789997578,1.4216833599998608,0.0,0.0,0.0,0.0,would,highwf,medbf
18,s183,18,lucky,lu,uc,ck,ky,l,u,c,k,y,,,,,0.7776971509997566,1.0176984519998769,1.1217923059998611,1.2257651169998098,1.3857768679999936,0.0,0.0,0.0,0.0,lucky,highwf,lowbf
19,s183,19,therm,th,he,er,rm,t,h,e,r,m,,,,,0.6856999379997433,0.7577212969999891,0.9017002709997541,0.981665294999857,1.1255966139997327,0.0,0.0,0.0,0.0,therm,lowwf,highbf
20,s183,20,theme,th,he,em,me,t,h,m,e,,,,,,0.6978077379999377,0.8498540020000291,1.1057748179996452,1.2097920579999482,0.0,0.0,0.0,0.0,0.0,thme,medwf,highbf
21,s183,21,tithe,ti,it,th,he,t,i,t,h,e,,,,,0.7415416419999019,0.909477489999972,1.1334699859999091,1.149539422000089,1.3334949299996879,0.0,0.0,0.0,0.0,tithe,lowwf,highbf
22,s183,22,theme,th,he,em,me,t,h,e,m,e,,,,,0.7054184250000617,0.8093870249999782,0.9454092290002336,1.1374562860000879,1.2654289219999555,0.0,0.0,0.0,0.0,theme,medwf,highbf
23,s183,23,about,ab,bo,ou,ut,a,b,o,u,t,,,,,0.8455376459996842,0.9575821689995792,1.1575972249997903,1.349562524999783,1.4135468309996213,0.0,0.0,0.0,0.0,about,highwf,medbf
24,s183,24,champ,ch,ha,am,mp,c,h,a,s,m,p,,,,0.6656538699999146,0.8175509739999143,0.9616841960000784,0.9616841960000784,1.0496463270001186,1.2016551749998143,0.0,0.0,0.0,chasmp,medwf,medbf
25,s183,25,cooed,co,oo,oe,ed,c,o,o,e,d,,,,,0.837767397999869,1.0617936069997995,1.229806974999974,1.4377423119999548,1.6298328839998248,0.0,0.0,0.0,0.0,cooed,lowwf,medbf
26,s183,26,belly,be,el,ll,ly,b,e,l,l,y,,,,,0.7620299540003543,0.890042597000047,1.2099421980001352,1.4099395140001434,1.4420482290001928,0.0,0.0,0.0,0.0,belly,medwf,medbf
27,s183,27,champ,ch,ha,am,mp,c,h,a,m,p,,,,,0.6616507440003261,0.8455988370001251,0.9415694610001992,1.061652243000026,1.2136509440001646,0.0,0.0,0.0,0.0,champ,medwf,medbf
28,s183,28,vodka,vo,od,dk,ka,v,o,d,k,a,,,,,0.8655469359996459,1.1214633889999277,1.4014227769998797,1.6014833409999483,1.7135636739999427,0.0,0.0,0.0,0.0,vodka,medwf,lowbf
29,s183,29,cheer,ch,he,ee,er,c,h,e,e,r,,,,,0.6697818759998881,0.837678873999721,1.0617708780000612,1.2457227299996703,1.4217844519998835,0.0,0.0,0.0,0.0,cheer,medwf,highbf
30,s183,30,lucky,lu,uc,ck,ky,l,u,c,k,y,,,,,0.7538622150000265,1.0419064590000744,1.1538598689999162,1.3059073809999973,1.5139295929998298,0.0,0.0,0.0,0.0,lucky,highwf,lowbf
31,s183,31,think,th,hi,in,nk,t,h,i,n,k,,,,,0.7095898709999346,0.7975979170000755,0.8935868700000356,1.037710054999934,1.133622940999885,0.0,0.0,0.0,0.0,think,highwf,highbf
32,s183,32,vanru,va,an,nr,ru,v,a,n,r,u,,,,,1.113657651000267,1.2735470860002351,1.4335882200002743,1.657656445000157,1.8736616950000098,0.0,0.0,0.0,0.0,vanru,pseudo,medbf
33,s183,33,kremp,kr,re,em,mp,k,r,e,m,p,,,,,0.9975209979997999,1.1416408639997826,1.213623102999918,1.381617763000122,1.5255394279997745,0.0,0.0,0.0,0.0,kremp,pseudo,medbf
34,s183,34,vodka,vo,od,dk,ka,v,o,k,backspace,d,k,a,,,0.8736293560000377,1.065722124000331,1.2417440970002644,1.745689276000121,1.9617309560003378,2.113685922000059,2.18570430400041,0.0,0.0,vokbackspacedka,medwf,lowbf
35,s183,35,there,th,he,er,re,t,h,e,r,e,,,,,0.7570789009996588,0.8531192499999634,0.9732068289999916,1.0691633910000746,1.2212080629997217,0.0,0.0,0.0,0.0,there,highwf,highbf
36,s183,36,tithe,ti,it,th,he,t,i,t,h,e,,,,,0.7218874839995806,0.8258377349998227,1.0338107099996705,1.0818815769998764,1.2338186959996165,0.0,0.0,0.0,0.0,tithe,lowwf,highbf
37,s183,37,heond,he,eo,on,nd,h,e,o,n,d,,,,,1.0055727680000928,1.125436751000052,1.2615508449998742,1.4375720799998817,1.6215750369997295,0.0,0.0,0.0,0.0,heond,pseudo,highbf
38,s183,38,vodka,vo,od,dk,ka,v,o,d,k,a,,,,,1.113743119999981,1.2657669350001015,1.4737746989999323,1.6497816979999698,1.7377701099999285,0.0,0.0,0.0,0.0,vodka,medwf,lowbf
39,s183,39,heond,he,eo,on,nd,h,e,o,n,d,,,,,0.9819560620003358,1.2058775010000318,1.3499851620003938,1.5339338140001928,1.8540280720003466,0.0,0.0,0.0,0.0,heond,pseudo,highbf
40,s183,40,faqir,fa,aq,qi,ir,f,a,q,i,r,,,,,0.7777224729998125,0.9137553959999423,1.1216425470001923,1.3377137460001904,1.5296613569998954,0.0,0.0,0.0,0.0,faqir,lowwf,lowbf
41,s183,41,buddy,bu,ud,dd,dy,b,u,d,d,y,,,,,0.6855861969997932,0.8375719800001207,1.1014729029998307,1.2535799349998342,1.3815756740000324,0.0,0.0,0.0,0.0,buddy,highwf,lowbf
42,s183,42,puppy,pu,up,pp,py,p,u,p,p,y,,,,,0.8976549620001606,1.1376531739997517,1.3377522229998249,1.473767050999868,1.6176494119999916,0.0,0.0,0.0,0.0,puppy,medwf,lowbf
43,s183,43,therm,th,he,er,rm,t,h,e,r,m,,,,,0.9414277070000026,1.0452783989999261,1.1814060570000038,1.2853708650000044,1.453407698999854,0.0,0.0,0.0,0.0,therm,lowwf,highbf
44,s183,44,vanru,va,an,nr,ru,v,a,n,r,u,,,,,0.8018265220002831,0.9218340010002066,1.0658231800002795,1.313852123000288,1.5937104489999,0.0,0.0,0.0,0.0,vanru,pseudo,medbf
45,s183,45,zibja,zi,ib,bj,ja,z,i,b,j,a,,,,,1.197754625000016,1.4537823840000783,1.6457334570000057,1.8138214809996498,1.9498617720000766,0.0,0.0,0.0,0.0,zibja,pseudo,lowbf
46,s183,46,kremp,kr,re,em,mp,k,r,e,m,p,,,,,0.9356158329997015,1.0956187219999265,1.1597067229999993,1.2637211960000059,1.3915987639998093,0.0,0.0,0.0,0.0,kremp,pseudo,medbf
47,s183,47,therm,th,he,er,rm,t,h,e,r,m,,,,,0.6855727010001829,0.7815719929999432,0.8935719790001713,0.9815609770002993,1.0854974900003072,0.0,0.0,0.0,0.0,therm,lowwf,highbf
48,s183,48,belly,be,el,ll,ly,b,e,l,l,y,,,,,0.6573878049998712,0.7695119539998814,0.8895111100000577,1.0333802539998942,1.1214606950002235,0.0,0.0,0.0,0.0,belly,medwf,medbf
49,s183,49,about,ab,bo,ou,ut,a,b,o,u,t,,,,,0.6532357549999688,0.7572348349999629,0.9171139149998453,1.0931084680000822,1.1971241370001735,0.0,0.0,0.0,0.0,about,highwf,medbf
50,s183,50,kremp,kr,re,em,mp,k,r,e,m,l,o,p,,,0.7054309009999997,0.8654935129998194,0.9214693600001738,1.0173600660000375,1.1775207710002178,1.1853528309998183,1.2973869020001985,0.0,0.0,kremlop,pseudo,medbf
51,s183,51,vodka,vo,od,dk,ka,v,o,d,k,a,,,,,0.7815715360002287,0.9495976860002884,1.2216022370002975,1.405501034000281,1.5094873390003158,0.0,0.0,0.0,0.0,vodka,medwf,lowbf
52,s183,52,there,th,he,er,re,t,h,e,r,e,,,,,0.7619179299999814,0.8499557529999038,0.9458969840002283,1.0499555430001237,1.161933640999905,0.0,0.0,0.0,0.0,there,highwf,highbf
53,s183,53,cheer,ch,he,ee,er,c,h,e,e,r,,,,,0.6773761619997458,0.8613321459997678,1.0133315260000018,1.22136353399992,1.3413394959998186,0.0,0.0,0.0,0.0,cheer,medwf,highbf
54,s183,54,buddy,bu,ud,dd,dy,b,u,f,f,d,y,,,,0.6094222319998153,0.7854981589998715,0.9854630999998335,1.169550049999998,1.8734356360000675,2.001541768000152,0.0,0.0,0.0,buffdy,highwf,lowbf
55,s183,55,tithe,ti,it,th,he,t,i,t,h,e,,,,,0.6776445070004229,0.8696072890002142,1.0454893590003849,1.1334865430003447,1.253606067000419,0.0,0.0,0.0,0.0,tithe,lowwf,highbf
56,s183,56,therm,th,he,er,rm,t,h,e,r,m,,,,,0.6254497760000959,0.7375493829999868,0.7934312790002878,0.9054378570003792,1.0014370630001395,0.0,0.0,0.0,0.0,therm,lowwf,highbf
57,s183,57,edthe,ed,dt,th,he,e,d,t,h,e,,,,,0.8373789359998227,1.0133897719997549,1.2214159249997465,1.3573213859999669,1.4533489989998998,0.0,0.0,0.0,0.0,edthe,pseudo,highbf
58,s183,58,pykka,py,yk,kk,ka,p,y,k,k,a,,,,,1.481481074000385,1.6174313440001242,2.0174285670000245,2.1695026820002568,2.265538669000307,0.0,0.0,0.0,0.0,pykka,pseudo,lowbf
59,s183,59,about,ab,bo,ou,ut,a,b,o,u,t,,,,,0.6455293370004256,0.7175193980001495,0.8775916930003405,1.0616371109999818,1.1256867030001558,0.0,0.0,0.0,0.0,about,highwf,medbf
60,s183,60,belly,be,el,ll,ly,b,e,l,l,y,,,,,0.6412938329999633,0.7614346929999556,0.8893753949996608,1.0333671639996282,1.1534016279997559,0.0,0.0,0.0,0.0,belly,medwf,medbf
61,s183,61,cheer,ch,he,ee,er,c,h,e,e,r,,,,,0.6692132370003492,0.8532196959999965,1.0052744800000255,1.1892702550003378,1.35726901299995,0.0,0.0,0.0,0.0,cheer,medwf,highbf
62,s183,62,belly,be,el,ll,ly,b,e,l,l,y,,,,,0.7211771689999296,0.8250396089997594,0.9691527069999211,1.1290961740000967,1.2651611539999976,0.0,0.0,0.0,0.0,belly,medwf,medbf
63,s183,63,haole,ha,ao,ol,le,h,a,o,l,e,,,,,0.8536589159998584,0.9496371929999441,1.2856277000000773,1.4296446499997728,1.5576669970000694,0.0,0.0,0.0,0.0,haole,lowwf,medbf
64,s183,64,champ,ch,ha,am,mp,c,h,a,m,p,,,,,1.1053176860000349,1.2252757109999948,1.3053770700003042,1.5373184019999826,1.6973498209999889,0.0,0.0,0.0,0.0,champ,medwf,medbf
65,s183,65,haole,ha,ao,ol,le,h,a,o,l,e,,,,,0.7894549590000679,0.8932973689998107,1.1333858109996982,1.2932821929998681,1.453404013999716,0.0,0.0,0.0,0.0,haole,lowwf,medbf
66,s183,66,vanru,va,an,nr,ru,v,a,n,r,u,,,,,0.7216516200001024,0.8815921200002776,1.0656541840003229,1.3696919730000445,1.561716195000372,0.0,0.0,0.0,0.0,vanru,pseudo,medbf
67,s183,67,lucky,lu,uc,ck,ky,l,u,c,k,y,,,,,0.7253411490000872,0.9812785980002445,1.0853786790003142,1.2213901810000607,1.4053861100001086,0.0,0.0,0.0,0.0,lucky,highwf,lowbf
68,s183,68,think,th,hi,in,nk,t,h,i,n,k,,,,,0.6171477570001116,0.7211380359999566,0.833247005999965,0.9452886220001346,1.073219637999955,0.0,0.0,0.0,0.0,think,highwf,highbf
69,s183,69,vanru,va,an,nr,ru,v,a,n,r,u,,,,,0.7572045090000756,0.8931356460002462,1.0692025380003543,1.4452233790002538,1.605214272000012,0.0,0.0,0.0,0.0,vanru,pseudo,medbf
70,s183,70,think,th,hi,in,nk,t,h,n,k,,,,,,0.6494623710000269,0.7614645349999591,0.9694900599997709,1.6334874109998054,0.0,0.0,0.0,0.0,0.0,thnk,highwf,highbf
71,s183,71,faqir,fa,aq,qi,ir,f,a,q,i,r,,,,,0.7333457270001418,0.9172389380000823,1.20536199199978,1.4212747390001823,1.6453072230001453,0.0,0.0,0.0,0.0,faqir,lowwf,lowbf
72,s183,72,haole,ha,ao,ol,le,h,a,o,l,e,,,,,0.8253239969999413,0.9213340530000096,1.1293127439998898,1.2892985670000598,1.4012922030001391,0.0,0.0,0.0,0.0,haole,lowwf,medbf
73,s183,73,there,th,he,er,re,t,h,e,r,,,,,,0.701205157000004,0.7812698689999706,0.9092074250002042,1.005325680000169,0.0,0.0,0.0,0.0,0.0,ther,highwf,highbf
74,s183,74,buddy,bu,ud,dd,dy,b,u,d,d,y,,,,,0.689213749999908,0.8091418280000653,1.0331553139999414,1.2892055880001863,1.497242554999957,0.0,0.0,0.0,0.0,buddy,highwf,lowbf
75,s183,75,cooed,co,oo,oe,ed,c,o,o,o,e,d,,,,0.8375954299999648,1.0935071949998019,1.2455220819997521,1.3735215399997287,1.5175002519999907,1.6695867769999495,0.0,0.0,0.0,coooed,lowwf,medbf
76,s183,76,zibja,zi,ib,bj,ja,x,backspace,z,i,b,j,a,,,0.9611546649998672,1.3451441450001766,1.5450811269997757,1.7450800199999321,1.9051506229998267,2.0331462700000884,2.153127003999998,0.0,0.0,xbackspacezibja,pseudo,lowbf
77,s183,77,would,wo,ou,ul,ld,w,o,u,l,d,,,,,0.8212694969997756,0.9091476389999116,1.0852557529997284,1.2132560209997791,1.3572762320000038,0.0,0.0,0.0,0.0,would,highwf,medbf
78,s183,78,think,th,hi,in,nk,t,h,i,n,k,,,,,0.6575344149996454,0.7775517739996758,0.8495757089999643,1.0094653629998902,1.145614691999981,0.0,0.0,0.0,0.0,think,highwf,highbf
79,s183,79,cooed,co,oo,oe,ed,c,o,o,e,d,,,,,0.9493081200002962,1.117236461000175,1.2613605780002217,1.4613516280001022,1.5972884050001994,0.0,0.0,0.0,0.0,cooed,lowwf,medbf
80,s183,80,edthe,ed,dt,th,he,e,d,t,h,e,,,,,0.7454366250003659,0.8974038290002682,1.0973915470003703,1.2413887850002538,1.3293461470002512,0.0,0.0,0.0,0.0,edthe,pseudo,highbf
81,s183,81,puppy,pu,up,pp,py,p,u,p,p,y,,,,,0.797522367000056,1.0454702729998644,1.2535745959999076,1.405463827999938,1.5495672490001198,0.0,0.0,0.0,0.0,puppy,medwf,lowbf
82,s183,82,haole,ha,ao,ol,le,h,a,o,l,e,,,,,0.8416925490000722,0.9457249780002712,1.1296440190003523,1.273695790000147,1.3776814940001714,0.0,0.0,0.0,0.0,haole,lowwf,medbf
83,s183,83,druze,dr,ru,uz,ze,d,r,i,z,e,,,,,0.8127183270003115,0.9886964910001552,1.140706696000052,1.4286985180001466,1.6607277340003748,0.0,0.0,0.0,0.0,drize,lowwf,lowbf
84,s183,84,faqir,fa,aq,qi,ir,f,a,q,i,r,,,,,0.785197523000079,0.9451773750001848,1.1852202999998553,1.4091492090001339,1.5692178300000705,0.0,0.0,0.0,0.0,faqir,lowwf,lowbf
85,s183,85,tithe,ti,it,th,he,t,i,t,h,e,,,,,0.6691943979999451,0.8370778620001147,1.0131724689999828,1.0851870799997414,1.2291064790001656,0.0,0.0,0.0,0.0,tithe,lowwf,highbf
86,s183,86,zibja,zi,ib,bj,ja,z,i,b,j,a,,,,,1.0169575260001693,1.1929626679998364,1.4089567510000052,1.5530712049999238,1.6890807859999768,0.0,0.0,0.0,0.0,zibja,pseudo,lowbf
87,s183,87,theme,th,he,em,me,t,h,e,m,e,,,,,0.7491197809999903,0.8371083379997799,0.9731221849997382,1.0930118609999226,1.2211153959997318,0.0,0.0,0.0,0.0,theme,medwf,highbf
88,s183,88,about,ab,bo,ou,ut,a,b,o,u,t,,,,,0.7050172730000668,0.8089602420000119,0.9610687720000897,1.1370557420000296,1.2409646900000553,0.0,0.0,0.0,0.0,about,highwf,medbf
89,s183,89,pykka,py,yk,kk,ka,p,y,k,k,a,,,,,1.0694226450000315,1.3255278980000185,1.557478139000068,1.685463364000043,1.7974030549999043,0.0,0.0,0.0,0.0,pykka,pseudo,lowbf
90,s183,90,druze,dr,ru,uz,ze,d,r,u,z,e,,,,,0.7691838239998106,0.953184274999785,1.24917407599969,1.4091540629997326,1.609141941999951,0.0,0.0,0.0,0.0,druze,lowwf,lowbf
91,s183,91,cooed,co,oo,oe,ed,c,o,o,e,d,,,,,1.133434214999852,1.3974061489998348,1.5413351059996785,1.7094003929996688,1.8694424450000042,0.0,0.0,0.0,0.0,cooed,lowwf,medbf
92,s183,92,druze,dr,ru,uz,ze,d,r,u,z,e,,,,,0.7695600629999717,0.9535317509999004,1.241622555000049,1.3934848280000551,1.5774835069996698,0.0,0.0,0.0,0.0,druze,lowwf,lowbf
93,s183,93,vanru,va,an,nr,ru,v,a,n,r,u,,,,,0.7652920159998757,0.9253597970000556,1.1492871020000166,1.333262280999861,1.5011808700000984,0.0,0.0,0.0,0.0,vanru,pseudo,medbf
94,s183,94,pykka,py,yk,kk,ka,p,y,k,k,a,,,,,0.7614125300001433,1.0813791310001761,1.3374295870003152,1.4813670180001282,1.5614096150002297,0.0,0.0,0.0,0.0,pykka,pseudo,lowbf
95,s183,95,puppy,pu,up,pp,py,p,u,p,p,t,y,,,,0.7969234560000586,1.028871251000055,1.2208996140002455,1.372951372999978,1.5089673980000953,1.5249689840002247,0.0,0.0,0.0,puppty,medwf,lowbf
96,s183,96,lucky,lu,uc,ck,ky,l,u,c,k,y,,,,,0.8091148630001044,1.0091314360001888,1.561210833000132,1.6971969780001928,1.8731958769999437,0.0,0.0,0.0,0.0,lucky,highwf,lowbf
97,s183,97,kremp,kr,re,em,mp,k,r,e,m,p,o,,,,0.8213520029999017,0.9572357609999926,0.9973560550001821,1.0932402820003517,1.19730007499993,1.2053588630001286,0.0,0.0,0.0,krempo,pseudo,medbf
98,s183,98,heond,he,eo,on,nd,h,e,o,n,d,,,,,0.7610591749999003,0.9530774720001318,1.0810101920001216,1.249078850999922,1.4410833649999404,0.0,0.0,0.0,0.0,heond,pseudo,highbf
99,s183,99,champ,ch,ha,am,mp,c,h,a,m,p,,,,,0.893061779999698,1.0051895319998039,1.0770602509996934,1.2290759039997283,1.3811281949997465,0.0,0.0,0.0,0.0,champ,medwf,medbf
100,s183,100,pykka,py,yk,kk,ka,p,y,k,k,a,,,,,0.7851463110000623,1.0811036609998155,1.3290520589998778,1.4651148069997362,1.5531502779999755,0.0,0.0,0.0,0.0,pykka,pseudo,lowbf
101,s183,101,cooed,co,oo,oe,ed,c,o,o,e,d,,,,,0.8369608019997941,1.0209791429997495,1.1569836630001191,1.2849459899998692,1.4288909110000532,0.0,0.0,0.0,0.0,cooed,lowwf,medbf
102,s183,102,theme,th,he,em,me,y,t,h,e,m,e,,,,0.696787299999869,0.7128279429998656,0.7927545969996572,0.9048325379999369,1.0327879070000563,1.144839266999952,0.0,0.0,0.0,ytheme,medwf,highbf
103,s183,103,heond,he,eo,on,nd,h,e,o,n,d,,,,,0.7891918770001212,0.9253719769999407,1.0373045289998117,1.213325070999872,1.2931935739998153,0.0,0.0,0.0,0.0,heond,pseudo,highbf
104,s183,104,would,wo,ou,ul,ld,w,o,u,l,d,,,,,0.9613841810000849,1.0731981990002168,1.2732448240003578,1.4412325780003812,1.5532217760001004,0.0,0.0,0.0,0.0,would,highwf,medbf
105,s183,105,champ,ch,ha,am,mp,c,h,a,m,p,,,,,0.7733595059999061,0.8773658740001338,0.9813717199999701,1.0933586440000909,1.229419832000076,0.0,0.0,0.0,0.0,champ,medwf,medbf
106,s183,106,lucky,lu,uc,ck,ky,l,u,c,k,y,,,,,0.8251714359998914,1.081049466999957,1.2091656319998947,1.3290625710001223,1.529015927999808,0.0,0.0,0.0,0.0,lucky,highwf,lowbf
107,s183,107,faqir,fa,aq,qi,ir,f,a,q,i,r,,,,,0.8371106109998436,0.9650888920000398,1.205145770999934,1.4611495019998983,1.6130587419997937,0.0,0.0,0.0,0.0,faqir,lowwf,lowbf
108,s183,108,there,th,he,er,re,t,h,e,r,e,,,,,0.7453496059997633,0.857347562999621,0.9533349529997395,1.025218187000064,1.2253296649996628,0.0,0.0,0.0,0.0,there,highwf,highbf
109,s183,109,heond,he,eo,on,nd,h,e,o,n,d,,,,,0.7809513970000808,0.932994588999918,1.0450147470000957,1.2209877740001502,1.3170103170000402,0.0,0.0,0.0,0.0,heond,pseudo,highbf
110,s183,110,about,ab,bo,ou,ut,a,b,o,u,t,,,,,0.6889910999998392,0.8008739599999899,0.968942590000097,1.136889237000105,1.208948140999837,0.0,0.0,0.0,0.0,about,highwf,medbf
111,s183,111,vodka,vo,od,dk,ka,v,o,d,a,k,,,,,0.9170567500000288,1.1010736799998995,1.3331739989998823,1.525192572999913,1.5810658939999485,0.0,0.0,0.0,0.0,vodak,medwf,lowbf
112,s183,112,edthe,ed,dt,th,he,e,d,t,h,e,,,,,1.249005066999871,1.3769272989998171,1.5369635309998557,1.6650010939997628,1.7450040629996693,0.0,0.0,0.0,0.0,edthe,pseudo,highbf
113,s183,113,pykka,py,yk,kk,ka,p,y,k,k,a,,,,,0.7090575000001991,0.997088972000256,1.205042190000313,1.3330923010003062,1.428995469000256,0.0,0.0,0.0,0.0,pykka,pseudo,lowbf
114,s183,114,buddy,bu,ud,dd,dy,b,u,d,d,y,,,,,0.6888801780000904,0.8328721859998041,1.0249103229998582,1.1928062859997226,1.296912839000015,0.0,0.0,0.0,0.0,buddy,highwf,lowbf
115,s183,115,would,wo,ou,ul,ld,w,o,u,l,d,,,,,0.9487752029999683,1.092692801999874,1.2767092039998715,1.4127789640001538,1.500684832999923,0.0,0.0,0.0,0.0,would,highwf,medbf
116,s183,116,kremp,kr,re,em,mp,k,r,e,m,p,,,,,0.8408373899997059,0.9768195910000941,1.0329298139999992,1.1608697209999264,1.2888344540001526,0.0,0.0,0.0,0.0,kremp,pseudo,medbf
117,s183,117,edthe,ed,dt,th,he,e,d,t,h,e,,,,,0.8208985820001544,0.9809503729998141,1.1569865840001512,1.3089457659998516,1.3809101970000484,0.0,0.0,0.0,0.0,edthe,pseudo,highbf
118,s183,118,would,wo,ou,ul,ld,w,o,u,l,d,,,,,0.9289142299999185,1.4330322569999225,1.6809261170001264,1.8489945329997681,1.928907445999812,0.0,0.0,0.0,0.0,would,highwf,medbf
119,s183,119,druze,dr,ru,uz,ze,d,r,u,z,e,,,,,0.949132140999609,1.1251281299996663,1.3571296069999335,1.5491292009996869,1.7491336250000131,0.0,0.0,0.0,0.0,druze,lowwf,lowbf
120,s183,120,there,th,he,er,re,t,h,e,r,e,,,,,0.9212223230001655,1.017128902999957,1.137085285000012,1.2172133429999121,1.369089489000089,0.0,0.0,0.0,0.0,there,highwf,highbf
121,s183,121,kremp,kr,re,em,mp,k,r,e,m,p,,,,,0.7947272530000191,0.9467530269998861,0.9867134179999084,1.1067128390000107,1.5547610990001886,0.0,0.0,0.0,0.0,kremp,pseudo,medbf
122,s183,122,tithe,ti,it,th,he,t,h,i,r,h,e,,,,0.6787793049998072,0.7988596669997605,1.6469006219999756,1.8148063399999046,1.9507891059997746,2.1188953070000025,0.0,0.0,0.0,thirhe,lowwf,highbf
123,s183,123,cooed,co,oo,oe,ed,c,o,o,e,d,,,,,0.8026780860000144,1.0107405579997248,1.154695031999836,1.3066347609997138,1.4426402359999884,0.0,0.0,0.0,0.0,cooed,lowwf,medbf
124,s183,124,heond,he,eo,on,nd,h,e,o,n,d,,,,,0.7828702930000873,0.9587933100001464,1.4148783470000126,1.57496197699993,1.7988455459999386,0.0,0.0,0.0,0.0,heond,pseudo,highbf
125,s183,125,tithe,ti,it,th,he,t,i,t,h,e,,,,,0.8587065490000896,1.0506828770003267,1.3146914280000601,1.3867414370001825,1.546803195999928,0.0,0.0,0.0,0.0,tithe,lowwf,highbf
126,s183,126,haole,ha,ao,ol,le,h,a,o,l,e,,,,,0.806717289000062,1.0467383499999414,1.24672742499979,1.3987194649998855,1.4947734699999273,0.0,0.0,0.0,0.0,haole,lowwf,medbf
127,s183,127,think,th,hi,in,nk,t,h,i,n,k,,,,,0.7146167770001739,0.8346246480000445,0.9305242320001526,1.0826296700001876,1.1866674630000489,0.0,0.0,0.0,0.0,think,highwf,highbf
128,s183,128,kremp,kr,re,em,mp,k,r,e,m,p,o,,,,0.8706003160000364,1.0146902260003117,1.0626848820002124,1.150618974000281,1.2467296710001392,1.2547331590003523,0.0,0.0,0.0,krempo,pseudo,medbf
129,s183,129,theme,th,he,em,me,t,h,e,m,e,,,,,0.659099390999927,0.7951166429998011,0.907094431999667,1.0671057659997132,1.2110813179997422,0.0,0.0,0.0,0.0,theme,medwf,highbf
130,s183,130,druze,dr,ru,uz,ze,d,r,u,z,e,,,,,0.8550274160002118,1.0389701200001582,1.255026767000345,1.4710446860003685,1.6870356410004206,0.0,0.0,0.0,0.0,druze,lowwf,lowbf
131,s183,131,faqir,fa,aq,qi,ir,f,a,q,i,r,,,,,0.8667914840002595,1.3387519070001872,1.546861772000284,1.7868176000001768,1.914753271000336,0.0,0.0,0.0,0.0,faqir,lowwf,lowbf
132,s183,132,cooed,co,oo,oe,ed,c,o,o,e,d,,,,,0.7748991240000578,1.0307796490001238,1.1828775859999041,1.318906855000023,1.4627989400000843,0.0,0.0,0.0,0.0,cooed,lowwf,medbf
133,s183,133,belly,be,el,ll,ly,b,e,l,l,y,,,,,0.7388157589998627,0.8587779650001721,1.0268069590001687,1.1868918870000016,1.2748991930002376,0.0,0.0,0.0,0.0,belly,medwf,medbf
134,s183,134,theme,th,he,em,me,t,h,e,m,e,,,,,0.7187010960001317,0.8387026870000227,0.9986506059999556,1.1666781369999626,1.2706313960002262,0.0,0.0,0.0,0.0,theme,medwf,highbf
135,s183,135,lucky,lu,uc,ck,ky,l,u,c,k,y,,,,,0.8826915049999116,1.114631374000055,1.266698690999874,1.4347173179999118,1.6026917559997855,0.0,0.0,0.0,0.0,lucky,highwf,lowbf
136,s183,136,about,ab,bo,ou,ut,a,b,p,o,u,t,,,,0.6946723599999132,0.8067041599997538,0.966695227999935,1.0066969069998777,1.1265840719997868,1.2626200199997584,0.0,0.0,0.0,abpout,highwf,medbf
137,s183,137,haole,ha,ao,ol,le,h,a,o,l,e,,,,,0.7628488569998808,0.8989072529998339,1.450818713999979,1.586855665999792,1.66691240199998,0.0,0.0,0.0,0.0,haole,lowwf,medbf
138,s183,138,heond,he,eo,on,nd,h,e,o,n,d,,,,,0.7588309049997406,0.8949630029997024,1.0069321529999797,1.1989366210000298,1.4708896309998636,0.0,0.0,0.0,0.0,heond,pseudo,highbf
139,s183,139,belly,be,el,ll,ly,b,e,l,l,y,,,,,0.6907817440001054,0.8027844319999531,0.9547002290000819,1.098787865000304,1.2027817220000543,0.0,0.0,0.0,0.0,belly,medwf,medbf
140,s183,140,lucky,lu,uc,ck,ky,l,u,c,k,y,,,,,0.8307510989998264,1.0706927900000665,1.2307514119997904,1.3507084900002155,1.5188222329998098,0.0,0.0,0.0,0.0,lucky,highwf,lowbf
141,s183,141,vodka,vo,od,dk,ka,v,o,d,k,a,,,,,1.0185258589999648,1.2185599659997024,1.4264627259999543,1.6825242999998409,1.8025841049998235,0.0,0.0,0.0,0.0,vodka,medwf,lowbf
142,s183,142,edthe,ed,dt,th,he,e,d,t,h,e,,,,,0.9983766310001556,1.1664421310001671,1.2783345279999594,1.4063980270002503,1.4944967179999367,0.0,0.0,0.0,0.0,edthe,pseudo,highbf
143,s183,143,belly,be,el,ll,ly,b,e,l,l,y,,,,,0.6986866479996934,0.8187099100000523,0.9547318969998742,1.0987169469999571,1.1867178269999386,0.0,0.0,0.0,0.0,belly,medwf,medbf
144,s183,144,heond,he,eo,on,nd,h,e,o,n,d,,,,,0.8310414289999244,0.9509974799998417,1.0631361060000017,1.2150463989996751,1.311067998999988,0.0,0.0,0.0,0.0,heond,pseudo,highbf
145,s183,145,about,ab,bo,ou,ut,a,b,o,u,t,,,,,0.7145679810000729,0.7705994699999792,0.9385496330000933,1.098595639999985,1.2585379189999912,0.0,0.0,0.0,0.0,about,highwf,medbf
146,s183,146,tithe,ti,it,th,he,t,i,t,h,e,,,,,0.7026707559998613,0.838682315999904,0.9986307929998475,1.1026681940002163,1.214564289000009,0.0,0.0,0.0,0.0,tithe,lowwf,highbf
147,s183,147,theme,th,he,em,me,t,h,e,m,e,,,,,0.6667388299997583,0.7307671999997183,0.9386678379996738,0.9867612029997872,1.1786585529998774,0.0,0.0,0.0,0.0,theme,medwf,highbf
148,s183,148,cheer,ch,he,ee,er,c,h,e,e,r,,,,,0.782593377000012,0.942480784000054,1.07060245699995,1.2465296720001788,1.4065147169999364,0.0,0.0,0.0,0.0,cheer,medwf,highbf
149,s183,149,think,th,hi,in,nk,t,h,i,n,k,,,,,0.7466557620000458,0.8505421380000371,0.9546036219999223,1.0986478290001287,1.202611555999738,0.0,0.0,0.0,0.0,think,highwf,highbf
150,s183,150,heond,he,eo,on,nd,h,e,o,n,d,,,,,0.7669630469999902,0.8869664290000401,1.0149362150000343,1.166879278000124,1.3589232080003057,0.0,0.0,0.0,0.0,heond,pseudo,highbf
151,s183,151,buddy,bu,ud,dd,dy,b,u,d,d,y,,,,,1.1068445810001322,1.2588267989999622,1.4347237179999865,1.5868536940001832,1.7147666410000966,0.0,0.0,0.0,0.0,buddy,highwf,lowbf
152,s183,152,druze,dr,ru,uz,ze,d,r,u,z,e,,,,,0.8705350149998594,1.1185057589996177,1.3905360409999048,1.6225353689997064,1.878542520999872,0.0,0.0,0.0,0.0,druze,lowwf,lowbf
153,s183,153,therm,th,he,er,rm,t,h,e,r,m,,,,,0.6505627249998724,0.8186327250000431,0.9305759029998626,1.018642932000148,1.114610748999894,0.0,0.0,0.0,0.0,therm,lowwf,highbf
154,s183,154,tithe,ti,it,th,he,t,i,t,h,e,,,,,0.7427728170000591,0.8468522250000206,1.046878291000212,1.1108445300001222,1.2788590230002228,0.0,0.0,0.0,0.0,tithe,lowwf,highbf
155,s183,155,zibja,zi,ib,bj,ja,z,i,b,j,a,,,,,1.0824093579999499,1.322418283999923,1.5304233009997006,1.658443762999923,1.8343396309996933,0.0,0.0,0.0,0.0,zibja,pseudo,lowbf
156,s183,156,champ,ch,ha,am,mp,c,h,a,m,p,,,,,0.9185263790000135,1.0465048299997761,1.1584509360000084,1.2624226329999146,1.382520244999796,0.0,0.0,0.0,0.0,champ,medwf,medbf
157,s183,157,cheer,ch,he,ee,er,c,h,e,e,r,,,,,0.7306189540004198,0.8585905950003507,1.0026187470002697,1.1705840260001423,1.3306092430002536,0.0,0.0,0.0,0.0,cheer,medwf,highbf
158,s183,158,heond,he,eo,on,nd,h,e,o,n,d,,,,,0.8550163310001153,1.0070801290003146,1.110989962000076,1.247064500000306,1.3349551830001474,0.0,0.0,0.0,0.0,heond,pseudo,highbf
159,s183,159,champ,ch,ha,am,mp,c,h,a,m,p,,,,,0.6909686609997152,0.8268608209996273,0.9229716349996124,1.0268350989999817,1.1469564319995698,0.0,0.0,0.0,0.0,champ,medwf,medbf
160,s183,160,belly,be,el,ll,ly,b,e,l,l,y,,,,,0.6869955080001091,0.7908714860000146,0.9268862860003537,1.0790024870002526,1.1829260780000368,0.0,0.0,0.0,0.0,belly,medwf,medbf
161,s183,161,zibja,zi,ib,bj,ja,z,o,b,j,a,,,,,0.8825123209999219,1.3305198570001266,1.570514792999802,1.6985513589997936,1.826452431999769,0.0,0.0,0.0,0.0,zobja,pseudo,lowbf
162,s183,162,edthe,ed,dt,th,he,e,d,t,h,e,,,,,0.7823061950002739,0.9583014730001196,1.1663044450001507,1.3101881190000313,1.3181897520003076,0.0,0.0,0.0,0.0,edthe,pseudo,highbf
163,s183,163,would,wo,ou,ul,ld,w,o,u,y,l,d,,,,0.6421469550000438,0.8501068239997949,1.0100105899996379,1.018022777999704,1.1701304680000248,1.290142793999621,0.0,0.0,0.0,wouyld,highwf,medbf
164,s183,164,lucky,lu,uc,ck,ky,l,u,c,k,y,,,,,0.6697208509999655,0.877716805000091,0.9896649499996784,1.109689526999773,1.253654768999695,0.0,0.0,0.0,0.0,lucky,highwf,lowbf
165,s183,165,pykka,py,yk,kk,ka,p,y,k,k,a,,,,,0.9135905359999015,1.2334992169999168,1.497507929999756,1.6335036169998602,1.697569982999994,0.0,0.0,0.0,0.0,pykka,pseudo,lowbf
166,s183,166,buddy,bu,ud,dd,dy,b,u,d,d,y,,,,,0.709949732000041,0.8459848630000124,1.2860460570000214,1.470032478000121,1.6380540710001696,0.0,0.0,0.0,0.0,buddy,highwf,lowbf
167,s183,167,kremp,kr,re,em,mp,k,r,e,m,p,,,,,0.8579468830002952,0.9859179539998877,1.033821739999894,1.1219463160000487,1.2019325470000695,0.0,0.0,0.0,0.0,kremp,pseudo,medbf
168,s183,168,buddy,bu,ud,dd,dy,b,u,d,d,y,,,,,0.8539579299999787,0.9739796909998404,1.1899446990000797,1.341894603000128,1.493869653999809,0.0,0.0,0.0,0.0,buddy,highwf,lowbf
169,s183,169,vanru,va,an,nr,ru,v,a,n,r,u,,,,,0.8661744139999428,1.0661775879998459,1.2661746249996213,1.5142178559999593,1.6821547810000084,0.0,0.0,0.0,0.0,vanru,pseudo,medbf
170,s183,170,theme,th,he,em,me,t,h,e,m,e,,,,,0.7259218979997968,0.8539371709998704,0.9739264780000667,1.1099247229999492,1.1978554389997953,0.0,0.0,0.0,0.0,theme,medwf,highbf
171,s183,171,champ,ch,ha,am,mp,c,h,a,m,p,,,,,0.7139202810003553,0.8659562610000648,0.9539594689999831,1.0660032120003962,1.1859570760002498,0.0,0.0,0.0,0.0,champ,medwf,medbf
172,s183,172,vanru,va,an,nr,ru,v,a,s,n,r,u,,,,0.6940576199999668,0.8380075520003629,0.8460535340000206,0.9901100770002813,1.238112210000054,1.3739921210003558,0.0,0.0,0.0,vasnru,pseudo,medbf
173,s183,173,zibja,zi,ib,bj,ja,z,i,b,j,a,,,,,0.9776698340001531,1.3536700979998386,1.5216974810000465,1.785689014000127,1.9296745719998398,0.0,0.0,0.0,0.0,zibja,pseudo,lowbf
174,s183,174,there,th,he,er,re,t,h,e,r,,,,,,0.686167827999725,0.8062386609999521,0.894084152999767,0.9740575430000717,0.0,0.0,0.0,0.0,0.0,ther,highwf,highbf
175,s183,175,buddy,bu,ud,dd,dy,b,u,d,d,y,,,,,0.7778277329998673,0.9058104470000217,1.0818542289998732,1.2578651730000274,1.4257556899997326,0.0,0.0,0.0,0.0,buddy,highwf,lowbf
176,s183,176,cooed,co,oo,oe,ed,c,o,o,e,d,,,,,0.9176533569998355,1.2216432989998793,1.3657224279995717,1.5017387419998158,1.6298020269996414,0.0,0.0,0.0,0.0,cooed,lowwf,medbf
177,s183,177,puppy,pu,up,pp,py,p,u,p,p,y,,,,,0.7937972509998872,1.1057159530000717,1.3138100460000715,1.4337189980001313,1.5618009820000225,0.0,0.0,0.0,0.0,puppy,medwf,lowbf
178,s183,178,cooed,co,oo,oe,ed,c,o,o,e,d,,,,,0.8615574139998898,1.0296120039997732,1.1815767140001299,1.3174583330001042,1.4615527760001896,0.0,0.0,0.0,0.0,cooed,lowwf,medbf
179,s183,179,druze,dr,ru,uz,ze,d,r,t,u,z,e,,,,0.8094213579997813,0.9934187469998506,1.0014147929996398,1.2495234049997634,1.5614965169997959,1.8334159109999746,0.0,0.0,0.0,drtuze,lowwf,lowbf
180,s183,180,about,ab,bo,ou,ut,a,b,o,u,t,,,,,0.6537754190003398,0.7976944010001716,0.9497128840002915,1.101758067999981,1.1976919329999873,0.0,0.0,0.0,0.0,about,highwf,medbf
181,s183,181,there,th,he,er,re,t,h,e,r,e,,,,,0.8177024569999958,0.9297666050001681,1.0578107649998856,1.185755741000321,1.3217561159999605,0.0,0.0,0.0,0.0,there,highwf,highbf
182,s183,182,vanru,va,an,nr,ru,v,a,n,r,u,,,,,0.757875002000219,0.9737498419999611,1.1498127989998466,1.4057543590001842,1.5498591189998479,0.0,0.0,0.0,0.0,vanru,pseudo,medbf
183,s183,183,about,ab,bo,ou,ut,a,b,o,u,t,,,,,0.617780319999838,0.7058923939998749,0.849879675000011,1.0097852179997062,1.113869840999996,0.0,0.0,0.0,0.0,about,highwf,medbf
184,s183,184,cheer,ch,he,ee,er,c,h,e,e,r,,,,,0.7415474019999237,0.9256459539997195,1.0776645549999557,1.2455663629998526,1.413634267999896,0.0,0.0,0.0,0.0,cheer,medwf,highbf
185,s183,185,pykka,py,yk,kk,ka,p,y,k,k,a,,,,,0.8094654259998606,1.0974624320001567,1.3775444200000493,1.5055310809998446,1.617458417999842,0.0,0.0,0.0,0.0,pykka,pseudo,lowbf
186,s183,186,vodka,vo,od,dk,ka,v,o,d,a,k,,,,,1.085825616999955,1.2778466349996052,1.62983825099991,1.7817811390000315,1.9578308129998732,0.0,0.0,0.0,0.0,vodak,medwf,lowbf
187,s183,187,druze,dr,ru,uz,ze,d,r,u,z,e,,,,,0.8019016830003238,0.9859059410000555,1.2578396910002994,1.4018976639999892,1.6337875980002536,0.0,0.0,0.0,0.0,druze,lowwf,lowbf
188,s183,188,belly,be,el,ll,ly,b,e,l,l,y,,,,,0.7735619180002686,0.9255760810001448,1.0535696750002899,1.2056095719999576,1.3254940480001096,0.0,0.0,0.0,0.0,belly,medwf,medbf
189,s183,189,edthe,ed,dt,th,he,e,d,t,h,e,,,,,0.7936032320003505,0.9456000140003198,1.089700424000057,1.2175635280000279,1.2656756810001752,0.0,0.0,0.0,0.0,edthe,pseudo,highbf
190,s183,190,cheer,ch,he,ee,er,c,h,e,e,r,,,,,0.7257436949998919,0.8937029160001657,1.0857909299998028,1.2457105039998169,1.41383196400011,0.0,0.0,0.0,0.0,cheer,medwf,highbf
191,s183,191,vanru,va,an,nr,ru,v,a,n,r,u,,,,,0.8574882240000079,1.0333618260001458,1.3933903269999064,1.7054862449999746,1.8814742569998089,0.0,0.0,0.0,0.0,vanru,pseudo,medbf
192,s183,192,would,wo,ou,ul,ld,w,o,u,l,d,,,,,0.7895593990001544,0.9015323590001572,1.0855872570000429,1.2536471880002864,1.357646589000069,0.0,0.0,0.0,0.0,would,highwf,medbf
193,s183,193,about,ab,bo,ou,ut,a,b,o,u,t,,,,,0.6576803369998743,0.7536304559998825,0.921644649999962,1.0656115299998419,1.1777009980000912,0.0,0.0,0.0,0.0,about,highwf,medbf
194,s183,194,lucky,lu,uc,ck,ky,l,u,c,k,y,,,,,0.7336784380004246,0.9817161959999794,1.1577988840003854,1.3017798240002776,1.461762975000056,0.0,0.0,0.0,0.0,lucky,highwf,lowbf
195,s183,195,edthe,ed,dt,th,he,e,d,t,h,e,,,,,0.7780348119999871,0.9300060220002706,1.0820308470001692,1.2420453859999725,1.2499932929999886,0.0,0.0,0.0,0.0,edthe,pseudo,highbf
196,s183,196,champ,ch,ha,am,mp,c,h,a,m,p,,,,,0.6777220339999985,0.8215737750001608,0.9095802260003438,1.0296926190003433,1.1496482110001125,0.0,0.0,0.0,0.0,champ,medwf,medbf
197,s183,197,haole,ha,ao,ol,le,h,a,o,l,e,,,,,0.6896370989998104,0.8175681799998529,0.9537075049997839,1.0975977729999613,1.1935943929997848,0.0,0.0,0.0,0.0,haole,lowwf,medbf
198,s183,198,tithe,ti,it,th,he,t,i,t,h,e,,,,,0.7656505699997069,0.9016533320000235,1.0856581650000408,1.2296681190000527,1.3256342549998408,0.0,0.0,0.0,0.0,tithe,lowwf,highbf
199,s183,199,therm,th,he,er,rm,t,h,e,r,m,,,,,0.6975097539998387,0.8015730219999568,0.9135515039997699,1.0335723569996844,1.1056162939999012,0.0,0.0,0.0,0.0,therm,lowwf,highbf
200,s183,200,champ,ch,ha,am,mp,c,h,a,m,p,,,,,0.7417222860003676,0.8858103790003042,0.9418130779999956,1.0777628290002212,1.1818213430001379,0.0,0.0,0.0,0.0,champ,medwf,medbf
201,s183,201,haole,ha,ao,ol,le,h,a,o,l,e,,,,,0.8095864719998644,0.9936475190002056,1.329643267999927,1.4897087700001066,1.6096007129999634,0.0,0.0,0.0,0.0,haole,lowwf,medbf
202,s183,202,cooed,co,oo,oe,ed,c,o,o,e,d,,,,,0.7977420419997543,0.9977287469996554,1.1418427849998807,1.285819163999804,1.4219597729997986,0.0,0.0,0.0,0.0,cooed,lowwf,medbf
203,s183,203,think,th,hi,in,nk,t,h,i,n,k,,,,,0.6897341610001604,0.7697701940001025,0.8657655540000633,1.0016538209997634,1.0977099649999218,0.0,0.0,0.0,0.0,think,highwf,highbf
204,s183,204,vodka,vo,od,dk,ka,v,o,d,k,a,,,,,0.7734600859998864,0.9253761959998883,1.1654529239999647,1.3573417350003183,1.4933931360001225,0.0,0.0,0.0,0.0,vodka,medwf,lowbf
205,s183,205,faqir,fa,aq,qi,ir,f,a,q,i,r,,,,,1.17789833300003,1.3298792010000398,1.4977820069998415,1.6978325350000887,1.8658443270001044,0.0,0.0,0.0,0.0,faqir,lowwf,lowbf
206,s183,206,therm,th,he,er,rm,t,h,e,r,m,,,,,0.6935115480000604,0.8056109670001206,0.877499016999991,0.9974736930003019,1.0855737820002105,0.0,0.0,0.0,0.0,therm,lowwf,highbf
207,s183,207,faqir,fa,aq,qi,ir,f,a,q,i,r,,,,,0.9295236630000545,1.065627152000161,1.2495396499998606,1.473557208999864,1.609440586999881,0.0,0.0,0.0,0.0,faqir,lowwf,lowbf
208,s183,208,druze,dr,ru,uz,ze,d,r,u,z,e,,,,,0.8374935709998681,1.0134888960001263,1.2453863949999686,1.437381034000282,1.6454584709999835,0.0,0.0,0.0,0.0,druze,lowwf,lowbf
209,s183,209,zibja,zi,ib,bj,ja,z,i,b,j,a,,,,,0.9856519670001944,1.2896477660001437,1.529542198999934,1.6336257610000757,1.7935251560002143,0.0,0.0,0.0,0.0,zibja,pseudo,lowbf
210,s183,210,theme,th,he,em,me,t,h,e,m,e,,,,,0.7093454609998844,0.8214708519999476,0.965448104999723,1.093339248999655,1.22146047599972,0.0,0.0,0.0,0.0,theme,medwf,highbf
211,s183,211,zibja,zi,ib,bj,ja,z,i,b,j,a,,,,,0.9376555039998493,1.2577058780002517,1.4015764480000144,1.529733687999851,1.673581237000235,0.0,0.0,0.0,0.0,zibja,pseudo,lowbf
212,s183,212,think,th,hi,in,nk,t,h,i,n,k,,,,,0.7176977399999487,0.8377638570000272,0.9097020369999882,1.0698952759998974,1.1736958030001006,0.0,0.0,0.0,0.0,think,highwf,highbf
213,s183,213,would,wo,ou,ul,ld,w,o,u,l,d,,,,,0.9455573570003253,1.057641779000278,1.2896446110003126,1.4576479490001475,1.5776751010002954,0.0,0.0,0.0,0.0,would,highwf,medbf
214,s183,214,kremp,kr,re,em,mp,k,r,e,m,p,,,,,0.9018654960000276,1.0698675329999787,1.101830794000307,1.197767173000102,1.3097692920000554,0.0,0.0,0.0,0.0,kremp,pseudo,medbf
215,s183,215,would,wo,ou,ul,ld,w,o,u,l,d,,,,,0.7775289709998106,0.9295635749999747,1.161548923999817,1.329589840999688,1.4735733090001304,0.0,0.0,0.0,0.0,would,highwf,medbf
216,s183,216,faqir,fa,aq,qi,ir,f,a,q,i,r,,,,,0.7655394839998735,0.9415848710000319,1.173582715000066,1.3575225049999062,1.5334528690000298,0.0,0.0,0.0,0.0,faqir,lowwf,lowbf
217,s183,217,cheer,ch,he,ee,er,c,h,e,e,r,,,,,0.7134936909997123,0.8814595059998283,1.0494986329999847,1.2333836509997127,1.3854958590000024,0.0,0.0,0.0,0.0,cheer,medwf,highbf
218,s183,218,puppy,pu,up,pp,py,p,u,p,p,y,,,,,0.7492190490002031,1.0212515419998454,1.221239575999789,1.3732265660000849,1.5332059649999792,0.0,0.0,0.0,0.0,puppy,medwf,lowbf
219,s183,219,therm,th,he,er,rm,t,h,e,r,m,,,,,0.7053349699999671,0.8012201719998302,0.8892726399999447,1.0012391860000207,1.0573219299999437,0.0,0.0,0.0,0.0,therm,lowwf,highbf
220,s183,220,pykka,py,yk,kk,ka,p,y,k,k,a,,,,,0.7418567800000346,0.9897306599996227,1.181736432999969,1.3338310119997914,1.4457975199998145,0.0,0.0,0.0,0.0,pykka,pseudo,lowbf
221,s183,221,there,th,he,er,re,t,h,e,r,,,,,,0.72139370900004,0.8334228250000706,0.9453867050001463,1.0573182550001547,0.0,0.0,0.0,0.0,0.0,ther,highwf,highbf
222,s183,222,vanru,va,an,nr,ru,v,a,n,r,u,,,,,0.8854149539997707,1.0214237870000034,1.1974143480001658,1.4453688250000596,1.6214163529998586,0.0,0.0,0.0,0.0,vanru,pseudo,medbf
223,s183,223,kremp,kr,re,em,mp,k,r,e,o,p,,,,,0.8498489240000708,0.9378175409997311,1.0097502769999664,1.0738697440001488,1.185796196999945,0.0,0.0,0.0,0.0,kreop,pseudo,medbf
224,s183,224,puppy,pu,up,pp,py,p,u,p,p,y,,,,,0.7014011490000485,1.4374519339999097,1.629422986999998,1.757393157000024,1.8694874469997558,0.0,0.0,0.0,0.0,puppy,medwf,lowbf
225,s183,225,think,th,hi,in,nk,t,h,i,n,k,,,,,0.6814510560002418,0.785494416000347,0.8655085410000538,1.0174231720002354,1.1214987650000694,0.0,0.0,0.0,0.0,think,highwf,highbf
226,s183,226,haole,ha,ao,ol,le,h,a,o,l,e,,,,,0.8374825700002475,0.9415265130000989,1.1415281350000441,1.2855223540000225,1.3894124090002151,0.0,0.0,0.0,0.0,haole,lowwf,medbf
227,s183,227,vodka,vo,od,dk,ka,v,o,d,k,a,,,,,0.8254586829998516,1.009420475999832,1.409434186999988,1.609430656999848,1.7535334649996912,0.0,0.0,0.0,0.0,vodka,medwf,lowbf
228,s183,228,would,wo,ou,ul,ld,w,o,u,l,d,,,,,0.7573948799999926,0.8933209510000779,1.1013950339997791,1.245373453999946,1.3414246839997759,0.0,0.0,0.0,0.0,would,highwf,medbf
229,s183,229,pykka,py,yk,kk,ka,p,y,k,k,a,,,,,0.8252175809998334,1.1212345809999533,1.3212594289998378,1.4652287019998766,1.5612730050002028,0.0,0.0,0.0,0.0,pykka,pseudo,lowbf
230,s183,230,puppy,pu,up,pp,py,p,u,p,p,y,,,,,0.7413425499998993,1.0133218689998102,1.1973305729998174,1.3413236759997744,1.4852757909998218,0.0,0.0,0.0,0.0,puppy,medwf,lowbf
231,s183,231,pykka,py,yk,kk,ka,p,y,k,k,a,,,,,0.6733987849997902,0.9615138419999312,1.16949303399997,1.3054489779997311,1.4093904599999405,0.0,0.0,0.0,0.0,pykka,pseudo,lowbf
232,s183,232,therm,th,he,er,rm,t,h,e,r,m,,,,,0.7172280519998822,0.8373497040001894,0.9172251250001864,0.9812334869998267,1.069349382999917,0.0,0.0,0.0,0.0,therm,lowwf,highbf
233,s183,233,puppy,pu,up,pp,py,p,u,p,p,y,,,,,0.6812695559997337,0.953326713000024,1.1533280009998634,1.2892299149998507,1.4092011439997805,0.0,0.0,0.0,0.0,puppy,medwf,lowbf
234,s183,234,vodka,vo,od,dk,ka,v,o,d,k,a,,,,,0.7733723440001086,0.9413096600001154,1.133334700999967,1.333372948000033,1.461389761999726,0.0,0.0,0.0,0.0,vodka,medwf,lowbf
235,s183,235,faqir,fa,aq,qi,ir,f,a,q,i,r,,,,,0.817647818000296,1.04975342500029,1.1536740460001056,1.4337289390000478,1.5857512760003374,0.0,0.0,0.0,0.0,faqir,lowwf,lowbf
236,s183,236,lucky,lu,uc,ck,ky,l,u,c,k,y,,,,,0.6854869989997496,0.9334521969999514,1.0373805189997256,1.15749513999981,1.3173798499997247,0.0,0.0,0.0,0.0,lucky,highwf,lowbf
237,s183,237,buddy,bu,ud,dd,dy,b,u,d,d,y,,,,,0.7211520590003602,0.8811559810001199,1.097230460999981,1.2732649490003496,1.4251490070000727,0.0,0.0,0.0,0.0,buddy,highwf,lowbf
238,s183,238,there,th,he,er,re,t,h,e,r,e,,,,,0.6692345830001614,0.7971992739999223,0.8851577149998775,1.0291735210003026,2.189247325999986,0.0,0.0,0.0,0.0,there,highwf,highbf
239,s183,239,edthe,ed,dt,th,he,e,d,t,h,e,,,,,0.8093468609999945,1.0015077140001267,1.1453725370001848,1.2654106190002494,1.321466207999947,0.0,0.0,0.0,0.0,edthe,pseudo,highbf
