,sID,Trial #,string,bi_1,bi_2,bi_3,bi_4,key_resp.keys.1,key_resp.keys.2,key_resp.keys.3,key_resp.keys.4,key_resp.keys.5,key_resp.keys.6,key_resp.rt.1,key_resp.rt.2,key_resp.rt.3,key_resp.rt.4,key_resp.rt.5,key_resp.rt.6,resp_string,WF Type,BF Type
0,s189,0,would,wo,ou,ul,ld,w,o,u,l,d,,0.8426349689252675,0.9865408707410097,1.0986708789132535,1.2826563999988139,1.418558632954955,0.0,would,highwf,medbf
1,s189,1,belly,be,el,ll,ly,b,e,l,l,y,,0.8293384211137891,0.965358573012054,1.1253738082014024,1.3013351699337363,1.4854013309814036,0.0,belly,medwf,medbf
2,s189,2,vanru,va,an,nr,ru,v,a,n,r,u,,1.0013919337652624,1.2254582270979881,1.4814064428210258,1.7694830927066505,1.929447307717055,0.0,vanru,pseudo,medbf
3,s189,3,tithe,ti,it,th,he,t,i,t,h,e,,0.9173519280739129,1.0773434713482857,1.3173540262505412,1.4694639281369746,1.6374689424410462,0.0,tithe,lowwf,highbf
4,s189,4,cooed,co,oo,oe,ed,c,o,o,e,d,,0.7694928827695549,1.0094261667691171,1.169463959056884,1.5695735439658165,1.8174156886525452,0.0,cooed,lowwf,medbf
5,s189,5,kremp,kr,re,em,mp,k,r,e,m,p,,0.7334555322304368,1.2214620090089738,1.4293795241974294,2.2214667359367013,2.4694997118785977,0.0,kremp,pseudo,medbf
6,s189,6,champ,ch,ha,am,mp,c,h,a,m,p,,0.7453648578375578,0.8973274808377028,1.0653831236995757,1.2172658029012382,1.4092585076577961,0.0,champ,medwf,medbf
7,s189,7,cooed,co,oo,oe,ed,c,o,o,e,d,,0.7572384672239423,0.9973280541598797,1.1653411244042218,1.2772174761630595,1.4853059062734246,0.0,cooed,lowwf,medbf
8,s189,8,zibja,zi,ib,bj,ja,z,i,b,j,a,,1.5125391208566725,1.7364800260402262,2.5445611979812384,2.8164284490048885,2.9365380541421473,0.0,zibja,pseudo,lowbf
9,s189,9,belly,be,el,ll,ly,b,e,l,l,y,,0.757445091381669,0.8694207430817187,1.0134448590688407,1.1894504320807755,1.333443263079971,0.0,belly,medwf,medbf
10,s189,10,pykka,py,yk,kk,ka,p,y,k,k,a,,0.8575323903933167,1.1214551450684667,1.7934995139949024,1.9455448961816728,2.065456801094115,0.0,pykka,pseudo,lowbf
11,s189,11,tithe,ti,it,th,he,t,i,t,h,e,,0.89341033808887,1.0374762788414955,1.2534381281584501,1.3734528059139848,1.541484349872917,0.0,tithe,lowwf,highbf
12,s189,12,faqir,fa,aq,qi,ir,f,a,q,i,r,,1.0333894761279225,1.2333953869529068,2.10541280079633,2.3213576897978783,2.5853254818357527,0.0,faqir,lowwf,lowbf
13,s189,13,cooed,co,oo,oe,ed,c,o,o,e,d,,0.9015007810667157,1.2294110376387835,1.3814206440001726,1.4854532298631966,1.6694848877377808,0.0,cooed,lowwf,medbf
14,s189,14,lucky,lu,uc,ck,ky,l,u,c,k,y,,0.6893889489583671,0.8812569999136031,0.9453768930397928,1.1373357912525535,1.393285539932549,0.0,lucky,highwf,lowbf
15,s189,15,vodka,vo,od,dk,ka,v,o,d,k,a,,0.9011721019633114,1.0771439601667225,1.3571505802683532,1.5811824901029468,1.717138031963259,0.0,vodka,medwf,lowbf
16,s189,16,haole,ha,ao,ol,le,h,a,o,l,e,,0.8412892925553024,0.9533442999236286,1.2095036627724767,1.521333506796509,1.6812732839025557,0.0,haole,lowwf,medbf
17,s189,17,think,th,hi,in,nk,t,h,i,n,k,,0.7733061970211565,0.9092732290737331,1.0932417148724198,1.2772347568534315,1.4613616219721735,0.0,think,highwf,highbf
18,s189,18,champ,ch,ha,am,mp,c,h,a,m,p,,0.7613234901800752,0.9052486699074507,1.0493082371540368,1.2254034909419715,1.481237307190895,0.0,champ,medwf,medbf
19,s189,19,lucky,lu,uc,ck,ky,l,u,c,k,y,,0.5971668548882008,0.7890565348789096,0.9090720410458744,1.0691659161821008,1.2851687828078866,0.0,lucky,highwf,lowbf
20,s189,20,therm,th,he,er,rm,t,h,e,r,m,,0.8092560316435993,0.9053446906618774,1.1853371988981962,1.321347661782056,1.625307556707412,0.0,therm,lowwf,highbf
21,s189,21,druze,dr,ru,uz,ze,d,r,u,z,e,,0.7333833267912269,1.213383947033435,1.3573933877050877,2.293275034055114,2.6453558821231127,0.0,druze,lowwf,lowbf
22,s189,22,vanru,va,an,nr,ru,v,a,n,r,u,,0.8894055699929595,0.9933347040787339,1.2493947339244187,1.4414221649058163,1.5773220579139888,0.0,vanru,pseudo,medbf
23,s189,23,heond,he,eo,on,nd,h,e,o,n,d,,0.8133322708308697,1.0212977319024503,1.2453677728772163,1.5412079198285937,1.7012213650159538,0.0,heond,pseudo,highbf
24,s189,24,therm,th,he,er,rm,t,h,e,r,m,,0.8573566349223256,0.9854766391217709,1.1293943161144853,1.2413708879612386,1.417347226291895,0.0,therm,lowwf,highbf
25,s189,25,heond,he,eo,on,nd,h,e,o,n,d,,0.7731907130219042,0.9092363631352782,1.061264710035175,1.3092448231764138,1.4212873680517077,0.0,heond,pseudo,highbf
26,s189,26,tithe,ti,it,th,he,t,i,t,h,e,,0.7693900102749467,0.9133805241435766,1.1133556012064219,1.2012781859375536,1.3853856241330504,0.0,tithe,lowwf,highbf
27,s189,27,faqir,fa,aq,qi,ir,f,a,q,i,r,,0.7892070226371288,0.9811586500145495,1.573216110933572,1.7253111498430371,1.9332595360465348,0.0,faqir,lowwf,lowbf
28,s189,28,about,ab,bo,ou,ut,a,b,o,u,t,,0.7212890423834324,0.8492452711798251,1.0812170011922717,1.0972612700425088,1.2411866872571409,0.0,about,highwf,medbf
29,s189,29,champ,ch,ha,am,mp,c,h,a,m,p,,0.7732676668092608,0.9093559440225363,1.037305450066924,1.1973424097523093,1.3732597907073796,0.0,champ,medwf,medbf
30,s189,30,belly,be,el,ll,ly,b,e,l,l,y,,0.7290456239134073,0.8490726300515234,0.9850753736682236,1.1689900318160653,1.3450294127687812,0.0,belly,medwf,medbf
31,s189,31,cheer,ch,he,ee,er,c,h,e,e,r,,0.8611919679678977,1.0132185509428382,1.1732674548402429,1.3652260419912636,1.5011597210541368,0.0,cheer,medwf,highbf
32,s189,32,zibja,zi,ib,bj,ja,z,i,b,j,a,,1.0972485071979463,1.2332069501280785,1.5930924429558218,1.83322878414765,1.9531672089360654,0.0,zibja,pseudo,lowbf
33,s189,33,about,ab,bo,ou,ut,a,b,o,u,t,,0.6612801398150623,0.8133219089359045,1.0453032981604338,1.0932047432288527,1.3412156491540372,0.0,about,highwf,medbf
34,s189,34,theme,th,he,em,me,t,h,e,m,e,,0.7290764250792563,0.8731500660069287,1.0170195642858744,1.1691379183903337,1.3210537931881845,0.0,theme,medwf,highbf
35,s189,35,lucky,lu,uc,ck,ky,l,u,c,k,y,,0.6451461841352284,0.8291141749359667,0.9170626802369952,1.0851648799143732,1.4371825139969587,0.0,lucky,highwf,lowbf
36,s189,36,buddy,bu,ud,dd,dy,b,u,d,d,y,,0.7932937629520893,1.0493958508595824,1.1694035148248076,1.345416036900133,1.4653487419709563,0.0,buddy,highwf,lowbf
37,s189,37,would,wo,ou,ul,ld,w,o,u,l,d,,0.8212360441684723,0.9731768001802266,1.0372263840399683,1.2291848729364574,1.3572149127721786,0.0,would,highwf,medbf
38,s189,38,puppy,pu,up,pp,py,p,u,p,p,y,,0.6892230566591024,0.8333119261078537,1.0412110309116542,1.217202381696552,1.4333174489438534,0.0,puppy,medwf,lowbf
39,s189,39,pykka,py,yk,kk,ka,p,y,k,k,a,,0.8531330958940089,1.1251973598264158,1.525069419760257,1.6851882711052895,1.7971735107712448,0.0,pykka,pseudo,lowbf
40,s189,40,druze,dr,ru,uz,ze,d,r,u,z,e,,0.7371957721188664,1.2810812518000603,1.3930920627899468,1.8091102759353817,2.1371932891197503,0.0,druze,lowwf,lowbf
41,s189,41,heond,he,eo,on,nd,h,e,o,n,d,,0.781047202181071,0.9571045101620257,1.0929989302530885,1.3009986118413508,1.4210024238564074,0.0,heond,pseudo,highbf
42,s189,42,vanru,va,an,nr,ru,v,a,n,r,u,,0.8491317359730601,0.9851364023052156,1.2251553824171424,1.4010293651372194,1.569082309026271,0.0,vanru,pseudo,medbf
43,s189,43,kremp,kr,re,em,mp,k,r,e,m,p,,0.7170242113061249,0.9411316360346973,1.0691364742815495,1.2611542292870581,1.4691307693719864,0.0,kremp,pseudo,medbf
44,s189,44,therm,th,he,er,rm,t,h,e,r,m,,0.8651351621374488,1.0090874433517456,1.1770525742322206,1.2811479610390961,1.44916826300323,0.0,therm,lowwf,highbf
45,s189,45,puppy,pu,up,pp,py,p,u,p,p,y,,0.7649583872407675,1.1329601812176406,1.3970066038891673,1.5890127113088965,1.7008825461380184,0.0,puppy,medwf,lowbf
46,s189,46,vodka,vo,od,dk,ka,v,o,d,k,a,,0.8412081571295857,0.985137889161706,1.2652036491781473,1.4972453280352056,1.6091577201150358,0.0,vodka,medwf,lowbf
47,s189,47,faqir,fa,aq,qi,ir,f,a,q,i,r,,0.8765164762735367,1.036621421109885,1.5485517252236605,1.7005009283311665,2.076520807109773,0.0,faqir,lowwf,lowbf
48,s189,48,buddy,bu,ud,dd,dy,b,u,d,d,y,,0.7446161448024213,0.9764935299754143,1.0886094979941845,1.432584899943322,1.5604756698012352,0.0,buddy,highwf,lowbf
49,s189,49,haole,ha,ao,ol,le,h,a,o,l,e,,0.7485670992173254,0.8446274832822382,1.0525923129171133,1.2764737838879228,1.3805572031997144,0.0,haole,lowwf,medbf
50,s189,50,think,th,hi,in,nk,t,h,i,n,k,,0.8164819828234613,0.9364491221494973,1.1043792250566185,1.2564343800768256,1.4324579257518053,0.0,think,highwf,highbf
51,s189,51,edthe,ed,dt,th,he,e,d,t,h,e,,0.7722939788363874,1.3163227820768952,1.5722403600811958,1.7082520821131766,1.828348864801228,0.0,edthe,pseudo,highbf
52,s189,52,theme,th,he,em,me,t,h,e,m,e,,0.6884913695976138,0.824436844792217,0.9844331205822527,1.1205419469624758,1.2325402018614113,0.0,theme,medwf,highbf
53,s189,53,zibja,zi,ib,bj,ja,z,i,b,j,a,,1.0044317720457911,1.1964839263819158,1.5724462512880564,1.844411221332848,1.9883535113185644,0.0,zibja,pseudo,lowbf
54,s189,54,think,th,hi,in,nk,t,h,i,n,k,,0.6804669313132763,0.8003382990136743,0.9445280870422721,1.0883507682010531,1.224347610026598,0.0,think,highwf,highbf
55,s189,55,cheer,ch,he,ee,er,c,h,e,e,r,,0.6601980249397457,0.7803228227421641,0.9483016887679696,1.1402650456875563,1.2842105189338326,0.0,cheer,medwf,highbf
56,s189,56,belly,be,el,ll,ly,b,e,l,l,y,,0.6882131928578019,0.7841525319963694,0.9601615411229432,1.1443190430290997,1.3362248009070754,0.0,belly,medwf,medbf
57,s189,57,vanru,va,an,nr,ru,v,a,n,r,u,,0.8604049449786544,0.9964271150529385,1.2205263320356607,1.444544387049973,1.5804790533147752,0.0,vanru,pseudo,medbf
58,s189,58,druze,dr,ru,uz,ze,d,r,u,z,e,,0.7042848989367485,0.9762042709626257,1.1202824339270592,1.4803125220350921,1.7523101470433176,0.0,druze,lowwf,lowbf
59,s189,59,faqir,fa,aq,qi,ir,f,a,q,i,r,,0.7723700972273946,0.9323452520184219,1.3723744992166758,1.5403181500732899,1.6602737521752715,0.0,faqir,lowwf,lowbf
60,s189,60,therm,th,he,er,rm,t,h,e,r,m,,0.7045662961900234,0.816558494232595,0.9604524271562696,1.0805882108397782,1.256516617257148,0.0,therm,lowwf,highbf
61,s189,61,pykka,py,yk,kk,ka,p,y,k,k,a,,0.796491542365402,1.0525461910292506,1.4604804133996367,1.6125136259943247,1.6844755532220006,0.0,pykka,pseudo,lowbf
62,s189,62,heond,he,eo,on,nd,h,e,o,n,d,,0.7843492240644991,0.8804550128988922,1.040359865874052,1.2564558498561382,1.3524710987694561,0.0,heond,pseudo,highbf
63,s189,63,haole,ha,ao,ol,le,h,a,o,l,e,,0.7002370860427618,0.89224654994905,1.1002386789768934,1.3163415831513703,1.4203541311435401,0.0,haole,lowwf,medbf
64,s189,64,about,ab,bo,ou,ut,a,b,o,u,t,,0.6323696780018508,0.8002553367987275,1.0002693878486753,1.1123326229862869,1.2243280760012567,0.0,about,highwf,medbf
65,s189,65,heond,he,eo,on,nd,h,e,o,n,d,,0.7402245718985796,0.8841058067046106,1.0202404279261827,1.2282012896612287,1.3561947369016707,0.0,heond,pseudo,highbf
66,s189,66,druze,dr,ru,uz,ze,d,r,u,z,e,,0.6722178705967963,0.9601094536483288,1.1121412739157677,1.3681463729590178,1.6402067225426435,0.0,druze,lowwf,lowbf
67,s189,67,would,wo,ou,ul,ld,w,o,u,l,d,,0.7561825797893107,0.9082534029148519,1.020247905049473,1.1721929656341672,1.2841805927455425,0.0,would,highwf,medbf
68,s189,68,haole,ha,ao,ol,le,h,a,o,l,e,,0.7601320589892566,0.8561623622663319,1.136247978080064,1.360124927945435,1.4482434908859432,0.0,haole,lowwf,medbf
69,s189,69,tithe,ti,it,th,he,t,i,t,h,e,,0.7641510129906237,0.9001024118624628,1.0760617032647133,1.1801445200107992,1.3241588231176138,0.0,tithe,lowwf,highbf
70,s189,70,vanru,va,an,nr,ru,v,a,n,r,u,,0.7444192008115351,0.8883124408312142,1.0803881417959929,1.240385842975229,1.3682687720283866,0.0,vanru,pseudo,medbf
71,s189,71,pykka,py,yk,kk,ka,p,y,k,k,a,,0.7162142689339817,0.9961388790979981,1.372177669312805,1.5402295771054924,1.6601010141894221,0.0,pykka,pseudo,lowbf
72,s189,72,zibja,zi,ib,bj,ja,z,i,b,j,a,,0.9841985139064491,1.1922032530419528,1.4402166400104761,1.6642901976592839,1.7682315446436405,0.0,zibja,pseudo,lowbf
73,s189,73,kremp,kr,re,em,mp,k,r,e,m,p,,0.6284102690406144,0.9643360590562224,1.0604371260851622,1.2203755299560726,1.4683981579728425,0.0,kremp,pseudo,medbf
74,s189,74,champ,ch,ha,am,mp,c,h,a,m,p,,0.7283430057577789,0.8482901798561215,1.0402373438701034,1.1762400888837874,1.3522869707085192,0.0,champ,medwf,medbf
75,s189,75,there,th,he,er,re,t,h,e,r,e,space,0.756197698879987,0.8442089762538671,0.9881743318401277,1.1322217811830342,1.2522939522750676,1.7401817059144378,therespace,highwf,highbf
76,s189,76,kremp,kr,re,em,mp,k,r,e,m,p,,0.7035371419042349,0.9034956148825586,0.9834560519084334,1.1594155398197472,1.3275177720934153,0.0,kremp,pseudo,medbf
77,s189,77,there,th,he,er,re,t,h,e,r,e,,0.6515142992138863,0.7475021011196077,0.8835391099564731,0.9715564413927495,1.0995247019454837,0.0,there,highwf,highbf
78,s189,78,vodka,vo,od,dk,ka,v,o,d,k,a,,0.7752418699674308,0.9513288717716932,1.2553205001167953,1.5913243871182203,1.6873111790046096,0.0,vodka,medwf,lowbf
79,s189,79,belly,be,el,ll,ly,b,e,l,l,y,,0.7313554272986948,0.8353189579211175,0.9713977039791644,1.115340445190668,1.3073954628780484,0.0,belly,medwf,medbf
80,s189,80,there,th,he,er,re,t,h,e,r,e,,0.7113259378820658,0.8072271412238479,0.9671475468203425,1.0952447480522096,1.2232727189548314,0.0,there,highwf,highbf
81,s189,81,edthe,ed,dt,th,he,e,d,t,h,e,,0.7556192832998931,1.0357203083112836,1.3077185680158436,1.4277041461318731,1.531614989042282,0.0,edthe,pseudo,highbf
82,s189,82,about,ab,bo,ou,ut,a,b,o,u,t,,0.6848100661300123,0.8287252718582749,1.0527984071522951,1.1088291690684855,1.2688102112151682,0.0,about,highwf,medbf
83,s189,83,think,th,hi,in,nk,t,h,i,n,k,,0.6990395300090313,0.77105931378901,0.9150281166657805,1.058943348005414,1.179031539708376,0.0,think,highwf,highbf
84,s189,84,therm,th,he,er,rm,t,h,e,r,m,,0.7275291550904512,0.8236141870729625,0.9755257810465991,1.0635488186962903,1.1595067870803177,0.0,therm,lowwf,highbf
85,s189,85,buddy,bu,ud,dd,dy,b,u,d,d,y,,0.7475796448998153,1.019639892037958,1.1075856038369238,1.2835163557901978,1.4435200989246368,0.0,buddy,highwf,lowbf
86,s189,86,cheer,ch,he,ee,er,c,h,e,e,r,,0.7194572519510984,0.8554808679036796,1.0154767748899758,1.1914473571814597,1.3754782383330166,0.0,cheer,medwf,highbf
87,s189,87,would,wo,ou,ul,ld,w,o,u,l,d,,0.7310835220851004,0.8670592522248626,0.9871430993080139,1.139074990991503,1.25906515493989,0.0,would,highwf,medbf
88,s189,88,cooed,co,oo,oe,ed,c,o,o,e,d,,0.6473754602484405,0.8153752218931913,0.935392364859581,1.0553558999672532,1.2633917252533138,0.0,cooed,lowwf,medbf
89,s189,89,puppy,pu,up,pp,py,p,u,p,p,y,,0.7234076680615544,0.9073620270937681,1.12339559616521,1.299389302264899,1.4993563629686832,0.0,puppy,medwf,lowbf
90,s189,90,druze,dr,ru,uz,ze,d,r,u,z,e,,0.7514040949754417,1.0074081220664084,1.1354313888587058,1.647440501023084,1.9034263966605067,0.0,druze,lowwf,lowbf
91,s189,91,cheer,ch,he,ee,er,c,h,e,e,r,,0.7313537667505443,0.8513088580220938,1.003419250715524,1.2513018087483943,1.4194372678175569,0.0,cheer,medwf,highbf
92,s189,92,edthe,ed,dt,th,he,e,d,t,h,e,,0.7193594700656831,0.9433367471210659,1.1913689239881933,1.3032933743670583,1.4073260552249849,0.0,edthe,pseudo,highbf
93,s189,93,buddy,bu,ud,dd,dy,b,u,d,d,y,,0.763318894430995,1.011373938061297,1.1312944232486188,1.275390325114131,1.411418135277927,0.0,buddy,highwf,lowbf
94,s189,94,there,th,he,er,re,t,h,e,r,e,,0.7433380750007927,0.8474341998808086,0.9673205288127065,1.0793357561342418,1.223379666917026,0.0,there,highwf,highbf
95,s189,95,kremp,kr,re,em,mp,k,r,e,m,p,,0.8514262731187046,0.995490922126919,1.0673933331854641,1.2994939568452537,1.4513870500959456,0.0,kremp,pseudo,medbf
96,s189,96,vodka,vo,od,dk,ka,v,o,d,k,a,,0.7673128992319107,0.9273082250729203,1.1193835749290884,1.303427112288773,1.4394364999607205,0.0,vodka,medwf,lowbf
97,s189,97,edthe,ed,dt,th,he,e,d,t,h,e,,0.6673767403699458,0.9634637259878218,1.2194881993345916,1.3474900051951408,1.4673764780163765,0.0,edthe,pseudo,highbf
98,s189,98,pykka,py,yk,kk,ka,p,y,k,k,a,,0.7434205496683717,0.9593784119933844,1.2395022418349981,1.3994935797527432,1.4955104710534215,0.0,pykka,pseudo,lowbf
99,s189,99,buddy,bu,ud,dd,dy,b,u,d,d,y,,0.7953810039907694,1.0513233169913292,1.1793527700938284,1.3474270859733224,1.491389841772616,0.0,buddy,highwf,lowbf
100,s189,100,cheer,ch,he,ee,er,c,h,e,e,r,,0.6793969362042844,0.8313784804195166,1.0074870283715427,1.1755455490201712,1.3274235231801867,0.0,cheer,medwf,highbf
101,s189,101,zibja,zi,ib,bj,ja,z,i,b,j,a,,1.187374939210713,1.3633306762203574,1.6353596551343799,1.9073775983415544,2.0512679889798164,0.0,zibja,pseudo,lowbf
102,s189,102,champ,ch,ha,am,mp,c,h,a,m,p,,0.6954103377647698,0.8234118069522083,0.9752891110256314,1.1033402937464416,1.36726792762056,0.0,champ,medwf,medbf
103,s189,103,theme,th,he,em,me,t,h,e,m,e,,0.7233107825741172,0.8194253826513886,0.9553163549862802,1.0914199678227305,1.1873929426074028,0.0,theme,medwf,highbf
104,s189,104,tithe,ti,it,th,he,t,i,t,h,e,,0.7271478208713233,0.8791728317737579,1.0632698186673224,1.1912115728482604,1.327153345104307,0.0,tithe,lowwf,highbf
105,s189,105,haole,ha,ao,ol,le,h,a,o,l,e,,0.7472429890185595,0.8832346610724926,1.0352349430322647,1.2431329949758947,1.3632306209765375,0.0,haole,lowwf,medbf
106,s189,106,lucky,lu,uc,ck,ky,l,u,c,k,y,,0.6790478290058672,0.871134006883949,1.0070731085725129,1.1270876317285001,1.3670720276422799,0.0,lucky,highwf,lowbf
107,s189,107,edthe,ed,dt,th,he,e,d,t,h,e,,0.8194311009719968,1.1154443509876728,1.3713630279526114,1.4834101051092148,1.5955428811721504,0.0,edthe,pseudo,highbf
108,s189,108,faqir,fa,aq,qi,ir,f,a,q,i,r,,0.7031179498881102,0.8871466610580683,1.2391578410752118,1.3191088158637285,1.4950894191861153,0.0,faqir,lowwf,lowbf
109,s189,109,theme,th,he,em,me,t,h,e,m,e,,0.8114313278347254,0.8994362619705498,1.051346885971725,1.1634155567735434,1.275459554977715,0.0,theme,medwf,highbf
110,s189,110,cooed,co,oo,oe,ed,c,o,o,e,d,,0.7595001393929124,0.9194540400058031,1.0554418442770839,1.1593883452005684,1.3513844711706042,0.0,cooed,lowwf,medbf
111,s189,111,puppy,pu,up,pp,py,p,u,p,p,y,,0.7394462497904897,0.9554358851164579,1.1793861910700798,1.3554583410732448,1.499439672101289,0.0,puppy,medwf,lowbf
112,s189,112,there,th,he,er,re,t,h,e,r,e,,0.6952383108437061,0.791244750842452,0.9352860897779465,1.0552047286182642,1.1753216008655727,0.0,there,highwf,highbf
113,s189,113,think,th,hi,in,nk,t,h,i,n,k,,0.6752480990253389,0.7473627720028162,0.9072516341693699,1.0432438859716058,1.1712497449479997,0.0,think,highwf,highbf
114,s189,114,about,ab,bo,ou,ut,a,b,o,u,t,,0.7030430971644819,0.854989180341363,1.0551138264127076,1.1430168603546917,1.278993763960898,0.0,about,highwf,medbf
115,s189,115,lucky,lu,uc,ck,ky,l,u,c,k,y,,0.603185195941478,0.7632059161551297,0.8832168919034302,1.0032329941168427,1.2032253718934953,0.0,lucky,highwf,lowbf
116,s189,116,would,wo,ou,ul,ld,w,o,u,l,d,,0.69521200703457,0.807185024023056,0.879105944186449,1.0311075751669705,1.1510758702643216,0.0,would,highwf,medbf
117,s189,117,vodka,vo,od,dk,ka,v,o,d,k,a,,0.971343170851469,1.1073492388240993,1.347314310260117,1.4913556901738048,1.6672229138202965,0.0,vodka,medwf,lowbf
118,s189,118,theme,th,he,em,me,t,h,e,m,e,,0.799188788048923,0.8711840780451894,1.0631910730153322,1.1751520251855254,1.3111705952323973,0.0,theme,medwf,highbf
119,s189,119,puppy,pu,up,pp,py,p,u,p,p,y,,0.7389902090653777,0.8750785868614912,1.0830388967879117,1.2350430390797555,1.3950128578580916,0.0,puppy,medwf,lowbf
120,s189,120,champ,ch,ha,am,mp,c,h,a,m,p,,0.9498225878924131,1.0857473742216825,1.2217600299045444,1.3498735721223056,1.509755244012922,0.0,champ,medwf,medbf
121,s189,121,zibja,zi,ib,bj,ja,z,i,b,j,a,,1.1529409820213914,1.2969377972185612,1.5689329048618674,1.784851442091167,1.864835896063596,0.0,zibja,pseudo,lowbf
122,s189,122,druze,dr,ru,uz,ze,d,r,u,z,e,,1.1170119401067495,1.4371272530406713,1.6051359460689127,1.853064676746726,2.141125334892422,0.0,druze,lowwf,lowbf
123,s189,123,vodka,vo,od,dk,ka,v,o,d,k,a,,0.8246604991145432,0.9366472940891981,1.456605326384306,1.5765965622849762,1.7285343930125237,0.0,vodka,medwf,lowbf
124,s189,124,there,th,he,er,re,t,h,e,r,e,,0.8847245462238789,0.9807663760147989,1.1247159424237907,1.2207199721597135,1.3728011921048164,0.0,there,highwf,highbf
125,s189,125,druze,dr,ru,uz,ze,d,r,u,z,e,,0.6966450912877917,0.9846242619678378,1.1045329282060266,1.3765575620345771,1.6566014220006764,0.0,druze,lowwf,lowbf
126,s189,126,there,th,he,er,re,t,h,e,r,e,,0.6849575936794281,0.7729757996276021,0.9329241290688515,1.0449389396235347,1.1808897596783936,0.0,there,highwf,highbf
127,s189,127,about,ab,bo,ou,ut,a,b,o,u,t,,0.7047738465480506,0.8248761808499694,1.0168780107051134,1.0648786816745996,1.2568304748274386,0.0,about,highwf,medbf
128,s189,128,haole,ha,ao,ol,le,h,a,o,l,e,,0.8449331829324365,0.9729199931025505,1.1408153362572193,1.3408138528466225,1.4288999270647764,0.0,haole,lowwf,medbf
129,s189,129,vanru,va,an,nr,ru,v,a,n,r,u,,0.8727902737446129,1.0086977616883814,1.2566741346381605,1.4566982807591558,1.6006612749770284,0.0,vanru,pseudo,medbf
130,s189,130,belly,be,el,ll,ly,b,e,l,l,y,,0.6849089502356946,0.780819539912045,0.9488501287996769,1.1248915567994118,1.3088013301603496,0.0,belly,medwf,medbf
131,s189,131,edthe,ed,dt,th,he,e,d,t,h,e,,0.6889672800898552,0.9209212730638683,1.160955467261374,1.2809305060654879,1.4008628632873297,0.0,edthe,pseudo,highbf
132,s189,132,pykka,py,yk,kk,ka,p,y,k,k,a,,0.8850547480396926,1.1009052651934326,1.4769457569345832,1.6449917051941156,1.7729829922318459,0.0,pykka,pseudo,lowbf
133,s189,133,kremp,kr,re,em,mp,k,r,e,m,p,,0.8887843056581914,1.136841322761029,1.2248595748096704,1.4328309749253094,1.5847270167432725,0.0,kremp,pseudo,medbf
134,s189,134,think,th,hi,in,nk,t,h,i,n,k,,0.772932424210012,0.8688496723771095,1.0528549132868648,1.2528767380863428,1.4209020202979445,0.0,think,highwf,highbf
135,s189,135,there,th,he,er,re,t,h,e,r,e,,0.7608820381574333,0.832856684923172,1.0328629622235894,1.1607998791150749,1.2968622939661145,0.0,there,highwf,highbf
136,s189,136,cooed,co,oo,oe,ed,c,o,o,e,d,,0.764595631044358,0.9807118480093777,1.1246020272374153,1.2687117871828377,1.4846531259827316,0.0,cooed,lowwf,medbf
137,s189,137,about,ab,bo,ou,ut,a,b,o,u,t,,0.7206731792539358,0.8247787402942777,1.0247276513837278,1.096765585243702,1.2807627692818642,0.0,about,highwf,medbf
138,s189,138,cheer,ch,he,ee,er,c,h,e,e,r,,0.6524960449896753,0.7884408920072019,0.9564551147632301,1.1565721360966563,1.2924587917514145,0.0,cheer,medwf,highbf
139,s189,139,zibja,zi,ib,bj,ja,z,i,b,j,a,,0.9046667711809278,1.0727983680553734,1.360676795244217,1.600678704213351,1.7207981762476265,0.0,zibja,pseudo,lowbf
140,s189,140,haole,ha,ao,ol,le,h,a,o,l,e,,0.7729217079468071,0.8928134087473154,1.1808433188125491,1.4128530956804752,1.4849219247698784,0.0,haole,lowwf,medbf
141,s189,141,heond,he,eo,on,nd,h,e,o,n,d,,0.7367320680059493,0.864682394079864,1.032700824085623,1.2967407489195466,1.5126848369836807,0.0,heond,pseudo,highbf
142,s189,142,tithe,ti,it,th,he,t,i,t,h,e,,0.8206770340912044,0.9166884119622409,1.0925739030353725,1.1966429697349668,1.3566448651254177,0.0,tithe,lowwf,highbf
143,s189,143,champ,ch,ha,am,mp,c,h,a,m,n,p,0.6883485158905387,0.7842179047875106,0.9683256559073925,1.0803202507086098,1.0883163316175342,1.352258734870702,chamnp,medwf,medbf
144,s189,144,heond,he,eo,on,nd,h,e,o,n,d,,0.7803241419605911,0.9242718792520463,1.0283511341549456,1.2043635551817715,1.3323187259957194,0.0,heond,pseudo,highbf
145,s189,145,would,wo,ou,ul,ld,w,o,u,l,d,,0.8400058359839022,0.9839981491677463,1.0561233758926392,1.240065315272659,1.4000973883084953,0.0,would,highwf,medbf
146,s189,146,belly,be,el,ll,ly,b,e,l,l,y,,0.7879735110327601,0.8920407239347696,1.043979223817587,1.2280643777921796,1.4040988478809595,0.0,belly,medwf,medbf
147,s189,147,therm,th,he,er,rm,t,h,e,r,m,,0.9039445403032005,1.0239324891008437,1.183822558261454,1.3199350303038955,1.5118862139061093,0.0,therm,lowwf,highbf
148,s189,148,puppy,pu,up,pp,py,p,u,p,p,y,,0.764080467633903,0.9160998337902129,1.1160751567222178,1.2759715649299324,1.5081037660129368,0.0,puppy,medwf,lowbf
149,s189,149,therm,th,he,er,rm,t,h,e,r,m,,0.7359926970675588,0.8239951618015766,0.9440290960483253,1.064033946953714,1.143912489991635,0.0,therm,lowwf,highbf
150,s189,150,heond,he,eo,on,nd,h,e,o,n,d,,0.6359983491711318,0.73198999511078,0.8598878118209541,1.027961595915258,1.1479204469360411,0.0,heond,pseudo,highbf
151,s189,151,puppy,pu,up,pp,py,p,u,p,p,y,,0.7116460870020092,0.8796684769913554,1.11170887760818,1.2396698468364775,1.4316653427667916,0.0,puppy,medwf,lowbf
152,s189,152,vanru,va,an,nr,ru,v,a,n,r,u,,0.7959344638511539,0.9159733508713543,1.0838646898046136,1.2838628478348255,1.403939527925104,0.0,vanru,pseudo,medbf
153,s189,153,therm,th,he,er,rm,t,h,e,r,m,,0.7680716519244015,0.8640877287834883,1.000101970974356,1.1440062071196735,1.2801019409671426,0.0,therm,lowwf,highbf
154,s189,154,puppy,pu,up,pp,py,p,u,p,p,y,,0.7719524269923568,0.9319161209277809,1.1399687970988452,1.2999139870516956,1.4519043690524995,0.0,puppy,medwf,lowbf
155,s189,155,theme,th,he,em,me,t,h,e,m,e,,0.7281996626406908,0.8322304086759686,0.9761233739554882,1.1122143608517945,1.2401126897893846,0.0,theme,medwf,highbf
156,s189,156,druze,dr,ru,uz,ze,d,r,u,z,e,,0.6601331788115203,0.9402042939327657,1.084078943822533,1.3481369488872588,1.5801956108771265,0.0,druze,lowwf,lowbf
157,s189,157,zibja,zi,ib,bj,ja,z,i,b,j,a,,0.9600929259322584,1.1361511680297554,1.3680942649953067,1.5680965008214116,1.7042016298510134,0.0,zibja,pseudo,lowbf
158,s189,158,theme,th,he,em,me,t,h,e,m,e,,0.691987887956202,0.7800220847129822,0.9320609858259559,1.0519565897993743,1.18002370884642,0.0,theme,medwf,highbf
159,s189,159,cheer,ch,he,ee,er,c,h,e,e,r,,0.6640426577068865,0.800070121884346,0.9599401257000864,1.2240553079172969,1.3760091629810631,0.0,cheer,medwf,highbf
160,s189,160,champ,ch,ha,am,mp,c,h,a,m,p,,0.6837179833091795,0.811817629262805,0.9957384411245584,1.0998349930159748,1.259738472290337,0.0,champ,medwf,medbf
161,s189,161,haole,ha,ao,ol,le,h,a,o,l,e,,0.703918881714344,0.8159448797814548,0.9518305859528482,1.1438323557376862,1.2319449339993298,0.0,haole,lowwf,medbf
162,s189,162,edthe,ed,dt,th,he,e,d,t,h,e,,0.7317110351286829,0.9476101077161729,1.2116677328012884,1.3157172170467675,1.4356762231327593,0.0,edthe,pseudo,highbf
163,s189,163,cooed,co,oo,oe,ed,c,o,o,e,d,,0.6640814659185708,1.000055923126638,1.167990901041776,1.3200776888988912,1.5040885829366744,0.0,cooed,lowwf,medbf
164,s189,164,about,ab,bo,ou,ut,a,b,o,u,t,,0.7158353491686285,0.7957596122287214,1.0038758213631809,1.0518498281016946,1.1797915953211486,0.0,about,highwf,medbf
165,s189,165,vanru,va,an,nr,ru,v,a,n,r,u,,0.7358933920040727,1.0158124878071249,1.3757851258851588,1.7437716480344534,1.8558902679942548,0.0,vanru,pseudo,medbf
166,s189,166,faqir,fa,aq,qi,ir,f,a,q,i,r,,0.9399728938005865,1.0999259408563375,1.4678513850085437,1.6198995099402964,1.7399629019200802,0.0,faqir,lowwf,lowbf
167,s189,167,edthe,ed,dt,th,he,e,d,t,h,e,,0.7040309673175216,0.9360001441091299,1.1759173101745546,1.272057285066694,1.3839311781339347,0.0,edthe,pseudo,highbf
168,s189,168,pykka,py,yk,kk,ka,p,y,k,k,a,,0.8198928949423134,1.0278525962494314,1.299926077015698,1.475882244296372,1.5799577161669731,0.0,pykka,pseudo,lowbf
169,s189,169,heond,he,eo,on,nd,h,e,o,n,d,,0.7599999578669667,0.896002774592489,1.0080171786248684,1.1760519589297473,1.3040472837164998,0.0,heond,pseudo,highbf
170,s189,170,lucky,lu,uc,ck,ky,l,u,c,k,y,,0.6679840688593686,0.8360914140939713,0.987972232978791,1.084005057811737,1.3001465569250286,0.0,lucky,highwf,lowbf
171,s189,171,there,th,he,er,re,t,h,e,r,e,,0.6718570180237293,0.7438977439887822,0.9198546917177737,1.0478980708867311,1.1759039140306413,0.0,there,highwf,highbf
172,s189,172,haole,ha,ao,ol,le,h,a,o,l,e,,0.795909718144685,0.8920065779238939,1.03598938183859,1.2279928401112556,1.3560036849230528,0.0,haole,lowwf,medbf
173,s189,173,vodka,vo,od,dk,ka,v,o,d,k,a,,0.9270853199996054,1.0550660630688071,1.2950380663387477,1.4391380553133786,1.5830220580101013,0.0,vodka,medwf,lowbf
174,s189,174,tithe,ti,it,th,he,t,i,t,h,e,,1.1069611422717571,1.2510507083497941,1.4350174143910408,1.5310447313822806,1.715012967120856,0.0,tithe,lowwf,highbf
175,s189,175,pykka,py,yk,kk,ka,p,y,k,k,a,,0.7758017261512578,0.9597094231285155,1.239828493911773,1.4317815280519426,1.551811387296766,0.0,pykka,pseudo,lowbf
176,s189,176,would,wo,ou,ul,ld,w,o,u,l,d,,0.7076552687212825,0.859665967989713,0.9237766228616238,1.0836566928774118,1.1717530130408704,0.0,would,highwf,medbf
177,s189,177,edthe,ed,dt,th,he,e,d,t,h,e,,0.7036307500675321,1.2396382996812463,1.4796904786489904,1.58357873884961,1.6875936416909099,0.0,edthe,pseudo,highbf
178,s189,178,cheer,ch,he,ee,er,c,h,e,e,r,,0.6677465080283582,0.795805549249053,0.9638783810660243,1.147765832953155,1.2758528050035238,0.0,cheer,medwf,highbf
179,s189,179,vodka,vo,od,dk,ka,v,o,d,k,a,,0.9676540871150792,1.1197590781375766,1.2797376438975334,1.423761549871415,1.5997477802447975,0.0,vodka,medwf,lowbf
180,s189,180,lucky,lu,uc,ck,ky,l,u,c,k,y,,0.6038702307268977,0.7718670698814094,0.8437779899686575,0.9718644008971751,1.1638581571169198,0.0,lucky,highwf,lowbf
181,s189,181,kremp,kr,re,em,mp,k,r,e,m,p,,0.6079423809424043,0.8718995521776378,0.9758788789622486,1.1118871849030256,1.2639441969804466,0.0,kremp,pseudo,medbf
182,s189,182,buddy,bu,ud,dd,dy,b,u,d,d,y,,0.6999111878685653,0.923803549259901,1.0518978028558195,1.2279218272306025,1.3638663771562278,0.0,buddy,highwf,lowbf
183,s189,183,about,ab,bo,ou,ut,a,b,o,u,t,,0.6876257238909602,0.7996098748408258,0.9674965650774539,1.0155439991503954,1.1434977129101753,0.0,about,highwf,medbf
184,s189,184,belly,be,el,ll,ly,b,e,l,l,y,,0.7317593740299344,0.8197554280050099,0.9797045961022377,1.0917677260003984,1.3078018352389336,0.0,belly,medwf,medbf
185,s189,185,think,th,hi,in,nk,t,h,i,n,k,,0.6718972860835493,0.7359170732088387,0.8879411229863763,1.0399998710490763,1.1759535833261907,0.0,think,highwf,highbf
186,s189,186,cooed,co,oo,oe,ed,c,o,o,e,d,,0.6835922128520906,0.8277151039801538,0.9798729899339378,1.0835928497835994,1.2755950787104666,0.0,cooed,lowwf,medbf
187,s189,187,therm,th,he,er,rm,t,h,e,r,m,,0.7037403350695968,0.7916926769539714,0.9197318777441978,1.0077493009157479,1.127804139163345,0.0,therm,lowwf,highbf
188,s189,188,tithe,ti,it,th,he,t,i,t,h,e,,0.6997228562831879,0.8197374884039164,1.0036940593272448,1.1637050723657012,1.2756958692334592,0.0,tithe,lowwf,highbf
189,s189,189,would,wo,ou,ul,ld,w,o,u,l,d,,0.7357023260556161,0.8636748590506613,0.9435860430821776,1.1357008912600577,1.1996986232697964,0.0,would,highwf,medbf
190,s189,190,druze,dr,ru,uz,ze,d,r,u,z,e,,0.6675840397365391,0.9476327369920909,1.0675823390483856,1.3156877518631518,1.5556535888463259,0.0,druze,lowwf,lowbf
191,s189,191,puppy,pu,up,pp,py,p,u,p,p,y,,0.6795737906359136,0.8475799625739455,1.0316674588248134,1.1916844225488603,1.3755675358697772,0.0,puppy,medwf,lowbf
192,s189,192,druze,dr,ru,uz,ze,d,r,u,z,e,,0.659418678842485,0.9155137497000396,0.9954009079374373,1.2914235698990524,1.6115442239679396,0.0,druze,lowwf,lowbf
193,s189,193,think,th,hi,in,nk,t,h,i,n,k,,0.7279503187164664,0.8079111408442259,0.9598070881329477,1.0958069660700858,1.247807607986033,0.0,think,highwf,highbf
194,s189,194,therm,th,he,er,rm,t,h,e,r,m,,0.7797321449033916,0.8595839231275022,0.9876687438227236,1.091612797230482,1.187588072847575,0.0,therm,lowwf,highbf
195,s189,195,cheer,ch,he,ee,er,c,h,e,e,e,r,0.63984410231933,0.7358931703492999,0.8798825512640178,1.0078455223701894,1.5519152213819325,1.7597855399362743,cheeer,medwf,highbf
196,s189,196,zibja,zi,ib,bj,ja,z,i,b,j,a,,1.123722668737173,1.243651176802814,1.475648629013449,1.923772420734167,2.083635421935469,0.0,zibja,pseudo,lowbf
197,s189,197,there,th,he,er,re,t,h,e,r,e,,0.7437684712931514,0.8078224370256066,0.999727597925812,1.1038267649710178,1.247783673927188,0.0,there,highwf,highbf
198,s189,198,champ,ch,ha,am,mp,c,h,a,m,p,,0.7237458238378167,0.8277546218596399,0.9397767707705498,1.0917875808663666,1.283685154747218,0.0,champ,medwf,medbf
199,s189,199,buddy,bu,ud,dd,dy,b,u,d,d,y,,0.6956700556911528,0.9356563468463719,1.0555463987402618,1.1996515830978751,1.359562617726624,0.0,buddy,highwf,lowbf
200,s189,200,think,th,hi,in,nk,t,h,i,n,k,,0.6516888323239982,0.7636700579896569,0.9316468271426857,1.1156238811090589,1.3156334604136646,0.0,think,highwf,highbf
201,s189,201,buddy,bu,ud,dd,dy,b,u,d,d,y,,0.7275470411404967,0.9435778851620853,1.0716304783709347,1.2156608570367098,1.3755867453292012,0.0,buddy,highwf,lowbf
202,s189,202,lucky,lu,uc,ck,ky,l,u,c,k,y,,0.643598391674459,0.7876161029562354,0.8756282129324973,1.0036610928364098,1.227742560673505,0.0,lucky,highwf,lowbf
203,s189,203,would,wo,ou,ul,ld,w,o,u,l,d,,0.7196314721368253,0.8796053817495704,0.9675576230511069,1.1436004918068647,1.2316031940281391,0.0,would,highwf,medbf
204,s189,204,faqir,fa,aq,qi,ir,f,a,q,i,r,,0.8116791020147502,0.9556974601000547,1.2836207118816674,1.3877302259206772,1.5077140112407506,0.0,faqir,lowwf,lowbf
205,s189,205,haole,ha,ao,ol,le,h,a,o,l,e,,0.6954681570641696,0.807596901897341,0.9435179899446666,1.1435296828858554,1.2475798092782497,0.0,haole,lowwf,medbf
206,s189,206,lucky,lu,uc,ck,ky,l,u,c,k,y,,0.6273692329414189,0.7874060375615954,0.9074463997967541,1.0193684459663928,1.2514102859422565,0.0,lucky,highwf,lowbf
207,s189,207,tithe,ti,it,th,he,t,i,t,h,e,,0.7116406070999801,0.7996449451893568,0.9916732790879905,1.095633908174932,1.1996517241932452,0.0,tithe,lowwf,highbf
208,s189,208,edthe,ed,dt,th,he,e,d,t,h,e,,0.7476588920690119,0.9637196320109069,1.219757185317576,1.3477086653001606,1.4436028460040689,0.0,edthe,pseudo,highbf
209,s189,209,faqir,fa,aq,qi,ir,f,a,q,i,r,,0.7516504717059433,0.9037347310222685,1.2796196178533137,1.4316811468452215,1.5596025227569044,0.0,faqir,lowwf,lowbf
210,s189,210,champ,ch,ha,am,mp,c,h,a,m,p,,0.7476695440709591,0.8756972160190344,1.0037599061615765,1.147666823118925,1.3796614361926913,0.0,champ,medwf,medbf
211,s189,211,kremp,kr,re,em,mp,k,r,e,m,p,,0.6638193652033806,0.8478168942965567,0.9437130400910974,1.1277447789907455,1.3038329989649355,0.0,kremp,pseudo,medbf
212,s189,212,faqir,fa,aq,qi,ir,f,q,r,i,,,0.6993478718213737,0.9953438150696456,3.2432367666624486,3.3472436838783324,0.0,0.0,fqri,lowwf,lowbf
213,s189,213,would,wo,ou,ul,ld,w,o,u,l,d,,0.8550343690440059,0.9589180368930101,1.070907921064645,1.2230290318839252,1.3190214978531003,0.0,would,highwf,medbf
214,s189,214,vanru,va,an,nr,ru,v,a,n,r,u,,1.0989732379093766,1.1868896610103548,1.3788530169986188,1.5549211171455681,1.6748059862293303,0.0,vanru,pseudo,medbf
215,s189,215,faqir,fa,aq,qi,ir,f,a,q,i,r,,0.6386553221382201,1.278693768195808,1.5746679650619626,1.7987032430246472,1.9746643882244825,0.0,faqir,lowwf,lowbf
216,s189,216,theme,th,he,em,me,t,h,e,m,e,,0.7389297098852694,0.8029640321619809,0.9549712440930307,1.0829022168181837,1.1949784900061786,0.0,theme,medwf,highbf
217,s189,217,cooed,co,oo,oe,ed,c,o,o,e,d,,0.7587752738036215,0.9188669701106846,1.0788590568117797,1.1748904529958963,1.382808217778802,0.0,cooed,lowwf,medbf
218,s189,218,vanru,va,an,nr,ru,v,a,n,r,u,,0.7629462541081011,0.8589449850842357,1.1309916130267084,1.4268912873230875,1.5550158671103418,0.0,vanru,pseudo,medbf
219,s189,219,vodka,vo,od,dk,ka,v,o,d,k,a,,1.046790586784482,1.182744241785258,1.3907580627128482,1.510695087723434,1.670776437036693,0.0,vodka,medwf,lowbf
220,s189,220,cooed,co,oo,oe,ed,c,o,o,e,d,,0.7389812939800322,0.9068713579326868,1.0749672930687666,1.179000096861273,1.3869749400764704,0.0,cooed,lowwf,medbf
221,s189,221,theme,th,he,em,me,t,h,e,m,e,,0.7987545821815729,0.8947767340578139,1.0307605830021203,1.1827561799436808,1.278767118230462,0.0,theme,medwf,highbf
222,s189,222,tithe,ti,it,th,he,t,i,t,h,e,,0.7787020979449153,0.9067119499668479,1.0425907489843667,1.178682065103203,1.2906927298754454,0.0,tithe,lowwf,highbf
223,s189,223,pykka,py,yk,kk,ka,p,y,k,k,a,,0.7505324091762304,0.9505480481311679,1.310547238215804,1.4705422190017998,1.5106497602537274,0.0,pykka,pseudo,lowbf
224,s189,224,theme,th,he,em,me,t,h,e,m,e,,0.7227438800036907,0.78675931179896,0.9706820510327816,1.0987089308910072,1.2027450888417661,0.0,theme,medwf,highbf
225,s189,225,pykka,py,yk,kk,ka,p,y,k,k,a,,0.7345042340457439,0.9344958229921758,1.3826185818761587,1.52650913503021,1.6385913789272308,0.0,pykka,pseudo,lowbf
226,s189,226,belly,be,el,ll,ly,b,e,l,l,y,,0.8348630629479885,0.9308677460066974,1.0908279321156442,1.2508015781641006,1.4029170800931752,0.0,belly,medwf,medbf
227,s189,227,buddy,bu,ud,dd,dy,b,u,d,d,y,,0.7347718202508986,0.9588560010306537,1.1188786630518734,1.270886710844934,1.4147805790416896,0.0,buddy,highwf,lowbf
228,s189,228,about,ab,bo,ou,ut,a,b,o,u,t,,0.7867537229321897,0.9067581281997263,1.1067827199585736,1.154800252057612,1.3147414070554078,0.0,about,highwf,medbf
229,s189,229,zibja,zi,ib,bj,ja,z,i,b,j,a,,1.2629003310576081,1.4069840488955379,1.6469664801843464,1.846976038068533,1.9428656999953091,0.0,zibja,pseudo,lowbf
230,s189,230,kremp,kr,re,em,mp,k,r,e,m,p,,1.1706834672950208,1.418741294182837,1.5146386423148215,1.7067217752337456,1.9066426809877157,0.0,kremp,pseudo,medbf
231,s189,231,belly,be,el,ll,ly,b,e,l,l,y,,0.7347989417612553,0.8627482117153704,0.9907819149084389,1.1587072489783168,1.3188109998591244,0.0,belly,medwf,medbf
232,s189,232,lucky,lu,uc,ck,ky,l,u,c,k,y,,0.5787627017125487,0.7548595597036183,0.8267339807935059,0.9708549627102911,1.2427410488016903,0.0,lucky,highwf,lowbf
233,s189,233,puppy,pu,up,pp,py,p,u,p,p,y,,0.7190091009251773,0.8629055139608681,1.0869765491224825,1.231005537789315,1.4310075137764215,0.0,puppy,medwf,lowbf
234,s189,234,heond,he,eo,on,nd,h,e,o,n,d,,0.810856050811708,0.9549166960641742,1.0748727610334754,1.2828666507266462,1.394899076782167,0.0,heond,pseudo,highbf
235,s189,235,vodka,vo,od,dk,ka,v,o,d,k,a,,0.9908118802122772,1.118805741891265,1.3426856081932783,1.4947794638574123,1.6387093160301447,0.0,vodka,medwf,lowbf
236,s189,236,cheer,ch,he,ee,er,c,h,e,e,r,,0.6906294450163841,0.7946137567050755,0.9625293789431453,1.1385941840708256,1.2986263898201287,0.0,cheer,medwf,highbf
237,s189,237,kremp,kr,re,em,mp,k,r,e,m,p,,0.6546947937458754,0.830695744138211,0.9425853211432695,1.07863531075418,1.2787416577339172,0.0,kremp,pseudo,medbf
238,s189,238,buddy,bu,ud,dd,dy,b,u,d,d,y,,0.7864515162073076,1.0103334463201463,1.1143809570930898,1.2584284613840282,1.3944856831803918,0.0,buddy,highwf,lowbf
239,s189,239,think,th,hi,in,nk,t,h,i,n,k,,0.7424702672287822,0.8384737791493535,1.0064937211573124,1.174554101191461,1.3264665082097054,0.0,think,highwf,highbf
