,sID,Trial #,string,bi_1,bi_2,bi_3,bi_4,key_resp.keys.1,key_resp.keys.2,key_resp.keys.3,key_resp.keys.4,key_resp.keys.5,key_resp.keys.6,key_resp.keys.7,key_resp.rt.1,key_resp.rt.2,key_resp.rt.3,key_resp.rt.4,key_resp.rt.5,key_resp.rt.6,key_resp.rt.7,resp_string,WF Type,BF Type
0,s190,0,tithe,ti,it,th,he,t,i,t,h,e,,,0.872079704888165,1.0081114489585161,1.1041229292750359,1.2160976938903332,1.296148044988513,0.0,0.0,tithe,lowwf,highbf
1,s190,1,about,ab,bo,ou,ut,a,b,o,u,t,,,0.6093099950812757,0.7613486810587347,0.9053852939978242,1.1372715742327273,1.2492685662582517,0.0,0.0,about,highwf,medbf
2,s190,2,champ,ch,ha,am,mp,c,h,a,m,p,,,0.6865149070508778,0.7904941407032311,0.9024333129636943,1.0224953177385032,1.238491193857044,0.0,0.0,champ,medwf,medbf
3,s190,3,pykka,py,yk,kk,ka,p,y,k,k,a,,,0.7622984610497952,0.9783282047137618,1.2102010338567197,1.3863353817723691,1.5062738568522036,0.0,0.0,pykka,pseudo,lowbf
4,s190,4,vanru,va,an,nr,ru,v,a,n,b,r,u,,0.8437494630925357,0.9477309887297451,1.1157098738476634,1.1236759899184108,1.2838149280287325,1.4277778770774603,0.0,vanbru,pseudo,medbf
5,s190,5,vodka,vo,od,dk,ka,v,o,d,k,a,,,0.8811503383331001,1.0012963702902198,1.1291435780003667,1.329140464309603,1.4171315282583237,0.0,0.0,vodka,medwf,lowbf
6,s190,6,puppy,pu,up,pp,py,p,u,p,p,y,,,0.9011172251775861,1.253204045817256,1.373251344077289,1.5171259897761047,1.6291312421672046,0.0,0.0,puppy,medwf,lowbf
7,s190,7,zibja,zi,ib,bj,ja,z,i,b,j,a,,,0.903737363871187,1.0796644426882267,1.263712571002543,1.455739343073219,1.5597549546509981,0.0,0.0,zibja,pseudo,lowbf
8,s190,8,cooed,co,oo,oe,ed,c,o,o,e,d,,,0.7648128401488066,0.8767993901856244,1.0449025062844157,1.4288463639095426,1.6529306350275874,0.0,0.0,cooed,lowwf,medbf
9,s190,9,think,th,hi,in,nk,t,h,i,n,k,,,0.6728169559501112,0.7529330239631236,0.936892312951386,1.0809012399986386,1.2729215421713889,0.0,0.0,think,highwf,highbf
10,s190,10,faqir,fa,aq,qi,ir,f,a,q,i,r,,,0.708551709074527,0.8287171479314566,1.132642013952136,1.5326739032752812,1.7245712941512465,0.0,0.0,faqir,lowwf,lowbf
11,s190,11,belly,be,el,ll,ly,b,e,l,l,y,,,0.648746008053422,0.7527277087792754,0.8887694007717073,1.0487779611721635,1.136782058980316,0.0,0.0,belly,medwf,medbf
12,s190,12,cooed,co,oo,oe,ed,c,o,o,e,d,,,0.6607600380666554,0.9646070706658065,1.1327017457224429,1.3086168356239796,1.5247067618183792,0.0,0.0,cooed,lowwf,medbf
13,s190,13,buddy,bu,ud,dd,dy,b,u,d,d,y,,,0.7209091517142951,0.920903149060905,1.0488962437957525,1.2007843870669603,1.3528506150469184,0.0,0.0,buddy,highwf,lowbf
14,s190,14,therm,th,he,er,rm,t,h,e,r,m,,,0.716743818949908,0.852881982922554,0.9727521450258791,1.0767832761630416,1.244864699896425,0.0,0.0,therm,lowwf,highbf
15,s190,15,heond,he,eo,on,nd,h,e,o,n,d,,,0.8411115002818406,1.4810894201509655,2.073106172028929,2.305053527932614,2.497074204031378,0.0,0.0,heond,pseudo,highbf
16,s190,16,vodka,vo,od,dk,ka,v,o,d,k,a,,,0.8130602659657598,0.9490696848370135,1.0929936957545578,1.3009994300082326,1.3971444489434361,0.0,0.0,vodka,medwf,lowbf
17,s190,17,belly,be,el,ll,ly,b,e,l,l,y,,,0.648981039877981,0.7289586388505995,0.8648607390932739,1.0329636689275503,1.1449668570421636,0.0,0.0,belly,medwf,medbf
18,s190,18,therm,th,he,er,rm,t,h,e,r,m,,,0.6367951077409089,0.740746087860316,0.8606767347082496,0.9408082528971136,1.0606831000186503,0.0,0.0,therm,lowwf,highbf
19,s190,19,theme,th,he,em,me,t,h,e,m,e,,,0.6489078490994871,0.752916653174907,0.8728914079256356,0.9768214328214526,1.1128368629142642,0.0,0.0,theme,medwf,highbf
20,s190,20,there,th,he,er,re,t,h,e,r,e,,,0.6687933248467743,0.7646749899722636,0.8847784008830786,0.9647158738225698,1.1167719108052552,0.0,0.0,there,highwf,highbf
21,s190,21,champ,ch,ha,am,mp,c,h,a,m,p,,,0.7208295557647943,0.8328158375807106,0.96869539283216,1.0807783156633377,1.2967384969815612,0.0,0.0,champ,medwf,medbf
22,s190,22,tithe,ti,it,th,he,t,i,t,h,e,,,0.7328372290357947,0.8767425413243473,1.00473217619583,1.148777002003044,1.244827888906002,0.0,0.0,tithe,lowwf,highbf
23,s190,23,cooed,co,oo,oe,ed,c,o,o,e,d,,,0.7448695781640708,1.0007266253232956,1.1767195351421833,1.3208502223715186,1.5288604912348092,0.0,0.0,cooed,lowwf,medbf
24,s190,24,kremp,kr,re,em,mp,k,r,e,m,p,,,0.8046286487951875,0.9247505120001733,1.0207455367781222,1.1086569717153907,1.332743036095053,0.0,0.0,kremp,pseudo,medbf
25,s190,25,belly,be,el,ll,ly,b,e,l,l,y,,,0.7046466069296002,0.8005421729758382,0.9206638261675835,1.0806406410411,1.2085454538464546,0.0,0.0,belly,medwf,medbf
26,s190,26,vanru,va,an,nr,ru,v,a,n,r,u,,,0.7003088849596679,0.8043709378689528,0.9403189057484269,1.1243056040257215,1.2763557061553001,0.0,0.0,vanru,pseudo,medbf
27,s190,27,there,th,he,er,re,t,h,e,r,e,,,0.6566985687240958,0.7607633359730244,0.8886885298416018,0.9447675398550928,1.0967882489785552,0.0,0.0,there,highwf,highbf
28,s190,28,champ,ch,ha,am,mp,c,h,a,m,p,,,0.6206282349303365,0.7566816280595958,0.8526458800770342,0.9966308730654418,1.2206857167184353,0.0,0.0,champ,medwf,medbf
29,s190,29,edthe,ed,dt,th,he,e,d,t,h,e,,,0.6888396958820522,0.9209480159915984,1.1368853677995503,1.2968320599757135,1.40075473068282,0.0,0.0,edthe,pseudo,highbf
30,s190,30,faqir,fa,aq,qi,ir,f,a,q,i,r,,,0.7647876278497279,0.884741737972945,1.1728497366420925,1.5888256030157208,1.7407451840117574,0.0,0.0,faqir,lowwf,lowbf
31,s190,31,heond,he,eo,on,nd,h,e,o,n,d,,,0.808795616030693,1.4648027960211039,1.696914296131581,1.976818302180618,2.1288876342587173,0.0,0.0,heond,pseudo,highbf
32,s190,32,zibja,zi,ib,bj,ja,z,i,b,j,a,,,0.8048376468941569,0.9968343498185277,1.1488439179956913,1.3168597579933703,1.4048554678447545,0.0,0.0,zibja,pseudo,lowbf
33,s190,33,think,th,hi,in,nk,t,h,i,n,k,,,0.7045336770825088,0.7764699598774314,0.9685853919945657,1.0804952741600573,1.2965923021547496,0.0,0.0,think,highwf,highbf
34,s190,34,buddy,bu,ud,dd,dy,b,u,d,d,y,,,0.6607118239626288,0.8447491461411119,0.9807527340017259,1.1407752600498497,1.284669938031584,0.0,0.0,buddy,highwf,lowbf
35,s190,35,kremp,kr,re,em,mp,k,r,e,m,p,,,0.8327925042249262,0.9607533998787403,1.0328248948790133,1.136947087943554,1.3607551380991936,0.0,0.0,kremp,pseudo,medbf
36,s190,36,cooed,co,oo,oe,ed,c,o,o,e,d,,,0.7965825069695711,0.9486213400959969,1.1086722849868238,1.244630386121571,1.4845560612156987,0.0,0.0,cooed,lowwf,medbf
37,s190,37,would,wo,ou,ul,ld,w,o,u,l,d,,,0.7605353137478232,0.8566444809548557,1.1046481728553772,1.3686496708542109,1.5125569547526538,0.0,0.0,would,highwf,medbf
38,s190,38,theme,th,he,em,me,t,h,e,m,e,,,0.6768193640746176,0.7968717250041664,0.9648406729102135,1.0768552040681243,1.2209116369485855,0.0,0.0,theme,medwf,highbf
39,s190,39,therm,th,he,er,rm,t,h,e,r,m,,,0.7208691411651671,0.8567622099071741,0.97675192495808,1.0647552190348506,1.2568701300770044,0.0,0.0,therm,lowwf,highbf
40,s190,40,edthe,ed,dt,th,he,e,d,t,h,e,,,0.6606527520343661,0.8847201680764556,1.0687197437509894,1.2207585307769477,1.3407084229402244,0.0,0.0,edthe,pseudo,highbf
41,s190,41,cooed,co,oo,oe,ed,c,o,o,e,d,,,0.7687425259500742,0.9527106089517474,1.1287833591923118,1.2487039812840521,1.4726464161649346,0.0,0.0,cooed,lowwf,medbf
42,s190,42,lucky,lu,uc,ck,ky,l,u,c,k,y,,,0.7967846062965691,1.2288495190441608,1.4207751471549273,1.6047561839222908,1.74069653917104,0.0,0.0,lucky,highwf,lowbf
43,s190,43,belly,be,el,ll,ly,b,e,l,l,y,,,0.6407310268841684,0.752744949888438,0.8726773131638765,1.0247400952503085,1.1527473852038383,0.0,0.0,belly,medwf,medbf
44,s190,44,about,ab,bo,ou,ut,a,b,o,u,t,,,0.5568182063288987,0.7248223721981049,0.8528023320250213,1.0847126790322363,1.204776578117162,0.0,0.0,about,highwf,medbf
45,s190,45,champ,ch,ha,am,mp,c,h,a,m,p,,,0.6566290128976107,0.7686687367968261,0.8726101028732955,1.032654075883329,1.2326442836783826,0.0,0.0,champ,medwf,medbf
46,s190,46,pykka,py,yk,kk,ka,p,y,k,k,a,,,0.7565156095661223,0.9885207326151431,1.212547600734979,1.3725528488866985,1.4926112508401275,0.0,0.0,pykka,pseudo,lowbf
47,s190,47,lucky,lu,uc,ck,ky,l,u,c,k,y,,,0.7045487221330404,0.9685979438945651,1.1526654758490622,1.2885592677630484,1.440598031040281,0.0,0.0,lucky,highwf,lowbf
48,s190,48,puppy,pu,up,pp,py,p,u,p,p,y,,,0.8844543541781604,1.1165314889512956,1.276440436951816,1.4285898320376873,1.6046190201304853,0.0,0.0,puppy,medwf,lowbf
49,s190,49,theme,th,he,em,me,t,h,e,m,e,,,0.6807221248745918,0.7766320551745594,0.9287580349482596,1.0167612629011273,1.184622841887176,0.0,0.0,theme,medwf,highbf
50,s190,50,puppy,pu,up,pp,py,p,u,p,p,y,,,0.724528850056231,1.020637326873839,1.1485760137438774,1.2924640430137515,1.4205587510950863,0.0,0.0,puppy,medwf,lowbf
51,s190,51,therm,th,he,er,rm,t,h,e,r,m,,,0.6164667936973274,0.7443965435959399,0.8563943118788302,0.9284788756631315,1.0563619616441429,0.0,0.0,therm,lowwf,highbf
52,s190,52,druze,dr,ru,uz,ze,d,r,u,z,z,e,,0.6444622944109142,0.8844251492992043,1.0445580333471298,1.1644665454514325,1.5805311310105026,1.868550951126963,0.0,druzze,lowwf,lowbf
53,s190,53,buddy,bu,ud,dd,dy,b,u,d,d,y,,,0.6726199453696609,0.8166048731654882,0.9366831872612238,1.1125597362406552,1.224675499368459,0.0,0.0,buddy,highwf,lowbf
54,s190,54,about,ab,bo,ou,ut,a,b,o,u,t,,,0.524669845122844,0.7005330980755389,0.7965893382206559,1.0206513749435544,1.164609779138118,0.0,0.0,about,highwf,medbf
55,s190,55,kremp,kr,re,em,mp,k,r,e,m,p,,,0.9765510330908,1.1686238530091941,1.2486626263707876,1.448652237188071,1.6326535413973033,0.0,0.0,kremp,pseudo,medbf
56,s190,56,therm,th,he,er,rm,t,h,e,r,m,,,0.6287944680079818,0.7408599657937884,0.8687133197672665,0.948813293594867,1.0767215685918927,0.0,0.0,therm,lowwf,highbf
57,s190,57,theme,th,he,em,me,t,h,e,m,e,,,0.6488001388497651,0.7368566249497235,0.8727976311929524,1.016833066008985,1.1288417652249336,0.0,0.0,theme,medwf,highbf
58,s190,58,about,ab,bo,ou,ut,a,b,o,u,t,,,0.5486431373283267,0.7245751400478184,0.8526049591600895,1.0845232461579144,1.228605680167675,0.0,0.0,about,highwf,medbf
59,s190,59,champ,ch,ha,am,mp,c,h,a,m,p,,,0.6403463231399655,0.7603598451241851,0.8723748391494155,1.0164648070931435,1.2644544150680304,0.0,0.0,champ,medwf,medbf
60,s190,60,zibja,zi,ib,bj,ja,z,i,b,j,a,,,0.7564585590735078,0.9643970993347466,1.2683814140036702,1.9085427979007363,2.180501247290522,0.0,0.0,zibja,pseudo,lowbf
61,s190,61,vanru,va,an,nr,ru,v,a,n,r,u,,,0.9446103852242231,1.072640473023057,1.2486225822940469,1.408624473027885,1.576516364235431,0.0,0.0,vanru,pseudo,medbf
62,s190,62,think,th,hi,in,nk,t,h,i,n,k,,,0.7086463491432369,0.7805380350910127,0.9886391842737794,1.1405361439101398,1.356650108937174,0.0,0.0,think,highwf,highbf
63,s190,63,about,ab,bo,ou,ut,a,b,o,u,t,,,0.4964920817874372,0.6404997389763594,0.7284459159709513,0.9444997571408749,1.0964930336922407,0.0,0.0,about,highwf,medbf
64,s190,64,pykka,py,yk,kk,ka,p,y,k,k,a,,,0.7226507500745356,0.9546528873033822,1.2025721832178533,1.370701472274959,1.490706714335829,0.0,0.0,pykka,pseudo,lowbf
65,s190,65,would,wo,ou,ul,ld,w,o,u,l,d,,,0.6159456023015082,0.7039865739643574,0.9359573591500521,1.1919632912613451,1.3039480992592871,0.0,0.0,would,highwf,medbf
66,s190,66,vodka,vo,od,dk,ka,v,o,d,k,a,,,0.7959684329107404,0.9479715009219944,1.1319869491271675,1.347922925837338,1.4599337191320956,0.0,0.0,vodka,medwf,lowbf
67,s190,67,zibja,zi,ib,bj,ja,z,i,b,j,a,,,1.0879677361808717,1.3838110300712287,1.5280213323421776,1.7758326344192028,1.9039377933368087,0.0,0.0,zibja,pseudo,lowbf
68,s190,68,there,th,he,er,re,t,h,e,r,e,,,0.739601971115917,0.851713193114847,0.9636869211681187,1.019727713894099,1.1637069480493665,0.0,0.0,there,highwf,highbf
69,s190,69,puppy,pu,up,pp,py,p,u,p,p,y,,,0.8877516901120543,1.2157433130778372,1.3596727750264108,1.5118054351769388,1.6397780403494835,0.0,0.0,puppy,medwf,lowbf
70,s190,70,edthe,ed,dt,th,he,e,d,t,h,e,,,0.7238927339203656,0.971886717248708,1.1798812788911164,1.3399614640511572,1.4359020991250873,0.0,0.0,edthe,pseudo,highbf
71,s190,71,druze,dr,ru,uz,ze,d,r,u,z,e,,,0.6959062917158008,0.919993151910603,1.1199487787671387,1.2239505546167493,1.4959365339018404,0.0,0.0,druze,lowwf,lowbf
72,s190,72,there,th,he,er,re,t,h,e,r,e,,,0.6437818738631904,0.7717742389068007,0.8837585370056331,0.979856148827821,1.1237635971046984,0.0,0.0,there,highwf,highbf
73,s190,73,lucky,lu,uc,ck,ky,l,u,c,k,y,,,0.8475536578334868,1.1276099891401827,1.28766898997128,1.4796239621937275,1.6075718882493675,0.0,0.0,lucky,highwf,lowbf
74,s190,74,haole,ha,ao,ol,le,h,a,o,l,e,,,0.6835610121488571,0.8196725002489984,1.0356754530221224,1.2675495170988142,1.3797036493197083,0.0,0.0,haole,lowwf,medbf
75,s190,75,kremp,kr,re,em,mp,k,r,e,m,p,,,0.9678338011726737,1.0878950422629714,1.167846686206758,1.2959213671274483,1.5199743350967765,0.0,0.0,kremp,pseudo,medbf
76,s190,76,pykka,py,yk,kk,ka,p,y,k,k,a,,,0.8675910448655486,1.0675875837914646,1.3077104962430894,1.47558199102059,1.603717387188226,0.0,0.0,pykka,pseudo,lowbf
77,s190,77,vodka,vo,od,dk,ka,v,o,d,k,a,,,0.8076779912225902,0.9756654100492597,1.1437239842489362,1.3277234970591962,1.43978616502136,0.0,0.0,vodka,medwf,lowbf
78,s190,78,haole,ha,ao,ol,le,h,a,o,l,e,,,0.8436870141886175,1.0278359721414745,1.1878353389911354,1.4118141359649599,1.5078008309938014,0.0,0.0,haole,lowwf,medbf
79,s190,79,faqir,fa,aq,qi,ir,f,a,q,i,r,,,0.7199521921575069,0.8319252440705895,1.1518531497567892,1.5279010338708758,1.6719384980387986,0.0,0.0,faqir,lowwf,lowbf
80,s190,80,heond,he,eo,on,nd,h,e,o,n,d,,,0.819983190856874,1.075913914013654,1.2360137696377933,1.467887635808438,1.5958731709979475,0.0,0.0,heond,pseudo,highbf
81,s190,81,puppy,pu,up,pp,py,p,u,p,p,y,,,0.767575214151293,0.9996708831749856,1.1595516670495272,1.3116609663702548,1.4316065879538655,0.0,0.0,puppy,medwf,lowbf
82,s190,82,tithe,ti,it,th,he,t,i,t,h,e,,,0.7156108771450818,0.8434990840032697,0.9876551763154566,1.1475138133391738,1.2116330661810935,0.0,0.0,tithe,lowwf,highbf
83,s190,83,buddy,bu,ud,dd,dy,b,u,d,d,y,,,0.7116909539327025,0.8796578710898757,1.0235618050210178,1.1996546420268714,1.2955826241523027,0.0,0.0,buddy,highwf,lowbf
84,s190,84,edthe,ed,dt,th,he,e,d,t,h,e,,,0.6276095150969923,0.8356155352666974,1.0356110013090074,1.1716040959581733,1.283540132921189,0.0,0.0,edthe,pseudo,highbf
85,s190,85,heond,he,eo,on,nd,h,e,o,n,d,,,0.7516868822276592,0.9517239034175873,1.127696085255593,1.3357503591105342,1.479630057234317,0.0,0.0,heond,pseudo,highbf
86,s190,86,haole,ha,ao,ol,le,h,a,o,l,e,,,0.7144098607823253,0.8503560298122466,1.0663828658871353,1.2904700846411288,1.4024876519106328,0.0,0.0,haole,lowwf,medbf
87,s190,87,cheer,ch,he,ee,er,c,h,e,e,r,,,0.6951920953579247,0.8391520231962204,0.9670296423137188,1.143028796184808,1.3910346860066056,0.0,0.0,cheer,medwf,highbf
88,s190,88,kremp,kr,re,em,mp,k,r,e,m,p,,,0.8749467171728611,0.9870890309102833,1.0508880019187927,1.1710080169141293,1.4029757608659565,0.0,0.0,kremp,pseudo,medbf
89,s190,89,lucky,lu,uc,ck,ky,l,u,c,k,y,,,0.822096339892596,1.1420201119035482,1.2780663799494505,1.4539825390093029,1.6220308458432555,0.0,0.0,lucky,highwf,lowbf
90,s190,90,think,th,hi,in,nk,t,h,i,n,k,,,0.6423066691495478,0.7542960732243955,0.9383801240473986,1.1143194851465523,1.3223594399169087,0.0,0.0,think,highwf,highbf
91,s190,91,vanru,va,an,nr,ru,v,a,n,r,u,,,0.8140718238428235,0.9100774838589132,1.1100564650259912,1.3180769737809896,1.4861617018468678,0.0,0.0,vanru,pseudo,medbf
92,s190,92,haole,ha,ao,ol,le,h,a,o,l,e,,,0.7454922860488296,0.8813781891949475,1.1053254613652825,1.3533874889835715,1.4814166580326855,0.0,0.0,haole,lowwf,medbf
93,s190,93,buddy,bu,ud,dd,dy,b,u,d,d,y,,,0.6382368472404778,0.7982138814404607,0.9261570093221962,1.0941871372051537,1.2141906451433897,0.0,0.0,buddy,highwf,lowbf
94,s190,94,zibja,zi,ib,bj,ja,z,i,b,j,a,,,0.8099336777813733,1.0419157920405269,1.2259400440379977,1.433935851790011,1.5460035717114806,0.0,0.0,zibja,pseudo,lowbf
95,s190,95,cheer,ch,he,ee,er,c,h,e,e,r,,,0.7022607130929828,0.8302397793158889,0.9501384729519486,1.0943216001614928,1.302256854251027,0.0,0.0,cheer,medwf,highbf
96,s190,96,tithe,ti,it,th,he,t,i,t,h,e,,,0.6582848280668259,0.7942529539577663,0.9222318800166249,1.0421738270670176,1.1462321900762618,0.0,0.0,tithe,lowwf,highbf
97,s190,97,belly,be,el,ll,ly,b,e,l,l,y,,,0.6622979599051178,0.7822969169355929,0.9421980646438897,1.110208943951875,1.2223348207771778,0.0,0.0,belly,medwf,medbf
98,s190,98,tithe,ti,it,th,he,t,i,t,h,e,,,0.6341831889003515,0.7381917517632246,0.8663134658709168,1.0021815886721015,1.0822996576316655,0.0,0.0,tithe,lowwf,highbf
99,s190,99,would,wo,ou,ul,ld,w,o,u,l,d,,,0.710308036301285,0.8064171839505434,1.062349250074476,1.3184061483480036,1.4623218080960214,0.0,0.0,would,highwf,medbf
100,s190,100,pykka,py,yk,kk,ka,p,y,k,k,a,,,0.9384502917528152,1.1224543587304652,1.3304318338632584,1.4983991021290421,1.6584542631171644,0.0,0.0,pykka,pseudo,lowbf
101,s190,101,cheer,ch,he,ee,er,c,h,e,e,r,,,0.7341111446730793,0.854257320985198,0.9981153476983309,1.1741381296887994,1.4222250799648464,0.0,0.0,cheer,medwf,highbf
102,s190,102,would,wo,ou,ul,ld,w,o,u,l,d,,,0.642184569966048,0.8022596510127187,1.1862276270985603,1.4341476517729461,1.5702726230956614,0.0,0.0,would,highwf,medbf
103,s190,103,theme,th,he,em,me,t,h,m,backspace,e,m,e,0.6300674891099334,0.7259928002022207,1.0140146249905229,1.5820581642910838,1.798002507071942,1.9580732840113342,2.3581137591972947,thmbackspaceeme,medwf,highbf
104,s190,104,faqir,fa,aq,qi,ir,f,a,q,i,r,,,0.7615349092520773,0.8575420691631734,1.2254847981967032,1.4655481111258268,1.6094428501091897,0.0,0.0,faqir,lowwf,lowbf
105,s190,105,druze,dr,ru,uz,ze,d,r,u,z,e,,,0.6616663672029972,0.8537272969260812,1.0536787449382246,1.1496273940429091,1.3656169809401035,0.0,0.0,druze,lowwf,lowbf
106,s190,106,vanru,va,an,nr,ru,v,a,n,r,u,,,0.6814906010404229,0.8094392349012196,0.9695606431923807,1.1135553722269833,1.3215268859639764,0.0,0.0,vanru,pseudo,medbf
107,s190,107,vodka,vo,od,dk,ka,c,v,o,d,k,a,,0.8296174588613212,1.541665414813906,1.685685477219522,1.8136800741776824,2.061693042051047,2.1737160780467093,0.0,cvodka,medwf,lowbf
108,s190,108,cheer,ch,he,ee,er,c,h,e,e,r,,,0.625598166603595,0.7456933767534792,0.8737144297920167,1.0176113066263497,1.2336643957532942,0.0,0.0,cheer,medwf,highbf
109,s190,109,haole,ha,ao,ol,le,h,a,o,l,e,,,0.7413874701596797,0.9093760158866644,1.2055435399524868,1.4455159669741988,1.5574984150007367,0.0,0.0,haole,lowwf,medbf
110,s190,110,edthe,ed,dt,th,he,e,d,t,h,e,,,0.6415180382318795,0.8655521338805556,1.0494821309112012,1.1775032561272383,1.265550914220512,0.0,0.0,edthe,pseudo,highbf
111,s190,111,heond,he,eo,on,nd,h,e,o,n,d,,,0.7173549011349678,0.901492727920413,1.0695054540410638,1.3014027178287506,1.4293945487588644,0.0,0.0,heond,pseudo,highbf
112,s190,112,lucky,lu,uc,ck,ky,l,u,c,k,y,,,0.6494863927364349,1.0494433557614684,1.2334577930159867,1.3933958299458027,1.569483210798353,0.0,0.0,lucky,highwf,lowbf
113,s190,113,would,wo,ou,ul,ld,w,o,u,l,d,,,0.6054480993188918,0.6933202249929309,0.9173240573145449,1.1654030862264335,1.2773778410628438,0.0,0.0,would,highwf,medbf
114,s190,114,faqir,fa,aq,qi,ir,f,a,q,i,r,,,0.6246341969817877,0.7285756631754339,1.0405659331008792,1.2646569502539933,1.4085614089854062,0.0,0.0,faqir,lowwf,lowbf
115,s190,115,cheer,ch,he,ee,er,c,h,e,e,r,,,0.621551797259599,0.7415695982053876,0.8535843249410391,1.0214473688974977,1.2214649221859872,0.0,0.0,cheer,medwf,highbf
116,s190,116,druze,dr,ru,uz,ze,d,r,u,z,e,,,0.64943095901981,0.8414419307373464,1.0173635859973729,1.1054820837453008,1.25740432087332,0.0,0.0,druze,lowwf,lowbf
117,s190,117,think,th,hi,in,nk,t,h,i,n,k,,,0.6692531760782003,0.7331553329713643,0.9171509030275047,1.0613023219630122,1.2452236670069396,0.0,0.0,think,highwf,highbf
118,s190,118,there,th,he,er,re,t,h,e,r,e,,,0.6016546217724681,0.7136221160180867,0.8095157877542078,0.9216193431057036,1.0655389949679375,0.0,0.0,there,highwf,highbf
119,s190,119,druze,dr,ru,uz,ze,d,r,u,z,e,,,0.6215330110862851,0.8454736168496311,0.9894609609618783,1.109400202985853,1.2455523116514087,0.0,0.0,druze,lowwf,lowbf
120,s190,120,about,ab,bo,ou,ut,a,b,o,u,t,,,0.7425424070097506,0.8865976259112358,0.9826488709077239,1.1906200177036226,1.2866734908893704,0.0,0.0,about,highwf,medbf
121,s190,121,pykka,py,yk,kk,ka,p,y,k,k,a,,,0.7939236187376082,0.9939659517258406,1.209903336595744,1.3779877196066082,1.4740228806622326,0.0,0.0,pykka,pseudo,lowbf
122,s190,122,zibja,zi,ib,bj,ja,z,i,b,j,a,,,0.7177070244215429,0.9097254360094666,1.0537861352786422,1.2618313604034483,1.3738110340200365,0.0,0.0,zibja,pseudo,lowbf
123,s190,123,faqir,fa,aq,qi,ir,f,a,q,i,r,,,0.7061228239908814,0.8101100591011345,1.074163710232824,1.250160040333867,1.4180474942550063,0.0,0.0,faqir,lowwf,lowbf
124,s190,124,cheer,ch,he,ee,er,c,h,e,e,r,,,0.6220205817371607,0.7421056358143687,0.8380708368495107,1.0220981310121715,1.2300780597142875,0.0,0.0,cheer,medwf,highbf
125,s190,125,faqir,fa,aq,qi,ir,f,a,q,i,r,,,0.6260355310514569,0.7301045469939709,1.0501629509963095,1.226036449894309,1.3701756009832025,0.0,0.0,faqir,lowwf,lowbf
126,s190,126,think,th,hi,in,nk,t,h,i,n,k,,,0.630274161696434,0.718185449950397,0.894194982945919,1.0543860886245966,1.2622710149735212,0.0,0.0,think,highwf,highbf
127,s190,127,vodka,vo,od,dk,ka,v,o,d,k,a,,,0.809862591791898,0.9619112857617438,1.0819675796665251,1.2659250856377184,1.3699422078207135,0.0,0.0,vodka,medwf,lowbf
128,s190,128,haole,ha,ao,ol,le,h,a,o,l,e,,,0.717992858029902,0.8541344562545419,1.030072991270572,1.2460235343314707,1.358054332435131,0.0,0.0,haole,lowwf,medbf
129,s190,129,tithe,ti,it,th,he,t,i,t,h,e,,,0.6339656813070178,0.7380786100402474,0.8820424671284854,1.0020775310695171,1.1219801711849868,0.0,0.0,tithe,lowwf,highbf
130,s190,130,cooed,co,oo,oe,ed,c,o,o,e,d,,,0.7737794951535761,0.8938036011531949,1.1018111002631485,1.2379877329804003,1.4539047069847584,0.0,0.0,cooed,lowwf,medbf
131,s190,131,vodka,vo,od,dk,ka,v,o,d,k,a,,,0.6819249433465302,0.7938813911750913,0.9540125350467861,1.0899905334226787,1.2098764614202082,0.0,0.0,vodka,medwf,lowbf
132,s190,132,heond,he,eo,on,nd,h,e,o,n,d,,,0.7098552673123777,0.8539942572824657,0.9899545670486987,1.205919946078211,1.2938521462492645,0.0,0.0,heond,pseudo,highbf
133,s190,133,about,ab,bo,ou,ut,a,b,o,u,t,,,0.5140898670069873,0.6740030068904161,0.7781142168678343,1.0021235700696707,1.1620955527760088,0.0,0.0,about,highwf,medbf
134,s190,134,there,th,he,er,re,t,h,e,r,e,,,0.621873187366873,0.7098079770803452,0.8218516809865832,0.8859378811903298,1.0218291119672358,0.0,0.0,there,highwf,highbf
135,s190,135,vanru,va,an,nr,ru,v,a,n,r,u,,,0.6257761749438941,0.7618038700893521,0.8898128410801291,1.0177074861712754,1.1538600651547313,0.0,0.0,vanru,pseudo,medbf
136,s190,136,pykka,py,yk,kk,ka,p,y,k,k,a,,,0.6621106863021851,0.9020576560869813,1.1020595040172338,1.2620343030430377,1.3580229291692376,0.0,0.0,pykka,pseudo,lowbf
137,s190,137,therm,th,he,er,rm,t,h,e,r,m,,,0.5779587477445602,0.6900042868219316,0.7779710898175836,0.8579632779583335,0.9619369260035455,0.0,0.0,therm,lowwf,highbf
138,s190,138,buddy,bu,ud,dd,dy,b,u,d,d,y,,,0.6619502641260624,0.8379313270561397,0.96596439788118,1.1338449958711863,1.381924320012331,0.0,0.0,buddy,highwf,lowbf
139,s190,139,kremp,kr,re,em,mp,k,r,e,m,p,,,0.6979934400878847,0.8740461729466915,0.9459316781722009,1.0979444500990212,1.2979456670582294,0.0,0.0,kremp,pseudo,medbf
140,s190,140,druze,dr,ru,uz,ze,d,r,u,z,e,,,0.6059421761892736,0.8059880193322897,0.9499968881718814,1.070001716259867,1.213969875127077,0.0,0.0,druze,lowwf,lowbf
141,s190,141,belly,be,el,ll,ly,b,e,l,l,y,,,0.5859643211588264,0.7059595421887934,0.8579015270806849,1.042017387226224,1.1218448081053793,0.0,0.0,belly,medwf,medbf
142,s190,142,kremp,kr,re,em,mp,k,r,e,m,p,,,0.5978779466822743,0.8058759849518538,0.8859936357475817,1.045851405709982,1.2299331068061292,0.0,0.0,kremp,pseudo,medbf
143,s190,143,therm,th,he,er,rm,t,h,e,r,m,,,0.6418465082533658,0.7538329842500389,0.8738399841822684,0.94575060531497,1.0498135020025074,0.0,0.0,therm,lowwf,highbf
144,s190,144,would,wo,ou,ul,ld,w,o,u,l,d,,,0.5819518943317235,0.685971393249929,0.9178479071706533,1.1579558583907783,1.2780164740979671,0.0,0.0,would,highwf,medbf
145,s190,145,vodka,vo,od,dk,ka,v,o,d,k,a,,,0.6418569078668952,0.7539720661006868,0.8978658448904753,1.0979024260304868,1.209866519086063,0.0,0.0,vodka,medwf,lowbf
146,s190,146,druze,dr,ru,uz,ze,d,r,u,z,e,,,0.6057179588824511,0.8216884299181402,0.9656785968691111,1.0777153908275068,1.2537130890414119,0.0,0.0,druze,lowwf,lowbf
147,s190,147,there,th,he,er,re,t,h,e,r,e,,,0.609742077998817,0.7298273150809109,0.8337291590869427,0.8977483892813325,1.0337367933243513,0.0,0.0,there,highwf,highbf
148,s190,148,about,ab,bo,ou,ut,a,b,o,u,t,,,0.5018126009963453,0.6537780398502946,0.7497826400212944,0.9737445781938732,1.10967474617064,0.0,0.0,about,highwf,medbf
149,s190,149,champ,ch,ha,am,mp,c,h,a,m,p,,,0.7057802341878414,0.8257966469973326,0.9458391349762678,1.0817990531213582,1.2897783261723816,0.0,0.0,champ,medwf,medbf
150,s190,150,theme,th,he,em,me,t,h,e,m,e,,,0.5818472048267722,0.6937273046933115,0.8138450989499688,0.9658553097397089,1.0858203540556133,0.0,0.0,theme,medwf,highbf
151,s190,151,zibja,zi,ib,bj,ja,z,i,b,j,a,,,0.7058885172009468,1.3379145818762481,1.4898163969628513,1.729982083197683,1.849961597006768,0.0,0.0,zibja,pseudo,lowbf
152,s190,152,champ,ch,ha,am,mp,c,h,a,m,p,,,0.7019164129160345,0.821979456115514,0.9419892700389028,1.0859025842510164,1.3019864773377776,0.0,0.0,champ,medwf,medbf
153,s190,153,faqir,fa,aq,qi,ir,f,a,q,i,r,,,0.7300460641272366,0.8579799658618867,1.3060294990427792,1.522029488813132,1.7059814240783453,0.0,0.0,faqir,lowwf,lowbf
154,s190,154,would,wo,ou,ul,ld,w,o,u,l,d,,,0.6539868568070233,0.7419795161113143,0.9819984519854188,1.2459499291144311,1.3579555158503354,0.0,0.0,would,highwf,medbf
155,s190,155,heond,he,eo,on,nd,h,e,o,n,d,,,0.6819671611301601,0.8019932578317821,0.953962885774672,1.1540173497051,1.2659834497608244,0.0,0.0,heond,pseudo,highbf
156,s190,156,there,th,he,er,re,t,h,e,r,e,,,0.6138389757834375,0.7177258068695664,0.8457109117880464,0.9097357150167227,1.061864994931966,0.0,0.0,there,highwf,highbf
157,s190,157,think,th,hi,in,nk,t,h,i,n,k,,,0.545608039945364,0.6417459989897907,0.841620631981641,1.0096261883154511,1.2336268522776663,0.0,0.0,think,highwf,highbf
158,s190,158,cooed,co,oo,oe,ed,c,o,o,e,d,,,0.6373877450823784,0.7814590912312269,0.9734483379870653,1.1333876233547926,1.3573891939595342,0.0,0.0,cooed,lowwf,medbf
159,s190,159,would,wo,ou,ul,ld,w,o,u,l,d,,,0.6417831070721149,0.7377914190292358,0.993646337185055,1.2577780219726264,1.3936680681072176,0.0,0.0,would,highwf,medbf
160,s190,160,cheer,ch,he,ee,er,c,h,e,e,r,,,0.6297783153131604,0.8058109642006457,0.9498116569593549,1.1018220111727715,1.3737013610079885,0.0,0.0,cheer,medwf,highbf
161,s190,161,puppy,pu,up,pp,py,p,u,p,p,y,,,0.7536855950020254,1.0576747050508857,1.2335890959948301,1.4095969311892986,1.5216632303781807,0.0,0.0,puppy,medwf,lowbf
162,s190,162,vanru,va,an,nr,ru,v,a,n,r,u,,,0.6855066474527121,0.8214032831601799,0.9733877833932638,1.1013819612562656,1.253522066399455,0.0,0.0,vanru,pseudo,medbf
163,s190,163,about,ab,bo,ou,ut,a,b,o,u,t,,,0.5456965649500489,0.6977321826852858,0.8176916767843068,1.0497972648590803,1.1856813146732748,0.0,0.0,about,highwf,medbf
164,s190,164,cooed,co,oo,oe,ed,c,o,o,e,d,,,0.6935951909981668,0.8217139379121363,1.013666118029505,1.1336064678616822,1.3657057769596577,0.0,0.0,cooed,lowwf,medbf
165,s190,165,vanru,va,an,nr,ru,v,a,n,r,u,,,0.7298053330741823,0.8257496538572013,1.0096907219849527,1.1936803380958736,1.3376855682581663,0.0,0.0,vanru,pseudo,medbf
166,s190,166,belly,be,el,ll,ly,b,e,l,l,y,,,0.6859050001949072,0.7978079449385405,0.9177542640827596,1.1178666013292968,1.2618469540029764,0.0,0.0,belly,medwf,medbf
167,s190,167,lucky,lu,uc,ck,ky,l,u,c,k,y,,,0.7138630170375109,0.9937768350355327,1.177899671252817,1.3138656942173839,1.497796637006104,0.0,0.0,lucky,highwf,lowbf
168,s190,168,pykka,py,yk,kk,ka,p,y,k,k,a,,,0.8055276330560446,0.997582518029958,1.2056536311283708,1.381592731922865,1.5175168528221548,0.0,0.0,pykka,pseudo,lowbf
169,s190,169,champ,ch,ha,am,mp,c,h,a,m,p,,,0.6656790631823242,0.8175710802897811,0.9536971938796341,1.1056328332051635,1.3456155890598893,0.0,0.0,champ,medwf,medbf
170,s190,170,belly,be,el,ll,ly,b,e,l,l,y,,,0.7015166901983321,0.821521146222949,0.9495662301778793,1.1335540981963277,1.2454469483345747,0.0,0.0,belly,medwf,medbf
171,s190,171,buddy,bu,ud,dd,dy,b,u,d,d,y,,,0.6654587420634925,0.8414846360683441,0.9854867677204311,1.1694855820387602,1.2494693156331778,0.0,0.0,buddy,highwf,lowbf
172,s190,172,belly,be,el,ll,ly,b,e,l,l,y,,,0.5734621603041887,0.6694742604158819,0.8053527851589024,0.9654053393751383,1.0853420654311776,0.0,0.0,belly,medwf,medbf
173,s190,173,about,ab,bo,ou,ut,a,b,o,u,t,,,0.5136700947768986,0.6656830445863307,0.7696567350067198,1.025588751770556,1.121689131949097,0.0,0.0,about,highwf,medbf
174,s190,174,think,th,hi,in,nk,t,h,i,n,k,,,0.6376489489339292,0.7496399246156216,0.9335333006456494,1.0935594639740884,1.3095368477515876,0.0,0.0,think,highwf,highbf
175,s190,175,theme,th,he,em,me,t,h,e,m,e,,,0.6413753828965127,0.7535018227063119,0.9134724987670779,1.0494700530543923,1.1453532711602747,0.0,0.0,theme,medwf,highbf
176,s190,176,zibja,zi,ib,bj,ja,z,i,b,j,a,,,0.8294356991536915,1.0214836252853274,1.1973989233374596,1.3974122172221541,1.4933701232075691,0.0,0.0,zibja,pseudo,lowbf
177,s190,177,heond,he,eo,on,nd,h,e,o,n,d,,,0.7287340392358601,0.8646686351858079,1.024648569058627,1.2245833561755717,1.3767282492481172,0.0,0.0,heond,pseudo,highbf
178,s190,178,champ,ch,ha,am,mp,c,h,a,m,p,,,0.6294959881342947,0.7735155979171395,0.8694695807062089,1.0695442408323288,1.325473987031728,0.0,0.0,champ,medwf,medbf
179,s190,179,tithe,ti,it,th,he,t,i,t,h,e,,,0.68979666614905,0.8337654541246593,0.9618128030560911,1.0897356239147484,1.1778014148585498,0.0,0.0,tithe,lowwf,highbf
180,s190,180,puppy,pu,up,pp,py,p,u,p,p,y,,,0.6133301993831992,1.117281123995781,1.2453668462112546,1.3812893321737647,1.5333257741294801,0.0,0.0,puppy,medwf,lowbf
181,s190,181,heond,he,eo,on,nd,h,e,o,n,d,,,0.7058440539985895,0.8097304399125278,0.9777395967394114,1.2017819317989051,1.3137548519298434,0.0,0.0,heond,pseudo,highbf
182,s190,182,would,wo,ou,ul,ld,w,o,u,l,d,,,0.5655587841756642,0.6455095931887627,0.8615872617810965,1.1254741200245917,1.2455938821658492,0.0,0.0,would,highwf,medbf
183,s190,183,lucky,lu,uc,ck,ky,l,u,c,k,y,,,0.6015336131677032,0.8735207859426737,1.0015050182119012,1.145402783062309,1.3615541229955852,0.0,0.0,lucky,highwf,lowbf
184,s190,184,buddy,bu,ud,dd,dy,b,u,d,d,y,,,0.621586951892823,0.7815475002862513,0.9016092801466584,1.06961123412475,1.1974858031608164,0.0,0.0,buddy,highwf,lowbf
185,s190,185,tithe,ti,it,th,he,t,i,t,h,e,,,0.5614715740084648,0.6494527417235076,0.7933925250545144,0.9375192206352949,1.0093837049789727,0.0,0.0,tithe,lowwf,highbf
186,s190,186,would,wo,ou,ul,ld,w,o,u,l,d,,,0.5415746988728642,0.6135648167692125,0.8375330427661538,1.0855756369419396,1.1735730217769742,0.0,0.0,would,highwf,medbf
187,s190,187,puppy,pu,up,pp,py,p,u,p,p,y,,,0.6013788925483823,0.8974487278610468,1.0093851727433503,1.1694643278606236,1.2415050538256764,0.0,0.0,puppy,medwf,lowbf
188,s190,188,edthe,ed,dt,th,he,e,d,t,h,e,,,0.637214164249599,0.8771948460489511,1.0852969912812114,1.2292311559431255,1.3413086808286607,0.0,0.0,edthe,pseudo,highbf
189,s190,189,buddy,bu,ud,dd,dy,b,u,d,d,y,,,0.617105292622,0.7851063786074519,0.9132196167483926,1.0891583529300988,1.1851985328830779,0.0,0.0,buddy,highwf,lowbf
190,s190,190,lucky,lu,uc,ck,ky,l,u,c,k,y,,,0.7255619559437037,0.9896335918456316,1.1255622152239084,1.2696407451294363,1.4696406181901693,0.0,0.0,lucky,highwf,lowbf
191,s190,191,druze,dr,ru,uz,ze,d,r,u,z,e,,,0.6416568639688194,1.0496124541386962,1.2496325368992984,1.353579540271312,1.593526819255203,0.0,0.0,druze,lowwf,lowbf
192,s190,192,theme,th,he,em,me,t,h,e,m,e,,,0.5976928621530533,0.7175942342728376,0.8136414708569646,0.9656686820089817,1.0537400729954243,0.0,0.0,theme,medwf,highbf
193,s190,193,buddy,bu,ud,dd,dy,b,u,d,d,y,,,0.6576178097166121,0.8017192138358951,0.9456538399681449,1.1215503867715597,1.2255698926746845,0.0,0.0,buddy,highwf,lowbf
194,s190,194,kremp,kr,re,em,mp,k,r,e,m,p,,,0.8377369870431721,0.9497429900802672,1.0297100450843573,1.181635889224708,1.405755062121898,0.0,0.0,kremp,pseudo,medbf
195,s190,195,there,th,he,er,re,t,h,e,r,e,,,0.6815304779447615,0.8015440301969647,0.9135620119050145,1.001572203822434,1.1376009960658848,0.0,0.0,there,highwf,highbf
196,s190,196,lucky,lu,uc,ck,ky,l,u,c,k,y,,,0.7332765562459826,1.0533167202956975,1.1812516790814698,1.381212105974555,1.5413160133175552,0.0,0.0,lucky,highwf,lowbf
197,s190,197,puppy,pu,up,pp,py,p,u,p,p,y,,,0.6814997969195247,1.0415236712433398,1.265524448826909,1.4495571851730347,1.6015044650994241,0.0,0.0,puppy,medwf,lowbf
198,s190,198,druze,dr,ru,uz,ze,d,r,u,z,e,,,0.6614871448837221,0.8695129840634763,1.0934068290516734,1.1893895347602665,1.3735076929442585,0.0,0.0,druze,lowwf,lowbf
199,s190,199,tithe,ti,it,th,he,t,i,t,h,e,,,0.6335003990679979,0.7375125619582832,0.8894938752055168,1.0414597392082214,1.121538668870926,0.0,0.0,tithe,lowwf,highbf
200,s190,200,lucky,lu,uc,ck,ky,l,u,c,k,y,,,0.8054402810521424,1.1173303970135748,1.261413674801588,1.4614180331118405,1.6133914710953832,0.0,0.0,lucky,highwf,lowbf
201,s190,201,faqir,fa,aq,qi,ir,f,a,q,i,r,,,0.7130324770696461,0.9289506142958999,1.2489865589886904,1.4889982021413743,1.6569253569468856,0.0,0.0,faqir,lowwf,lowbf
202,s190,202,theme,th,he,em,me,t,h,e,m,e,,,0.6054672640748322,0.6933447360061109,0.8293624157086015,0.9574750168249011,1.0694718579761684,0.0,0.0,theme,medwf,highbf
203,s190,203,edthe,ed,dt,th,he,e,d,t,h,e,,,0.8171535362489522,1.0412298101000488,1.225153076928109,1.3771768962033093,1.4652300900779665,0.0,0.0,edthe,pseudo,highbf
204,s190,204,pykka,py,yk,kk,ka,p,y,k,k,a,,,0.7174424352124333,0.9335529571399093,1.173444766085595,1.3495463822036982,1.4375653229653835,0.0,0.0,pykka,pseudo,lowbf
205,s190,205,think,th,hi,in,nk,t,h,i,n,k,,,0.6016997629776597,0.7216240898706019,0.9136010459624231,1.0416008117608726,1.2416448607109487,0.0,0.0,think,highwf,highbf
206,s190,206,haole,ha,ao,ol,le,h,a,o,l,e,,,0.6294260532595217,0.7575426362454891,0.9414437361992896,1.1735416892915964,1.269528475124389,0.0,0.0,haole,lowwf,medbf
207,s190,207,puppy,pu,up,pp,py,p,u,p,p,y,,,0.5935568800196052,0.8895611809566617,1.0095555488951504,1.1775635872036219,1.2816327400505543,0.0,0.0,puppy,medwf,lowbf
208,s190,208,edthe,ed,dt,th,he,e,d,t,h,e,,,0.6294715460389853,0.9814690742641687,1.1974914548918605,1.3655754798091948,1.4535948731936514,0.0,0.0,edthe,pseudo,highbf
209,s190,209,kremp,kr,re,em,mp,k,r,e,m,p,,,0.7854809598065913,0.9214920159429312,0.9933771560899913,1.12147231772542,1.3614539140835404,0.0,0.0,kremp,pseudo,medbf
210,s190,210,haole,ha,ao,ol,le,h,a,o,l,e,,,0.653259807266295,0.7252382291480899,0.9492097073234618,1.1891867923550308,1.2771423570811749,0.0,0.0,haole,lowwf,medbf
211,s190,211,edthe,ed,dt,th,he,e,d,t,h,e,,,0.6733661368489265,0.8893705559894443,1.0653627240099013,1.1933010411448777,1.3052732250653207,0.0,0.0,edthe,pseudo,highbf
212,s190,212,tithe,ti,it,th,he,t,i,t,h,e,,,0.7494679926894605,0.8214040407910943,0.9654472228139639,1.085482802707702,1.197392894886434,0.0,0.0,tithe,lowwf,highbf
213,s190,213,therm,th,he,er,rm,t,h,e,r,m,,,0.6012191898189485,0.6973145017400384,0.8172214888036251,0.8732308717444539,0.9853421561419964,0.0,0.0,therm,lowwf,highbf
214,s190,214,heond,he,eo,on,nd,h,e,o,n,d,,,0.7331844982691109,0.8851569392718375,1.0291127632372081,1.237264740280807,1.3811430442146957,0.0,0.0,heond,pseudo,highbf
215,s190,215,cheer,ch,he,ee,er,c,h,e,e,r,,,0.6733567276969552,0.7932775970548391,0.9214357719756663,1.065353235695511,1.2653625030070543,0.0,0.0,cheer,medwf,highbf
216,s190,216,therm,th,he,er,rm,t,h,e,r,m,,,0.6134436610154808,0.7094505811110139,0.8294271090999246,0.9334785640239716,1.0214948812499642,0.0,0.0,therm,lowwf,highbf
217,s190,217,cheer,ch,he,ee,er,c,h,e,e,r,,,0.5693019898608327,0.6892454591579735,0.8252945388667285,0.9452818571589887,1.2972476920112967,0.0,0.0,cheer,medwf,highbf
218,s190,218,haole,ha,ao,ol,le,h,a,o,l,e,,,0.6694714231416583,0.7894005100242794,0.9813496670685709,1.2134514511562884,1.285466921981424,0.0,0.0,haole,lowwf,medbf
219,s190,219,cooed,co,oo,oe,ed,c,o,o,e,d,,,0.6656263084150851,0.7856193613260984,0.9775104019790888,1.089606162160635,1.3536426620557904,0.0,0.0,cooed,lowwf,medbf
220,s190,220,edthe,ed,dt,th,he,e,d,t,h,e,,,0.6126063098199666,0.8366593969985843,1.0286703840829432,1.1646160590462387,1.2765753101557493,0.0,0.0,edthe,pseudo,highbf
221,s190,221,pykka,py,yk,kk,ka,p,y,k,k,a,,,0.6565935229882598,0.8325529266148806,1.1045219278894365,1.288565649650991,1.4004310448653996,0.0,0.0,pykka,pseudo,lowbf
222,s190,222,belly,be,el,ll,ly,b,e,l,l,y,,,0.7486464050598443,0.8446704940870404,0.9566971841268241,1.1486844480969012,1.2446377240121365,0.0,0.0,belly,medwf,medbf
223,s190,223,theme,th,he,em,me,t,h,e,m,e,,,0.6086136708036065,0.7205930929630995,0.8325834348797798,0.968465518206358,1.0805781157687306,0.0,0.0,theme,medwf,highbf
224,s190,224,vanru,va,an,nr,ru,v,a,n,r,u,,,0.8365451330319047,0.9884985270909965,1.1485003153793514,1.3165078023448586,1.4603957729414105,0.0,0.0,vanru,pseudo,medbf
225,s190,225,there,th,he,er,re,t,h,e,r,e,,,0.6087312297895551,0.7047306760214269,0.8327144128270447,0.9126091268844903,1.0487211770378053,0.0,0.0,there,highwf,highbf
226,s190,226,haole,ha,ao,ol,le,h,a,o,l,e,,,0.7000535549595952,0.8120851689018309,0.9881652388721704,1.220198368653655,1.3082225415855646,0.0,0.0,haole,lowwf,medbf
227,s190,227,druze,dr,ru,uz,ze,d,r,u,z,e,,,0.6565751759335399,0.8486685431562364,1.0086389309726655,1.0886926110833883,1.2326440801844,0.0,0.0,druze,lowwf,lowbf
228,s190,228,therm,th,he,er,rm,t,h,e,r,m,,,0.6046102088876069,0.7246640617959201,0.8367418181151152,0.9167358297854662,1.020744637120515,0.0,0.0,therm,lowwf,highbf
229,s190,229,zibja,zi,ib,bj,ja,z,i,b,j,a,,,0.7366875386796892,0.9367648740299046,1.0806260108947754,1.2566090188920498,1.3606180758215487,0.0,0.0,zibja,pseudo,lowbf
230,s190,230,cooed,co,oo,oe,ed,c,o,o,e,d,,,0.6124760298989713,0.7085878578945994,0.9004598050378263,0.9884821488521993,1.2205233359709382,0.0,0.0,cooed,lowwf,medbf
231,s190,231,vodka,vo,od,dk,ka,v,o,d,k,a,,,0.6725950962863863,0.768654091283679,0.9526556450873613,1.1526547390967607,1.2645984990522265,0.0,0.0,vodka,medwf,lowbf
232,s190,232,champ,ch,ha,am,mp,c,h,a,m,p,,,0.5966041730716825,0.6924772062338889,0.8125701271928847,0.9644718384370208,1.172521430067718,0.0,0.0,champ,medwf,medbf
233,s190,233,faqir,fa,aq,qi,ir,f,a,q,i,r,,,0.616467313375324,0.7364926491864026,0.992350832093507,1.096446255221963,1.3285222193226218,0.0,0.0,faqir,lowwf,lowbf
234,s190,234,zibja,zi,ib,bj,ja,z,i,b,j,a,,,0.684413829818368,0.8685689480043948,1.0205566361546516,1.212420767173171,1.3245487208478153,0.0,0.0,zibja,pseudo,lowbf
235,s190,235,cheer,ch,he,ee,er,c,h,e,e,r,,,0.552523551043123,0.6805097991600633,0.7925492059439421,0.9365220651961863,1.1525152567774057,0.0,0.0,cheer,medwf,highbf
236,s190,236,kremp,kr,re,em,mp,k,r,e,m,p,,,0.6996990190818906,0.8438152042217553,0.9397723469883204,1.075700213201344,1.2996984333731234,0.0,0.0,kremp,pseudo,medbf
237,s190,237,think,th,hi,in,nk,t,h,i,n,k,,,0.6078514591790736,0.6878340267576277,0.8877583597786725,1.0478268708102405,1.2398493778891861,0.0,0.0,think,highwf,highbf
238,s190,238,vodka,vo,od,dk,ka,v,o,d,k,a,,,0.7641517147421837,0.9001318798400462,1.052254542708397,1.2283035926520824,1.3722510626539588,0.0,0.0,vodka,medwf,lowbf
239,s190,239,vanru,va,an,nr,ru,v,a,n,r,u,,,0.6404597680084407,0.8003969117999077,0.928460949100554,1.0804733620025218,1.224517575930804,0.0,0.0,vanru,pseudo,medbf
