,sID,Trial #,string,bi_1,bi_2,bi_3,bi_4,key_resp.keys.1,key_resp.keys.2,key_resp.keys.3,key_resp.keys.4,key_resp.keys.5,key_resp.keys.6,key_resp.rt.1,key_resp.rt.2,key_resp.rt.3,key_resp.rt.4,key_resp.rt.5,key_resp.rt.6,resp_string,WF Type,BF Type
0,20,0,druze,dr,ru,uz,ze,d,r,u,z,e,,1.2208512569777668,1.3728516311384737,1.6769520621746778,1.8129204702563584,2.0049176602624357,0.0,druze,lowwf,lowbf
1,20,1,tithe,ti,it,th,he,t,i,t,h,e,,0.9612997802905738,1.217166314367205,1.345258956309408,1.6892328141257167,1.8571952902711928,0.0,tithe,lowwf,highbf
2,20,2,lucky,lu,uc,ck,ky,l,u,c,k,y,,1.2052485877647996,1.4212156161665916,1.7811362179927528,1.9171265307813883,2.285235858988017,0.0,lucky,highwf,lowbf
3,20,3,cooed,co,oo,oe,ed,c,o,o,e,d,,1.0331642902456224,1.28107794187963,1.4010767759755254,1.5052290610037744,1.6731471130624413,0.0,cooed,lowwf,medbf
4,20,4,lucky,lu,uc,ck,ky,l,u,c,k,y,,1.5251647396944463,1.7810343806631863,2.2210175027139485,2.4610612569376826,2.669085531961173,0.0,lucky,highwf,lowbf
5,20,5,would,wo,ou,ul,ld,w,o,u,l,f,,1.112951731774956,1.2409793571569026,1.3049815529957414,1.5208470509387553,1.6489607691764832,0.0,woulf,highwf,medbf
6,20,6,think,th,hi,in,nk,t,h,i,n,k,,1.2132466132752597,1.2931586899794638,1.4371973942033947,1.6372229009866714,1.7971923439763486,0.0,think,highwf,highbf
7,20,7,cooed,co,oo,oe,ed,c,o,o,e,d,,0.9771470110863447,1.209257906768471,1.3372692167758942,1.4332089577801526,1.6332521317526698,0.0,cooed,lowwf,medbf
8,20,8,faqir,fa,aq,qi,ir,f,a,q,,,,1.3735068910755217,1.677346719428897,2.7013702411204576,0.0,0.0,0.0,faq,lowwf,lowbf
9,20,9,druze,dr,ru,uz,ze,d,r,u,z,e,w,1.1133892009966075,1.3133619162254035,1.5293198032304645,1.7053234349004924,1.8893056302331388,1.8973312508314848,druzew,lowwf,lowbf
10,20,10,zibja,zi,ib,bj,ja,z,i,b,j,a,,1.2449475838802755,1.3808989617973566,1.5888844728469849,1.9329850957728922,2.004978341050446,0.0,zibja,pseudo,lowbf
11,20,11,think,th,hi,in,nk,t,h,i,n,k,,1.0652608899399638,1.1291604209691286,1.3212813097052276,1.5212323879823089,1.6811653296463192,0.0,think,highwf,highbf
12,20,12,zibja,zi,ib,bj,ja,z,i,b,j,a,,1.1331141008995473,1.2051018588244915,1.501105584204197,1.933191908057779,1.9971893820911646,0.0,zibja,pseudo,lowbf
13,20,13,there,th,he,er,re,t,h,e,r,e,,0.8809019881300628,0.9608441619202495,1.1369308922439814,1.328873768914491,1.416800505015999,0.0,there,highwf,highbf
14,20,14,lucky,lu,uc,ck,ky,l,u,c,k,y,,0.973113392945379,1.2930363100022078,1.7091099410317838,1.8291124277748168,2.053145662881434,0.0,lucky,highwf,lowbf
15,20,15,vodka,vo,od,dk,ka,v,o,d,k,a,,1.2652236092835665,1.4412796669639647,1.8972276062704623,2.2333784862421453,2.329187504015863,0.0,vodka,medwf,lowbf
16,20,16,champ,ch,ha,am,mp,c,h,a,m,p,,1.077037916984409,1.229086082894355,1.3890464790165424,1.5331505849026144,1.8371229385957122,0.0,champ,medwf,medbf
17,20,17,belly,be,el,ll,ly,b,e,l,l,y,,0.8890327708795667,1.008960846811533,1.441085937898606,1.6009507812559605,1.8650677450932562,0.0,belly,medwf,medbf
18,20,18,cheer,ch,he,ee,er,c,h,e,e,r,,0.8289000899530947,0.9809158821590245,1.1489522634074092,1.3008782612159848,1.388952606357634,0.0,cheer,medwf,highbf
19,20,19,therm,th,he,er,rm,t,h,e,r,e,,0.8087945133447647,0.9448148743249476,1.0728098209947348,1.1448267372325063,1.3448218433186412,0.0,there,lowwf,highbf
20,20,20,vodka,vo,od,dk,ka,v,o,d,k,a,,1.1332136946730316,1.309201237745583,2.0611217180266976,2.1971762399189174,2.3091712836176157,0.0,vodka,medwf,lowbf
21,20,21,heond,he,eo,on,nd,h,e,o,n,,,1.3371540741063654,1.4491439182311296,1.697165884077549,1.9930853452533484,0.0,0.0,heon,pseudo,highbf
22,20,22,theme,th,he,em,me,t,h,e,m,e,,0.8290557377040386,0.9411865547299385,1.085158471018076,1.3011004948057234,1.4451840948313475,0.0,theme,medwf,highbf
23,20,23,edthe,ed,dt,th,he,e,d,t,h,e,,1.1851658709347248,1.3531538951210678,1.5691916919313371,1.6730896648950875,1.7770722131244838,0.0,edthe,pseudo,highbf
24,20,24,about,ab,bo,ou,ut,a,b,o,u,t,,0.933149001095444,1.0371743272989988,1.3491628281772137,1.4131069122813642,1.5890589291229844,0.0,about,highwf,medbf
25,20,25,champ,ch,ha,am,mp,c,h,a,m,o,,0.9770178711041808,1.097133839968592,1.2490963842719793,1.393034626264125,1.5690609170123935,0.0,chamo,medwf,medbf
26,20,26,lucky,lu,uc,ck,ky,l,u,c,k,y,,1.5491296788677573,1.7811294817365706,1.941170888952911,2.1011029789224267,2.357226031832397,0.0,lucky,highwf,lowbf
27,20,27,edthe,ed,dt,th,he,e,d,t,h,e,,1.2490230067633092,1.4730761358514428,1.7450394597835839,1.8809798448346555,1.9690368720330298,0.0,edthe,pseudo,highbf
28,20,28,buddy,bu,ud,dd,dy,b,e,d,d,y,,0.8848772970959544,1.004994407761842,1.9649179801344872,2.0849741641432047,2.2768570091575384,0.0,beddy,highwf,lowbf
29,20,29,vodka,vo,od,dk,ka,v,o,d,k,a,,1.040880074724555,1.2009012890048325,1.6088824938051403,1.760985029861331,1.8809045879170299,0.0,vodka,medwf,lowbf
30,20,30,think,th,hi,in,nk,t,h,i,n,k,,0.8529791026376188,0.9410170158371329,1.1329761450178921,1.2928967447951436,1.4530060486868024,0.0,think,highwf,highbf
31,20,31,belly,be,el,ll,ly,b,e,l,l,y,,0.8330584699288011,0.9609833117574453,1.3290721429511905,1.5130020240321755,1.7450952478684485,0.0,belly,medwf,medbf
32,20,32,lucky,lu,uc,ck,ky,l,u,c,k,y,,0.8530343030579388,1.125062317121774,1.6450049220584333,1.7730777119286358,2.012932031881064,0.0,lucky,highwf,lowbf
33,20,33,kremp,kr,re,em,mp,k,r,e,m,p,,1.3683173903264105,1.440271407365799,1.5921994904056191,1.8323074681684375,2.0243269549682736,0.0,kremp,pseudo,medbf
34,20,34,haole,ha,ao,ol,le,h,a,o,l,e,,1.0048924670554698,1.5330001069232821,1.6608820529654622,1.821014665067196,1.9329525027424097,0.0,haole,lowwf,medbf
35,20,35,druze,dr,ru,uz,ze,d,r,u,z,e,,1.3690622802823782,1.5050653498619795,1.7210326050408185,1.8729490749537945,2.0570625462569296,0.0,druze,lowwf,lowbf
36,20,36,puppy,pu,up,pp,py,p,u,p,p,y,,0.8290453529916704,1.2371322070248425,1.8930067480541766,2.045123974326998,2.3811014271341264,0.0,puppy,medwf,lowbf
37,20,37,heond,he,eo,on,nd,h,e,o,n,d,,1.1209308598190546,1.2489409176632762,1.4728511557914317,1.7288742866367102,1.8889065547846258,0.0,heond,pseudo,highbf
38,20,38,therm,th,he,er,rm,t,h,e,m,r,,0.8448974592611194,0.9409252922050655,1.084854390937835,1.3087966651655734,1.9889262979850173,0.0,themr,lowwf,highbf
39,20,39,champ,ch,ha,am,mp,c,h,a,m,p,,0.9128105151467025,1.0568105829879642,1.232841453049332,1.360741482116282,1.5528175169602036,0.0,champ,medwf,medbf
40,20,40,theme,th,he,em,me,t,h,e,m,e,,0.8289972739294171,0.9168604989536107,1.0768627459183335,1.2209460120648146,1.3569415342062712,0.0,theme,medwf,highbf
41,20,41,puppy,pu,up,pp,py,p,u,p,p,y,,1.073139508254826,1.3211726192384958,1.5452122171409428,1.6811216659843922,1.8650857452303171,0.0,puppy,medwf,lowbf
42,20,42,think,th,hi,in,nk,t,h,i,n,k,,0.9088550349697471,0.9969309689477086,1.1489167879335582,1.3089142329990864,1.4768533972091973,0.0,think,highwf,highbf
43,20,43,heond,he,eo,on,nd,h,e,o,n,d,,0.8727771118283272,0.9687006156891584,1.280749849975109,1.5847825510427356,1.7127543990500271,0.0,heond,pseudo,highbf
44,20,44,belly,be,el,ll,ly,b,e,l,l,y,,0.820800730958581,0.9647346762940288,1.1406896351836622,1.2926972769200802,1.5166868562810123,0.0,belly,medwf,medbf
45,20,45,druze,dr,ru,uz,ze,d,r,u,z,e,,1.2567900139838457,1.368898421060294,1.6087918812409043,1.7529020812362432,1.9449081989005208,0.0,druze,lowwf,lowbf
46,20,46,heond,he,eo,on,nd,h,e,o,n,d,,0.9088592547923326,1.0289397449232638,1.2768498118966818,1.5328989876434207,1.6768308659084141,0.0,heond,pseudo,highbf
47,20,47,buddy,bu,ud,dd,dy,b,u,d,d,y,,0.8088066624477506,0.976878697052598,1.5848405612632632,1.7209039563313127,1.8088308172300458,0.0,buddy,highwf,lowbf
48,20,48,there,th,he,er,re,t,h,e,r,e,,0.7249347609467804,0.8289554221555591,0.9329969589598477,0.9970475328154862,1.1730571719817817,0.0,there,highwf,highbf
49,20,49,kremp,kr,re,em,mp,k,r,e,p,m,,1.672895897179842,1.7688906360417604,1.8970074229873717,2.112936826888472,2.5849850801751018,0.0,krepm,pseudo,medbf
50,20,50,haole,ha,ao,ol,le,h,a,l,o,e,,1.0767410472035408,1.604879428166896,1.764795830938965,1.9647538620047271,2.1728613898158073,0.0,haloe,lowwf,medbf
51,20,51,faqir,fa,aq,qi,ir,f,a,q,i,r,,1.280793343205005,1.3848098330199718,1.928780488204211,2.0488731833174825,2.176763982977718,0.0,faqir,lowwf,lowbf
52,20,52,pykka,py,yk,kk,ka,p,y,k,k,a,,1.5248499661684036,1.8928574840538204,2.7489590952172875,2.8768383120186627,2.9008485381491482,0.0,pykka,pseudo,lowbf
53,20,53,about,ab,bo,ou,ut,a,b,o,u,t,,0.8086764863692224,0.9126733150333166,1.168655657209456,1.2807382349856198,1.384621674194932,0.0,about,highwf,medbf
54,20,54,vodka,vo,od,dk,ka,v,o,d,k,a,,1.2686197739094496,1.4286260302178562,1.6925147930160165,1.8846134720370173,2.0125515279360116,0.0,vodka,medwf,lowbf
55,20,55,pykka,py,yk,kk,ka,p,y,k,k,a,,1.2083174362778664,1.784296383149922,2.1843109149485826,2.3043696391396224,2.400309926364571,0.0,pykka,pseudo,lowbf
56,20,56,kremp,kr,re,em,mp,k,r,e,m,p,,1.4047347344458103,1.5167249999940395,1.604720629286021,1.8766948343254626,2.0448066401295364,0.0,kremp,pseudo,medbf
57,20,57,champ,ch,ha,am,mp,c,h,a,m,o,p,0.8807596918195486,1.040677618701011,1.2006471785716712,1.3126951758749783,1.5047682509757578,1.5126982908695936,chamop,medwf,medbf
58,20,58,cooed,co,oo,oe,ed,c,o,o,e,d,,0.8445968576706946,1.0285464166663587,1.140456557739526,1.2525528189726174,1.4284962248057127,0.0,cooed,lowwf,medbf
59,20,59,belly,be,el,ll,ly,b,e,l,l,y,,0.832412036601454,1.056339327711612,1.3283479949459434,1.488298219628632,1.7203477136790752,0.0,belly,medwf,medbf
60,20,60,druze,dr,ru,uz,ze,d,r,u,z,e,,1.3087007072754204,1.4607264529913664,1.7246707500889897,1.8687798851169646,2.0207027890719473,0.0,druze,lowwf,lowbf
61,20,61,vanru,va,an,nr,ru,v,a,n,r,u,,1.3049117121845484,1.5128469918854535,1.6569242049008608,2.08886149013415,2.2409185199066997,0.0,vanru,pseudo,medbf
62,20,62,cooed,co,oo,oe,ed,c,o,o,e,d,,0.8608806626871228,1.0608806698583066,1.1489202799275517,1.2689174707047641,1.4369278028607368,0.0,cooed,lowwf,medbf
63,20,63,haole,ha,ao,ol,le,h,a,l,i,e,,1.000964738894254,1.1130143022164702,1.3450501449406147,1.521068346221,2.0170696838758886,0.0,halie,lowwf,medbf
64,20,64,buddy,bu,ud,dd,dy,b,u,f,d,y,,1.0525326300412416,1.2205004380084574,1.5085433442145586,2.492400020826608,2.6365024391561747,0.0,bufdy,highwf,lowbf
65,20,65,vanru,va,an,nr,ru,v,a,n,r,u,,0.9279925329610705,1.1199279730208218,1.2719718869775534,1.8639383548870683,1.967857991810888,0.0,vanru,pseudo,medbf
66,20,66,haole,ha,ao,ol,le,h,a,l,o,e,,0.908031287137419,1.0439863502979279,1.2999801179394126,1.596000534016639,1.7160544521175325,0.0,haloe,lowwf,medbf
67,20,67,cooed,co,oo,oe,ed,c,o,o,e,d,,1.2079903790727258,1.439926058985293,1.5678681964054704,1.7279781363904476,1.9039532169699669,0.0,cooed,lowwf,medbf
68,20,68,pykka,py,yk,kk,ka,p,y,k,k,a,,1.3400199711322784,1.6759327449835837,2.0360510400496423,2.1560955680906773,2.236052157357335,0.0,pykka,pseudo,lowbf
69,20,69,cheer,ch,he,ee,er,c,h,e,e,r,,0.9759294558316469,1.1520351599901915,1.2959572109393775,1.4640406859107316,1.5839254749007523,0.0,cheer,medwf,highbf
70,20,70,puppy,pu,up,pp,py,p,u,p,p,y,,1.524205035995692,1.7801626431755722,1.988077883142978,2.1161598190665245,2.380161668173969,0.0,puppy,medwf,lowbf
71,20,71,would,wo,ou,ul,ld,w,o,u,l,d,,1.280093148816377,1.4321674639359117,1.5440630121156573,1.8240930689498782,1.9680694569833577,0.0,would,highwf,medbf
72,20,72,about,ab,bo,ou,ut,a,b,o,u,t,,0.9722655480727553,1.052199759054929,1.3242313242517412,1.3961236053146422,1.5402195090427995,0.0,about,highwf,medbf
73,20,73,zibja,zi,ib,bj,ja,z,i,b,j,a,,1.2480720402672887,1.4241322074085474,1.672186424024403,1.928189960308373,2.2241349150426686,0.0,zibja,pseudo,lowbf
74,20,74,edthe,ed,dt,th,he,e,d,t,h,e,,1.1640591910108924,1.3479538252577186,1.539944879245013,1.64393668808043,1.7399748801253736,0.0,edthe,pseudo,highbf
75,20,75,tithe,ti,it,th,he,t,i,t,h,e,,0.9120118557475507,1.080008170567453,1.216023395769298,1.6400229837745428,1.736007696017623,0.0,tithe,lowwf,highbf
76,20,76,kremp,kr,re,em,mp,k,r,e,m,p,o,1.48403865005821,1.572106528095901,1.6521232170052826,2.028132362756878,2.156078709755093,2.164161473978311,krempo,pseudo,medbf
77,20,77,faqir,fa,aq,qi,ir,f,a,q,i,r,,1.1439975770190358,1.2559994799084961,1.7680008728057146,1.8960316558368504,2.0561215318739414,0.0,faqir,lowwf,lowbf
78,20,78,zibja,zi,ib,bj,ja,z,i,b,j,a,,1.1239060019142926,1.3238426898606122,1.6198877366259694,1.8837718670256436,1.995843529701233,0.0,zibja,pseudo,lowbf
79,20,79,kremp,kr,re,em,mp,k,r,e,m,p,o,1.192074301186949,1.2959499172866344,1.975891447160393,2.1040079733356833,2.247905914206058,2.255915420129895,krempo,pseudo,medbf
80,20,80,there,th,he,er,re,t,h,e,r,e,,0.8518424308858812,0.9397869659587741,1.0678064422681928,1.139866323210299,1.3158943811431527,0.0,there,highwf,highbf
81,20,81,vodka,vo,od,dk,ka,v,o,d,k,a,,1.0804315651766956,1.2324492479674518,1.4883739259094,1.7443655761890113,1.8483943920582533,0.0,vodka,medwf,lowbf
82,20,82,vanru,va,an,nr,ru,v,a,n,r,u,,1.2040815348736942,1.5079600946046412,1.6760536106303334,1.8520711679011583,2.0200598486699164,0.0,vanru,pseudo,medbf
83,20,83,faqir,fa,aq,qi,ir,f,a,q,i,r,,1.2800178970210254,1.3839171230793,2.1280187889933586,2.247999947052449,2.3519964893348515,0.0,faqir,lowwf,lowbf
84,20,84,would,wo,ou,ul,ld,w,o,u,l,d,,1.0281372009776533,1.1401304509490728,1.2360772988758981,1.4600070528686047,1.5960787800140679,0.0,would,highwf,medbf
85,20,85,theme,th,he,em,me,t,h,e,m,e,,0.8799429512582719,1.008015152066946,1.151971795130521,1.3119382029399276,1.431898957118392,0.0,theme,medwf,highbf
86,20,86,belly,be,el,ll,ly,b,e,l,l,y,,0.8519376069307327,0.9639248442836106,1.1478911000303924,1.3319133492186666,1.555848415941,0.0,belly,medwf,medbf
87,20,87,tithe,ti,it,th,he,t,h,i,t,h,e,0.8559068259783089,0.9359334609471262,1.7119345031678677,1.8159378138370812,2.0158959007821977,2.20795788615942,thithe,lowwf,highbf
88,20,88,edthe,ed,dt,th,he,e,d,t,h,e,,1.1158784837462008,1.2678008298389614,1.4838206237182021,1.5799519219435751,1.7158789271488786,0.0,edthe,pseudo,highbf
89,20,89,pykka,py,yk,kk,ka,p,y,k,k,a,,1.023431221023202,1.4473776891827583,1.727503044065088,1.863474955316633,1.975358780939132,0.0,pykka,pseudo,lowbf
90,20,90,there,th,he,er,re,t,h,e,r,,,0.7719641108997166,0.8759195860475302,0.9879884868860245,1.0599075020290911,0.0,0.0,ther,highwf,highbf
91,20,91,would,wo,ou,ul,ld,w,o,u,l,d,,0.8719911272637546,1.1039829468354583,1.2159430189058185,1.4799195542000234,1.6319437138736248,0.0,would,highwf,medbf
92,20,92,tithe,ti,it,th,he,t,i,t,h,e,,0.9639370506629348,1.083832315634936,1.1878963690251112,1.3958311798051,1.5238562729209661,0.0,tithe,lowwf,highbf
93,20,93,about,ab,bo,ou,ut,a,b,o,u,t,,0.8157288590446115,0.9516708352603018,1.2317895982414484,1.399784834124148,1.5997959543019533,0.0,about,highwf,medbf
94,20,94,vanru,va,an,nr,ru,v,a,n,r,u,,0.9719465179368854,1.1719751888886094,1.3158927550539374,1.6678229440003633,1.8759738709777594,0.0,vanru,pseudo,medbf
95,20,95,haole,ha,ao,ol,le,j,a,o,l,e,,1.0001369081437588,1.1441709608770907,2.064203971065581,2.2162367119453847,2.488157296087593,0.0,jaole,lowwf,medbf
96,20,96,cheer,ch,he,ee,er,c,h,e,e,r,,1.0757406502962112,1.2037590150721371,1.3876467309892178,1.5476844510994852,1.6757870013825595,0.0,cheer,medwf,highbf
97,20,97,therm,th,he,er,rm,t,h,e,r,m,,0.9520349409431219,1.0880292658694088,1.215997759718448,1.2799949548207223,1.4640489448793232,0.0,therm,lowwf,highbf
98,20,98,tithe,ti,it,th,he,t,i,t,h,e,,1.0359289161860943,1.0920404568314552,1.204004812054336,1.5639452170580626,1.6438795952126384,0.0,tithe,lowwf,highbf
99,20,99,faqir,fa,aq,qi,ir,f,a,q,w,i,r,1.119898334145546,1.207947317045182,1.7438159813173115,1.7518152729608119,1.9678298849612474,2.0638973750174046,faqwir,lowwf,lowbf
100,20,100,think,th,hi,in,nk,t,h,i,n,k,,0.78776979399845,0.8917082431726158,1.0357634802348912,1.2198331551626325,1.3638058062642813,0.0,think,highwf,highbf
101,20,101,there,th,he,er,re,t,h,e,r,e,,0.6638799766078591,0.7837538388557732,0.927923243958503,1.0078994226641953,1.191779371816665,0.0,there,highwf,highbf
102,20,102,theme,th,he,em,me,t,h,e,m,e,,0.7879602815955877,0.8919531339779496,0.987907811999321,1.1798954219557345,1.299937801901251,0.0,theme,medwf,highbf
103,20,103,puppy,pu,up,pp,py,p,u,p,p,y,,1.2077032472006977,1.399694923311472,1.583560649305582,1.7516405931673944,1.9595680343918502,0.0,puppy,medwf,lowbf
104,20,104,champ,ch,ha,am,mp,c,h,a,m,p,,0.8279718952253461,1.027965518180281,1.2598003959283233,1.4758856329135597,2.019852695055306,0.0,champ,medwf,medbf
105,20,105,heond,he,eo,on,nd,h,e,o,n,d,,1.1837238436564803,1.343734207097441,1.7837584987282753,2.455789010040462,2.6318340599536896,0.0,heond,pseudo,highbf
106,20,106,puppy,pu,up,pp,py,p,u,p,p,y,,0.955687440931797,2.0435907407663763,2.2756646857596934,2.419676304794848,2.587694189976901,0.0,puppy,medwf,lowbf
107,20,107,cheer,ch,he,ee,er,c,h,e,e,r,,0.9196119396947324,1.0795783619396389,1.3276133076287806,1.4795108237303793,1.575488121714443,0.0,cheer,medwf,highbf
108,20,108,would,wo,ou,ul,ld,w,o,u,l,d,,0.8516399362124503,1.0196653120219707,1.1475574048236012,1.4036776279099286,1.5556931509636343,0.0,would,highwf,medbf
109,20,109,therm,th,he,er,rm,t,h,e,r,m,,0.7758720857091248,0.8718700907193124,1.039861376862973,1.1119360527954996,1.4959220187738538,0.0,therm,lowwf,highbf
110,20,110,cheer,ch,he,ee,er,c,h,e,e,r,,0.8037138250656426,0.9556607557460666,1.147636282723397,1.3237175210379064,1.379763372708112,0.0,cheer,medwf,highbf
111,20,111,buddy,bu,ud,dd,dy,b,u,f,f,y,,0.8077522697858512,1.7437320561148226,1.887778460048139,2.0238661128096282,2.407874085009098,0.0,buffy,highwf,lowbf
112,20,112,zibja,zi,ib,bj,ja,z,i,b,j,a,,1.0278997886925936,1.1638756548054516,1.371827291790396,1.6118836076930165,1.6757645569741726,0.0,zibja,pseudo,lowbf
113,20,113,pykka,py,yk,kk,ka,p,y,k,k,a,,1.439299140125513,2.879282610025257,3.2233272050507367,3.359228097833693,3.4472273751161993,0.0,pykka,pseudo,lowbf
114,20,114,vanru,va,an,nr,ru,c,a,n,r,y,,0.8517513461410999,1.091749801300466,1.7397497282363474,2.0436164583079517,2.1716176508925855,0.0,canry,pseudo,medbf
115,20,115,therm,th,he,er,rm,t,h,e,r,m,,0.8555301567539573,0.9754784959368408,1.0875241360627115,1.1515726507641375,1.327644790057093,0.0,therm,lowwf,highbf
116,20,116,about,ab,bo,ou,ut,a,b,o,u,t,,0.9796256022527814,1.1156625761650503,1.4197110491804779,1.5236658090725541,1.651625505182892,0.0,about,highwf,medbf
117,20,117,edthe,ed,dt,th,he,e,d,t,h,e,,1.6638304889202118,1.8477422590367496,2.103790197055787,2.215829989872873,2.3358127349056304,0.0,edthe,pseudo,highbf
118,20,118,theme,th,he,em,me,t,h,e,r,e,,0.7796087581664324,0.9076716820709407,1.0276955170556903,1.0998094039969146,1.307597764302045,0.0,there,medwf,highbf
119,20,119,buddy,bu,ud,dd,dy,b,u,d,d,y,,1.111753301229328,1.2316457559354603,1.6157160829752684,1.7596469903364778,1.911779650952667,0.0,buddy,highwf,lowbf
120,20,120,edthe,ed,dt,th,he,e,d,t,h,e,,1.2326654270291328,1.3767410251311958,1.5446815229952335,1.632665382232517,1.7366533670574427,0.0,edthe,pseudo,highbf
121,20,121,think,th,hi,in,nk,t,h,i,n,k,,0.762195167131722,0.8743243301287293,1.0902602490969002,1.250199242029339,1.3943226938135922,0.0,think,highwf,highbf
122,20,122,pykka,py,yk,kk,ka,p,y,k,k,a,,0.6062277033925056,1.286196538247168,1.5661503872834146,1.694202319253236,1.7742371540516615,0.0,pykka,pseudo,lowbf
123,20,123,champ,ch,ha,am,mp,c,h,a,m,p,o,0.8102334709838033,0.962288545910269,1.106314554810524,1.282212648075074,1.5542691280134022,1.5622876058332622,champo,medwf,medbf
124,20,124,edthe,ed,dt,th,he,e,d,t,h,e,,1.0060265590436757,1.1900795861147344,1.3979982729069889,1.5339638269506395,1.6300750877708197,0.0,edthe,pseudo,highbf
125,20,125,vodka,vo,od,dk,ka,v,o,d,k,a,,1.202227735426277,1.5702506233938038,2.202248985413462,2.354276122059673,2.458165486343205,0.0,vodka,medwf,lowbf
126,20,126,buddy,bu,ud,dd,dy,b,u,d,d,y,,1.038285817950964,1.1422259048558772,1.358165964949876,1.5101813720539212,1.6221916917711496,0.0,buddy,highwf,lowbf
127,20,127,tithe,ti,it,th,he,t,i,t,h,e,,1.1540837474167347,1.282154311425984,1.3781860023736954,1.5781796192750335,1.6901995460502803,0.0,tithe,lowwf,highbf
128,20,128,druze,dr,ru,uz,ze,d,r,u,z,e,,1.2383498288691044,1.85419629374519,2.3583266800269485,2.454297186806798,2.6223443681374192,0.0,druze,lowwf,lowbf
129,20,129,theme,th,he,em,me,t,h,e,m,e,,0.9303116016089916,1.0341929020360112,1.1543167079798877,1.3303135856986046,1.4582715537399054,0.0,theme,medwf,highbf
130,20,130,edthe,ed,dt,th,he,e,d,t,h,e,,0.8541805171407759,1.0462529170326889,1.25423216028139,1.3981727622449398,1.4862755900248885,0.0,edthe,pseudo,highbf
131,20,131,puppy,pu,up,pp,py,p,i,p,p,y,,1.186233903747052,1.6502406098879874,1.9461623281240463,2.130234722048044,2.642153878696263,0.0,pippy,medwf,lowbf
132,20,132,about,ab,bo,ou,ut,a,b,o,u,t,,0.8942922339774668,0.990256099961698,1.3022883352823555,1.3502511871047318,1.4862961629405618,0.0,about,highwf,medbf
133,20,133,cooed,co,oo,oe,ed,c,o,o,e,d,,0.8657843028195202,1.0977357062511146,1.2178068929351866,1.2818352058529854,1.4738307599909604,0.0,cooed,lowwf,medbf
134,20,134,zibja,zi,ib,bj,ja,z,i,b,j,a,,0.9260093430057168,1.110036974772811,1.3260144609957933,1.5180076030083,1.5901158335618675,0.0,zibja,pseudo,lowbf
135,20,135,tithe,ti,it,th,he,t,i,t,h,e,,0.8900169930420816,0.9780999189242721,1.0980830038897693,1.282116177957505,1.4420277210883796,0.0,tithe,lowwf,highbf
136,20,136,pykka,py,yk,kk,ka,p,y,k,k,a,,1.0301667568273842,1.542122040875256,2.270199242979288,2.390155519824475,2.4862066651694477,0.0,pykka,pseudo,lowbf
137,20,137,cheer,ch,he,ee,er,c,h,e,e,r,,0.7701802728697658,0.9301297566853464,1.0901299356482923,1.242055197712034,1.3221818166784942,0.0,cheer,medwf,highbf
138,20,138,faqir,fa,aq,qi,ir,f,a,q,i,r,,1.5899592088535428,1.7099821367301047,2.2700332910753787,2.5179667649790645,2.605970613658428,0.0,faqir,lowwf,lowbf
139,20,139,lucky,lu,uc,ck,ky,l,u,c,k,y,,1.330275041051209,1.5223076101392508,1.7142017451114953,1.8982253721915185,2.32222142489627,0.0,lucky,highwf,lowbf
140,20,140,think,th,hi,in,nk,t,h,i,n,k,,0.8700187066569924,0.9660077057778835,1.109920762013644,1.2860687356442213,1.4380917358212173,0.0,think,highwf,highbf
141,20,141,puppy,pu,up,pp,py,p,u,p,p,y,,1.274072177708149,1.5780438799411058,1.866057704668492,2.017943734768778,2.2259543277323246,0.0,puppy,medwf,lowbf
142,20,142,zibja,zi,ib,bj,ja,z,i,b,j,a,,0.9500040910206735,1.0940602151677012,1.3979770061559975,1.6459612851031125,1.7259828629903495,0.0,zibja,pseudo,lowbf
143,20,143,faqir,fa,aq,qi,ir,f,a,q,i,r,,0.9381053945980966,1.0742068057879806,1.826083782594651,2.026098023634404,2.1622202680446208,0.0,faqir,lowwf,lowbf
144,20,144,vanru,va,an,nr,ru,v,a,n,r,u,,1.0382927656173706,1.2382958768866956,1.3421991257928312,1.7422951869666576,1.894253523554653,0.0,vanru,pseudo,medbf
145,20,145,edthe,ed,dt,th,he,e,d,t,h,e,,0.8340695309452713,1.0661015240475535,1.3220331487245858,1.4580338168889284,1.5460597868077457,0.0,edthe,pseudo,highbf
146,20,146,faqir,fa,aq,qi,ir,f,a,q,i,r,,0.7502516391687095,0.8862951202318072,1.6461678221821785,1.9182070009410381,2.1102169509977102,0.0,faqir,lowwf,lowbf
147,20,147,about,ab,bo,ou,ut,a,b,o,u,t,,0.7699872809462249,0.8819234408438206,1.1938960966654122,1.4098370028659701,1.5779306939803064,0.0,about,highwf,medbf
148,20,148,heond,he,eo,on,nd,h,e,o,n,d,,1.2780526150017977,1.82207785313949,1.933959478046745,2.1259486800991,2.2539690798148513,0.0,heond,pseudo,highbf
149,20,149,there,th,he,er,re,t,h,e,r,e,,0.7701964136213064,0.9061077898368239,1.0421174289658666,1.1222208039835095,1.3062152438797057,0.0,there,highwf,highbf
150,20,150,kremp,kr,re,em,mp,k,r,e,m,p,,1.4939061650075018,1.5659817112609744,1.645917815156281,1.8540064333938062,2.278014665003866,0.0,kremp,pseudo,medbf
151,20,151,there,th,he,er,re,t,h,e,r,e,,0.7859715833328664,0.8979405541904271,1.0258835391141474,1.0898931440897286,1.2820001072250307,0.0,there,highwf,highbf
152,20,152,kremp,kr,re,em,mp,l,r,e,m,p,,1.3979287878610194,1.4780162200331688,1.5420295409858227,2.2220331681892276,2.405922330915928,0.0,lremp,pseudo,medbf
153,20,153,edthe,ed,dt,th,he,e,d,t,h,e,,1.1859517628327012,1.3619801211170852,1.5938358181156218,1.72191476309672,1.8019562107510865,0.0,edthe,pseudo,highbf
154,20,154,think,th,hi,in,nk,t,h,i,n,k,,0.7500763279385865,0.8459648718126118,1.078016540966928,1.2860458050854504,1.4540417287498713,0.0,think,highwf,highbf
155,20,155,theme,th,he,em,me,t,h,e,m,e,,0.7696425500325859,0.9055324401706457,1.0816363468766212,1.2335649668239057,1.3856496419757605,0.0,theme,medwf,highbf
156,20,156,therm,th,he,er,rm,t,h,e,r,m,,0.742061136290431,0.8380497079342604,0.9659790489822626,1.046000910922885,1.1979803922586143,0.0,therm,lowwf,highbf
157,20,157,lucky,lu,uc,ck,ky,l,u,c,k,y,,0.9300351249985397,1.537987848278135,1.6339319800026715,1.7780235093086958,2.0740412999875844,0.0,lucky,highwf,lowbf
158,20,158,druze,dr,ru,uz,ze,d,r,u,z,e,,1.8860838692635298,2.070091442205012,2.3179618013091385,2.4220355059951544,2.58998906519264,0.0,druze,lowwf,lowbf
159,20,159,zibja,zi,ib,bj,ja,z,i,b,j,a,,1.0021918336860836,1.1941598178818822,1.3941032509319484,1.610102520789951,1.706222622655332,0.0,zibja,pseudo,lowbf
160,20,160,theme,th,he,em,me,t,h,e,m,e,,0.6699922559782863,0.7979340208694339,0.9819922279566526,1.1178770679980516,1.3499850020743906,0.0,theme,medwf,highbf
161,20,161,faqir,fa,aq,qi,ir,f,a,q,i,e,,0.8656915579922497,0.9777205972932279,1.57776253297925,2.5936110080219805,2.6736979060806334,0.0,faqie,lowwf,lowbf
162,20,162,haole,ha,ao,ol,le,h,a,o,l,e,,1.0137927480973303,1.1417821408249438,1.7017988888546824,1.8378066197037697,1.9336853791028261,0.0,haole,lowwf,medbf
163,20,163,faqir,fa,aq,qi,ir,f,a,q,i,r,,0.7378870439715683,0.8498775609768927,1.481875907164067,1.6658710641786456,2.081838209182024,0.0,faqir,lowwf,lowbf
164,20,164,cheer,ch,he,ee,er,c,h,e,e,r,,1.373911686707288,1.5021302970126271,1.6780126886442304,1.8459362676367164,1.8459362676367164,0.0,cheer,medwf,highbf
165,20,165,there,th,he,er,re,t,h,e,r,e,,0.6499309879727662,0.7699523041956127,0.8738429988734424,0.9378946488723159,1.1058647129684687,0.0,there,highwf,highbf
166,20,166,belly,be,el,ll,ly,b,e,l,l,y,,0.9977602302096784,1.1097219469957054,1.3097692299634218,1.4777996349148452,1.7337051699869335,0.0,belly,medwf,medbf
167,20,167,puppy,pu,up,pp,py,p,u,p,p,y,,1.4178905510343611,1.7219500201754272,1.9938809871673584,2.1780237113125622,2.3619601242244244,0.0,puppy,medwf,lowbf
168,20,168,there,th,he,er,re,t,h,e,r,e,,0.7015411327593029,0.8214829489588737,0.9495781371369958,1.013584006112069,1.181574007961899,0.0,there,highwf,highbf
169,20,169,tithe,ti,it,th,he,t,i,t,h,e,,0.8738774210214615,1.3059285953640938,1.633790863212198,2.145834144204855,2.4578080670908093,0.0,tithe,lowwf,highbf
170,20,170,about,ab,bo,ou,ut,a,b,o,u,t,,0.8301480179652572,0.9180266088806093,1.2861601430922747,1.4621595391072333,1.5740404981188476,0.0,about,highwf,medbf
171,20,171,tithe,ti,it,th,he,t,i,t,h,e,,0.8900427999906242,1.0339452703483403,1.1700530662201345,1.5859971810132265,1.6820392603985965,0.0,tithe,lowwf,highbf
172,20,172,cheer,ch,he,ee,er,c,h,e,r,,,0.9899716177023947,1.1500138528645039,1.3819757089950144,1.5660099037922919,0.0,0.0,cher,medwf,highbf
173,20,173,champ,ch,ha,am,mp,c,h,a,m,o,,0.7936178389936686,0.9377030786126852,1.1057520159520209,1.2817235169932246,1.4496698789298534,0.0,chamo,medwf,medbf
174,20,174,belly,be,el,ll,ly,b,e,l,l,y,,0.9098258311860263,1.0779070891439915,1.2299209418706596,1.3978796480223536,1.6778937270864844,0.0,belly,medwf,medbf
175,20,175,champ,ch,ha,am,mp,c,h,a,m,o,,0.737873655743897,0.8259256319142878,1.0498894988559186,1.1938018850050867,1.4018377466127276,0.0,chamo,medwf,medbf
176,20,176,about,ab,bo,ou,ut,a,b,o,u,t,,0.9337401408702135,1.0617813719436526,1.3177434341050684,1.4138473309576511,1.4937474369071424,0.0,about,highwf,medbf
177,20,177,vanru,va,an,nr,ru,c,a,n,r,y,,1.0498521183617413,1.8337222202681005,2.033725162036717,2.505868451204151,2.6818111520260572,0.0,canry,pseudo,medbf
178,20,178,cheer,ch,he,ee,er,c,h,e,e,r,,0.7418570099398494,0.9096617386676371,1.0537671796046197,1.2457134639844298,1.3417842276394367,0.0,cheer,medwf,highbf
179,20,179,puppy,pu,up,pp,py,u,p,p,y,,,1.6496929749846458,1.9537091189995408,2.0896011069417,2.353628713171929,0.0,0.0,uppy,medwf,lowbf
180,20,180,lucky,lu,uc,ck,ky,l,u,c,k,y,,0.7497359360568225,1.6137077929452062,1.717654081992805,1.8936372390016913,2.3817213652655482,0.0,lucky,highwf,lowbf
181,20,181,haole,ha,ao,ol,le,h,a,o,l,e,,1.08977160602808,1.2258647442795336,1.4498147373087704,1.6738665052689612,1.7857682472094893,0.0,haole,lowwf,medbf
182,20,182,kremp,kr,re,em,mp,k,r,e,m,p,,1.7898996458388865,1.8698462462052703,1.9578919862397015,2.21385693596676,2.4298106259666383,0.0,kremp,pseudo,medbf
183,20,183,there,th,he,er,re,t,h,e,r,e,,0.7218836201354861,0.833715929184109,0.9539178102277219,1.025913787074387,1.2018699059262872,0.0,there,highwf,highbf
184,20,184,therm,th,he,er,rm,t,h,e,r,m,,0.6698187883011997,0.7738672592677176,0.8937447760254145,0.9818284683860838,1.0937420022673905,0.0,therm,lowwf,highbf
185,20,185,vanru,va,an,nr,ru,v,a,n,r,u,,1.2100211041979492,1.4100084933452308,1.5701208179816604,1.9221277330070734,2.042018929030746,0.0,vanru,pseudo,medbf
186,20,186,vodka,vo,od,dk,ka,v,o,d,k,a,,1.9577247188426554,2.125718372873962,2.4778546229936182,2.597745690960437,2.717703513801098,0.0,vodka,medwf,lowbf
187,20,187,cooed,co,oo,oe,ed,c,o,o,e,d,,0.9298079386353493,1.113809724804014,1.2497305236756802,1.3377988915890455,1.5378345400094986,0.0,cooed,lowwf,medbf
188,20,188,vanru,va,an,nr,ru,v,a,n,r,u,,1.0456285909749568,1.2296113236807287,1.4137038616463542,1.6136774406768382,1.7255912995897233,0.0,vanru,pseudo,medbf
189,20,189,puppy,pu,up,pp,py,p,u,p,p,y,,1.2177025121636689,1.7137585319578648,1.9858203381299973,2.161811274010688,2.3697734251618385,0.0,puppy,medwf,lowbf
190,20,190,vanru,va,an,nr,ru,v,a,n,r,u,,0.8938091858290136,1.0937762400135398,1.2298517129383981,1.3738475837744772,1.501777749042958,0.0,vanru,pseudo,medbf
191,20,191,druze,dr,ru,uz,ze,d,r,u,z,e,,1.3376207100227475,1.48162551689893,1.7297191671095788,1.9537067459896207,2.297641301061958,0.0,druze,lowwf,lowbf
192,20,192,lucky,lu,uc,ck,ky,l,u,c,k,y,,1.1255604098550975,1.3495608097873628,1.501633936073631,1.797548331785947,2.1256164349615574,0.0,lucky,highwf,lowbf
193,20,193,buddy,bu,ud,dd,dy,b,u,f,d,y,,0.9621528261341155,1.074025000911206,1.386119888164103,2.090060777030885,2.2341221813112497,0.0,bufdy,highwf,lowbf
194,20,194,zibja,zi,ib,bj,ja,z,i,b,j,a,,1.901486056856811,2.045516376849264,2.2934282538481057,2.5174402678385377,2.5974941812455654,0.0,zibja,pseudo,lowbf
195,20,195,vodka,vo,od,dk,ka,v,o,d,k,a,,1.2496401071548462,1.465614196844399,1.7455343771725893,1.9216081779450178,2.0255987062118948,0.0,vodka,medwf,lowbf
196,20,196,druze,dr,ru,uz,ze,d,r,u,e,,,1.3577863699756563,1.461801864206791,1.741827451158315,2.2297631432302296,0.0,0.0,drue,lowwf,lowbf
197,20,197,think,th,hi,in,nk,t,h,i,n,k,,0.8177835340611637,0.9218960432335734,1.0738573148846626,1.2337739332579076,1.401789028197527,0.0,think,highwf,highbf
198,20,198,champ,ch,ha,am,mp,c,h,a,m,o,,0.8618513881228864,1.0138664869591594,1.1578656379133463,1.3338275272399187,1.4778424161486328,0.0,chamo,medwf,medbf
199,20,199,cooed,co,oo,oe,ed,c,o,o,e,d,,0.8417955478653312,0.9936584550887346,1.1297446549870074,1.2417821758426726,1.4256688430905342,0.0,cooed,lowwf,medbf
200,20,200,belly,be,el,ll,ly,b,e,l,l,y,,0.8616429208777845,0.9815770420245826,1.1656196741387248,1.333524668123573,1.5334875788539648,0.0,belly,medwf,medbf
201,20,201,pykka,py,yk,kk,ka,p,y,k,k,a,,1.0658044177107513,1.3539797300472856,1.833839442115277,1.9618377778679132,2.0658169998787344,0.0,pykka,pseudo,lowbf
202,20,202,heond,he,eo,on,nd,h,e,o,n,d,,1.1174972727894783,1.2374973520636559,1.4056235840544105,1.6295415158383548,1.7975391577929258,0.0,heond,pseudo,highbf
203,20,203,haole,ha,ao,ol,le,h,a,o,l,e,,1.3696114108897746,1.4656098210252821,1.721579270903021,1.913629012182355,2.0016336189582944,0.0,haole,lowwf,medbf
204,20,204,druze,dr,ru,uz,ze,d,r,u,e,,,1.2535988478921354,1.389586034230888,1.6696249721571803,1.9975608731620014,0.0,0.0,drue,lowwf,lowbf
205,20,205,kremp,kr,re,em,mp,k,r,e,m,p,,1.0497264759615064,1.2176665319129825,1.3456804929301143,1.8736778618767858,2.0737915970385075,0.0,kremp,pseudo,medbf
206,20,206,buddy,bu,ud,dd,dy,b,u,d,d,y,,1.085555313155055,1.1975155919790268,1.6455090721137822,1.805508429184556,1.9095018128864467,0.0,buddy,highwf,lowbf
207,20,207,vodka,vo,od,dk,ka,v,o,d,k,a,,1.6494114152155817,1.8253346378915012,2.0973278488963842,2.3293611090630293,2.4253018270246685,0.0,vodka,medwf,lowbf
208,20,208,buddy,bu,ud,dd,dy,b,u,d,d,y,,1.053525404073298,1.1654805480502546,1.5734103159047663,1.7414054870605469,1.8294765641912818,0.0,buddy,highwf,lowbf
209,20,209,zibja,zi,ib,bj,ja,z,i,b,j,a,,1.689746486954391,1.8737101829610765,2.081658552866429,2.3056402909569442,2.409594709984958,0.0,zibja,pseudo,lowbf
210,20,210,therm,th,he,er,rm,t,h,e,r,m,,0.8297150270082057,0.9737902660854161,1.085668277926743,1.2457284540869296,1.3336954321712255,0.0,therm,lowwf,highbf
211,20,211,pykka,py,yk,kk,ka,p,y,k,k,a,,1.1296769147738814,1.4017776451073587,1.69772558985278,1.8336306428536773,1.9137480910867453,0.0,pykka,pseudo,lowbf
212,20,212,belly,be,el,ll,ly,b,e,l,l,y,,0.8537741499021649,1.0137269529514015,1.1897742529399693,1.3577678417786956,1.5497593488544226,0.0,belly,medwf,medbf
213,20,213,theme,th,he,em,me,t,h,e,m,e,,0.7616885490715504,0.8575661117210984,1.0095680998638272,1.2496357019990683,1.3935937196947634,0.0,theme,medwf,highbf
214,20,214,heond,he,eo,on,nd,h,e,o,n,d,,1.101474286057055,1.2374676680192351,1.4535120991058648,1.7174027301371098,1.8854400981217623,0.0,heond,pseudo,highbf
215,20,215,cooed,co,oo,oe,ed,c,o,o,e,d,,0.8253949489444494,0.9774258132092655,1.1134556201286614,1.2093961108475924,1.4014838058501482,0.0,cooed,lowwf,medbf
216,20,216,would,wo,ou,ul,ld,w,o,u,l,d,,1.0056225089356303,1.1095626247115433,1.2295875456184149,1.4456645669415593,1.565671200864017,0.0,would,highwf,medbf
217,20,217,cooed,co,oo,oe,ed,c,o,o,e,d,,0.7934813150204718,0.9375914093106985,1.0734648741781712,1.169591577257961,1.3695520982146263,0.0,cooed,lowwf,medbf
218,20,218,think,th,hi,in,nk,t,h,i,n,k,,0.717474561650306,0.813576178625226,1.005598058924079,1.1174790998920798,1.293488151859492,0.0,think,highwf,highbf
219,20,219,would,wo,ou,ul,ld,w,o,u,l,d,,0.7374815768562257,0.9054221860133111,1.025407292880118,1.2494921619072556,1.4014735668897629,0.0,would,highwf,medbf
220,20,220,haole,ha,ao,ol,le,h,a,o,l,e,,1.2293229289352894,1.3332874267362058,1.5894171330146492,1.797407397069037,1.893368910998106,0.0,haole,lowwf,medbf
221,20,221,tithe,ti,it,th,he,t,i,t,h,e,,0.8575464449822903,0.9934666217304766,1.121553034055978,1.65749591588974,1.7854312686249614,0.0,tithe,lowwf,highbf
222,20,222,lucky,lu,uc,ck,ky,l,u,c,k,y,,0.9335266510024667,1.1736199096776545,1.3336026459001005,1.4855743246152997,1.9335224269889295,0.0,lucky,highwf,lowbf
223,20,223,would,wo,ou,ul,ld,w,o,u,l,d,,1.017585861030966,1.1056003808043897,1.2017680797725916,1.3936404730193317,1.4976493697613478,0.0,would,highwf,medbf
224,20,224,pykka,py,yk,kk,ka,p,y,y,k,k,a,1.0697229988873005,1.3497202172875404,1.5256135081872344,2.2377384300343692,2.3656894071027637,2.5096186962909997,pyykka,pseudo,lowbf
225,20,225,vodka,vo,od,dk,ka,v,o,d,k,a,,1.3055656710639596,1.4895648201927543,2.1135332519188523,2.21744557376951,2.3854895709082484,0.0,vodka,medwf,lowbf
226,20,226,kremp,kr,re,em,mp,k,r,e,m,p,,1.3894704920239747,1.477478093933314,1.565511459019035,1.7894082721322775,1.9495034320279956,0.0,kremp,pseudo,medbf
227,20,227,belly,be,el,ll,ly,b,e,l,l,y,,0.9692804906517267,1.0972796706482768,1.2971682730130851,1.4652406168170273,1.6572857988066971,0.0,belly,medwf,medbf
228,20,228,cheer,ch,he,ee,er,c,h,e,e,r,,1.0614704536274076,1.221485171932727,1.333441318012774,1.5494671198539436,1.5734272319823503,0.0,cheer,medwf,highbf
229,20,229,heond,he,eo,on,nd,h,e,o,n,d,,1.2013186872936785,1.2813132172450423,1.5053346301428974,1.7694268212653697,1.8973397822119296,0.0,heond,pseudo,highbf
230,20,230,haole,ha,ao,ol,le,h,a,o,l,e,,1.0293438383378088,1.141455814242363,1.3334241872653365,1.5334566179662943,1.6134193493053317,0.0,haole,lowwf,medbf
231,20,231,would,wo,ou,ul,ld,w,o,u,l,d,,0.8973827362060547,1.0413647713139653,1.161367469932884,1.4573901859112084,1.5933144818991423,0.0,would,highwf,medbf
232,20,232,theme,th,he,em,me,t,h,e,e,m,,0.9092150181531906,1.029233886860311,1.1492833280935884,1.4213310931809247,1.469278766773641,0.0,theem,medwf,highbf
233,20,233,would,wo,ou,ul,ld,w,o,u,l,d,,0.8811779008246958,1.0171793140470982,1.1292041870765388,1.3292195247486234,1.409181724768132,0.0,would,highwf,medbf
234,20,234,therm,th,he,er,rm,t,h,e,r,m,,0.7416697908192873,0.8617410608567297,0.9896653457544744,1.069750536698848,1.1416652668267488,0.0,therm,lowwf,highbf
235,20,235,champ,ch,ha,am,mp,c,h,a,m,o,,0.77736492222175,0.9054338349960744,1.0813613161444664,1.2494229241274297,1.4014164311811328,0.0,chamo,medwf,medbf
236,20,236,about,ab,bo,ou,ut,a,b,o,u,t,,0.8374901311472058,0.9013776392675936,1.1894607404246926,1.2694665002636611,1.3654829883016646,0.0,about,highwf,medbf
237,20,237,buddy,bu,ud,dd,dy,b,u,d,d,y,,0.9455449432134628,1.1214434332214296,1.3294725231826305,1.5055550909601152,1.6415113601833582,0.0,buddy,highwf,lowbf
238,20,238,therm,th,he,er,rm,t,h,e,r,m,,0.7094197440892458,0.8294953731819987,0.9575489899143577,1.021584671922028,1.1415425301529467,0.0,therm,lowwf,highbf
239,20,239,heond,he,eo,on,nd,h,e,o,n,d,,0.9615305261686444,1.0734506328590214,1.2814027648419142,1.513486587908119,1.6813955758698285,0.0,heond,pseudo,highbf
