,sID,Trial #,string,bi_1,bi_2,bi_3,bi_4,key_resp.keys.1,key_resp.keys.2,key_resp.keys.3,key_resp.keys.4,key_resp.keys.5,key_resp.keys.6,key_resp.keys.7,key_resp.keys.8,key_resp.keys.9,key_resp.keys.10,key_resp.rt.1,key_resp.rt.2,key_resp.rt.3,key_resp.rt.4,key_resp.rt.5,key_resp.rt.6,key_resp.rt.7,key_resp.rt.8,key_resp.rt.9,key_resp.rt.10,resp_string,WF Type,BF Type
0,s210,0,druze,dr,ru,uz,ze,d,r,u,z,e,,,,,,1.1763206019531935,1.360240297857672,1.624358947854489,1.9682564248796552,2.2243350888602436,0.0,0.0,0.0,0.0,0.0,druze,lowwf,
1,s210,1,cheer,ch,he,ee,er,c,h,e,e,r,,,,,,0.7905792330857366,0.9344587179366499,1.1185453198850155,1.2945232070051134,1.3984828130342066,0.0,0.0,0.0,0.0,0.0,cheer,medwf,
2,s210,2,belly,be,el,ll,ly,b,e,l,l,y,,,,,,0.7463916500564665,1.010258293012157,1.194304158212617,1.346297451062128,1.5383111501578242,0.0,0.0,0.0,0.0,0.0,belly,medwf,
3,s210,3,puppy,pu,up,pp,py,p,u,p,p,y,,,,,,0.862317412160337,1.0622755540534854,1.302386017050594,1.454290479188785,1.8863723021931946,0.0,0.0,0.0,0.0,0.0,puppy,medwf,
4,s210,4,champ,ch,ha,am,mp,c,h,a,m,p,,,,,,0.6414445051923394,0.7454444051254541,0.8895582400728017,0.9855307210236788,1.2094278710428625,0.0,0.0,0.0,0.0,0.0,champ,medwf,
5,s210,5,buddy,bu,ud,dd,dy,b,u,d,d,y,,,,,,0.7343780670780689,0.8864392430987209,1.086481514154002,1.2304815091192722,1.374490724178031,0.0,0.0,0.0,0.0,0.0,buddy,highwf,
6,s210,6,pykka,py,yk,kk,ka,p,y,l,l,a,,,,,,0.8504543940071017,1.1143736320082098,1.4904104098677635,1.650418174918741,1.7544247498735785,0.0,0.0,0.0,0.0,0.0,pylla,pseudo,
7,s210,7,kremp,kr,re,em,mp,k,r,e,m,p,,,,,,1.3905061830300838,1.7504686971660703,1.98250911408104,2.0545182700734586,2.2705446830950677,0.0,0.0,0.0,0.0,0.0,kremp,pseudo,
8,s210,8,lucky,lu,uc,ck,ky,l,i,u,c,k,y,,,,,0.6423797279130667,0.8744349908083677,0.8744349908083677,1.0184537498280406,1.226371702970937,1.4343851238954812,0.0,0.0,0.0,0.0,liucky,highwf,
9,s210,9,faqir,fa,aq,qi,ir,f,a,q,i,r,,,,,,0.9422124780248851,1.1022915982175618,1.5902722540777177,1.7341862570028752,1.8942034731153399,0.0,0.0,0.0,0.0,0.0,faqir,lowwf,
10,s210,10,puppy,pu,up,pp,py,p,u,p,p,y,,,,,,0.8663376739714295,1.0343243959359825,1.2343124588951468,1.3784014258999377,1.6343153598718345,0.0,0.0,0.0,0.0,0.0,puppy,medwf,
11,s210,11,vodka,vo,od,dk,ka,v,o,i,d,k,a,,,,,1.0063238788861781,1.1102154748514295,1.1102154748514295,1.2622801798861474,1.6462282149586827,1.9902183979284018,0.0,0.0,0.0,0.0,voidka,medwf,
12,s210,12,therm,th,he,er,rm,t,h,e,r,m,,,,,,0.9542538381647319,1.058145608054474,1.2262504471000284,1.3461515791714191,1.4662145420443267,0.0,0.0,0.0,0.0,0.0,therm,lowwf,
13,s210,13,lucky,lu,uc,ck,ky,l,u,c,k,y,,,,,,0.5981446141377091,0.8621206551324576,1.0301200090907514,1.1500635391566902,1.3421150350477546,0.0,0.0,0.0,0.0,0.0,lucky,highwf,
14,s210,14,faqir,fa,aq,qi,ir,f,a,q,i,r,,,,,,0.7943068358581513,0.9623009348288178,1.3783599638845772,1.5303264188114554,1.6663184219505638,0.0,0.0,0.0,0.0,0.0,faqir,lowwf,
15,s210,15,heond,he,eo,on,nd,h,e,o,n,d,,,,,,1.1100240191444755,1.3100310070440173,1.5340195200406015,1.7900283799972385,1.9821231630630791,0.0,0.0,0.0,0.0,0.0,heond,pseudo,
16,s210,16,puppy,pu,up,pp,py,p,u,p,p,y,,,,,,0.8497577679809183,1.3456876068376005,1.6178114898502827,1.7777707348577678,2.1457253308035433,0.0,0.0,0.0,0.0,0.0,puppy,medwf,
17,s210,17,pykka,py,yk,kk,ka,p,y,k,k,a,,,,,,0.8622108341660351,1.334164237137884,2.382269211113453,2.534148574108258,2.678255725186318,0.0,0.0,0.0,0.0,0.0,pykka,pseudo,
18,s210,18,lucky,lu,uc,ck,ky,l,u,c,k,y,,,,,,0.6179897640831769,0.8660875291097909,1.0099812671542168,1.1221102559939027,1.3460102600511163,0.0,0.0,0.0,0.0,0.0,lucky,highwf,
19,s210,19,druze,dr,ru,uz,ze,d,r,u,z,e,,,,,,0.7262822589837015,0.9582568500190973,1.2863694669213146,1.3743220600299537,1.6143039169255644,0.0,0.0,0.0,0.0,0.0,druze,lowwf,
20,s210,20,kremp,kr,re,em,mp,k,r,e,p,m,,,,,,0.7938950378447771,1.0978950639255345,1.2899530208669603,1.4419138338416815,2.2739104388747364,0.0,0.0,0.0,0.0,0.0,krepm,pseudo,
21,s210,21,haole,ha,ao,ol,le,h,a,o,l,e,,,,,,0.8704558331519365,1.0384617031086236,1.2784931450150907,1.502400296041742,1.6544590580742806,0.0,0.0,0.0,0.0,0.0,haole,lowwf,
22,s210,22,think,th,hi,in,nk,t,h,i,u,n,k,k,,,,0.7302118479274213,0.8101613018661737,0.9542544849682599,0.9542544849682599,1.1302039369475096,1.2902508748229593,2.2742501839529723,0.0,0.0,0.0,thiunkk,highwf,
23,s210,23,haole,ha,ao,ol,le,h,a,o,l,e,,,,,,0.8943582968786359,1.0703065658453852,1.4062725778203458,1.6382716468069702,1.774325257865712,0.0,0.0,0.0,0.0,0.0,haole,lowwf,
24,s210,24,vanru,va,an,nr,ru,v,a,n,r,u,i,,,,,1.042237161891535,1.23419597488828,1.402280230075121,1.642189949983731,1.786309001967311,1.7943469290621579,0.0,0.0,0.0,0.0,vanrui,pseudo,
25,s210,25,kremp,kr,re,em,mp,k,r,e,m,o,,,,,,0.7261858240235597,0.9583111859392375,1.1422147119883448,1.2382938920054585,1.4702390369493514,0.0,0.0,0.0,0.0,0.0,kremo,pseudo,
26,s210,26,heond,he,eo,on,nd,h,e,a,o,n,d,,,,,0.9055305949877948,1.0415139440447092,1.2095239211339504,1.4175581680610776,1.6576249860227108,1.873515603132546,0.0,0.0,0.0,0.0,heaond,pseudo,
27,s210,27,edthe,ed,dt,th,he,e,d,t,h,e,,,,,,1.1180240837857127,1.2700716799590737,1.542011264944449,1.6780444318428636,1.8219731678254902,0.0,0.0,0.0,0.0,0.0,edthe,pseudo,
28,s210,28,buddy,bu,ud,dd,dy,b,u,d,d,y,,,,,,0.8582280981354415,1.090278611984104,1.30629696813412,1.4582241720054299,1.6662617500405759,0.0,0.0,0.0,0.0,0.0,buddy,highwf,
29,s210,29,about,ab,bo,ou,ut,a,b,o,u,t,,,,,,0.590255392016843,0.8141439352184534,0.9742485249880701,1.1821491362061352,1.2782094720751047,0.0,0.0,0.0,0.0,0.0,about,highwf,
30,s210,30,kremp,kr,re,em,mp,k,r,e,m,p,,,,,,1.0741190421395004,1.7382363630458713,1.898204336175695,2.0742087971884757,2.8582055082079023,0.0,0.0,0.0,0.0,0.0,kremp,pseudo,
31,s210,31,druze,dr,ru,uz,ze,d,r,u,z,e,,,,,,0.8540343372151256,1.0300342610571533,1.2300033632200211,1.797969374107197,2.254025180125609,0.0,0.0,0.0,0.0,0.0,druze,lowwf,
32,s210,32,belly,be,el,ll,ly,b,e,l,l,y,,,,,,0.8098458771128207,1.0418809209950268,1.201917887898162,1.3539617881178856,1.5939143900759518,0.0,0.0,0.0,0.0,0.0,belly,medwf,
33,s210,33,champ,ch,ha,am,mp,c,h,a,m,p,,,,,,0.7582066899631172,0.8542589470744133,0.9901909381151199,1.0942890960723162,1.6142604420892894,0.0,0.0,0.0,0.0,0.0,champ,medwf,
34,s210,34,theme,th,he,em,me,t,h,e,m,e,,,,,,0.7541742748580873,0.8661954919807613,1.0020868799183518,1.106176647823304,1.226048480020836,0.0,0.0,0.0,0.0,0.0,theme,medwf,
35,s210,35,champ,ch,ha,am,mp,c,h,a,m,n,p,,,,,0.6381679710466415,0.7661835290491581,0.846130482852459,1.0783230250235647,1.0861086819786578,1.4302569599822164,0.0,0.0,0.0,0.0,chamnp,medwf,
36,s210,36,would,wo,ou,ul,ld,w,o,u,l,d,,,,,,0.7302505141124129,0.9142938160803169,1.0503075742162764,1.2823109000455588,1.3942222320474684,0.0,0.0,0.0,0.0,0.0,would,highwf,
37,s210,37,there,th,he,er,re,t,h,e,r,e,,,,,,0.7741879401728511,0.8621825592126697,1.0301688842009753,1.126088242046535,1.2781796262133867,0.0,0.0,0.0,0.0,0.0,there,highwf,
38,s210,38,haole,ha,ao,ol,le,h,a,o,l,e,,,,,,0.8020107680931687,0.9700205810368061,1.0819709659554064,1.2740192860364914,1.393916933098808,0.0,0.0,0.0,0.0,0.0,haole,lowwf,
39,s210,39,theme,th,he,em,me,t,h,e,m,e,,,,,,0.7338373400270939,0.8378969309851527,0.9738474050536752,1.0458471640013158,1.1739629919175059,0.0,0.0,0.0,0.0,0.0,theme,medwf,
40,s210,40,cooed,co,oo,oe,ed,c,o,o,e,d,,,,,,1.0661207519005984,1.3541168549563736,1.5221488729584962,1.7141142359469086,1.8900963889900595,0.0,0.0,0.0,0.0,0.0,cooed,lowwf,
41,s210,41,edthe,ed,dt,th,he,e,d,t,h,e,,,,,,0.7580764279700816,0.9339265709277242,1.1420569568872452,1.2380187909584492,1.3500497948843986,0.0,0.0,0.0,0.0,0.0,edthe,pseudo,
42,s210,42,about,ab,bo,ou,ut,a,b,o,u,t,,,,,,0.7059526131488383,0.9299981310032308,1.1139823719859123,1.2659993241541088,1.3860098631121218,0.0,0.0,0.0,0.0,0.0,about,highwf,
43,s210,43,kremp,kr,re,em,mp,k,r,e,m,p,o,,,,,0.9500349729787558,1.2380389601457864,1.3819749429821968,1.4620519750751555,1.6699997971300036,1.685904836980626,0.0,0.0,0.0,0.0,krempo,pseudo,
44,s210,44,vanru,va,an,nr,ru,v,a,n,r,u,,,,,,0.8419344320427626,0.9859371918719262,1.137902872869745,1.3378570079803467,1.4978882188443094,0.0,0.0,0.0,0.0,0.0,vanru,pseudo,
45,s210,45,there,th,he,er,re,t,h,e,r,e,,,,,,0.6700059198774397,0.7820454339962453,0.9099755298811942,1.0060561050195247,1.1259511108510196,0.0,0.0,0.0,0.0,0.0,there,highwf,
46,s210,46,therm,th,he,er,rm,t,h,e,r,m,,,,,,0.849970884155482,0.9859995390288532,1.1300448670517653,1.217950901016593,1.3620223349425942,0.0,0.0,0.0,0.0,0.0,therm,lowwf,
47,s210,47,zibja,zi,ib,bj,ja,z,i,b,j,a,,,,,,1.0861063990741968,1.494090680964291,1.7580945519730449,2.0061545779462904,2.150129672139883,0.0,0.0,0.0,0.0,0.0,zibja,pseudo,
48,s210,48,cheer,ch,he,ee,er,c,h,e,e,r,,,,,,0.7619467349722981,0.8898549699224532,1.0498958800453693,1.1938079830724746,1.2897932981140912,0.0,0.0,0.0,0.0,0.0,cheer,medwf,
49,s210,49,edthe,ed,dt,th,he,e,d,t,y,h,e,,,,,0.7422273571137339,0.9260582919232547,1.1021643111016601,1.110059526981786,1.206117375055328,1.2621830150019377,0.0,0.0,0.0,0.0,edtyhe,pseudo,
50,s210,50,there,th,he,er,re,t,h,e,r,e,,,,,,0.6892898809164762,0.8092454608995467,0.9053197789471596,0.9853693109471351,1.1133656438905746,0.0,0.0,0.0,0.0,0.0,there,highwf,
51,s210,51,vodka,vo,od,dk,ka,v,o,d,k,a,,,,,,0.8614041621331125,1.005476457066834,1.1813790830783546,1.565460137091577,1.7574818029534072,0.0,0.0,0.0,0.0,0.0,vodka,medwf,
52,s210,52,edthe,ed,dt,th,he,e,d,t,h,e,,,,,,0.689374036854133,0.8653442899230868,1.0413708379492164,1.153327523963526,1.24133793101646,0.0,0.0,0.0,0.0,0.0,edthe,pseudo,
53,s210,53,cooed,co,oo,oe,ed,c,o,o,e,d,,,,,,0.7571970471180975,0.9732917421497405,1.1572823619935662,1.3892837190069258,1.5572861561086029,0.0,0.0,0.0,0.0,0.0,cooed,lowwf,
54,s210,54,buddy,bu,ud,dd,dy,b,u,d,d,y,,,,,,0.800615306943655,1.2727447599172592,1.4806875330395997,1.6566308829933405,1.752701431978494,0.0,0.0,0.0,0.0,0.0,buddy,highwf,
55,s210,55,druze,dr,ru,uz,ze,d,r,u,z,e,,,,,,0.6370472360868007,0.8370669120922685,1.045078641967848,1.1730691900011152,1.381005851086229,0.0,0.0,0.0,0.0,0.0,druze,lowwf,
56,s210,56,puppy,pu,up,pp,py,p,u,p,p,y,,,,,,0.9212211340200156,1.4572398399468511,1.689277753001079,1.8491900248918682,2.1051507049705833,0.0,0.0,0.0,0.0,0.0,puppy,medwf,
57,s210,57,belly,be,el,ll,ly,b,e,l,l,y,,,,,,0.8053085647989064,1.0213820599019527,1.189414979889989,1.3333806248847395,1.4694339809939265,0.0,0.0,0.0,0.0,0.0,belly,medwf,
58,s210,58,lucky,lu,uc,ck,ky,l,u,c,k,y,,,,,,0.6413899620529264,0.8974062600173056,1.0333868940360844,1.1453849421814084,1.3374815641436726,0.0,0.0,0.0,0.0,0.0,lucky,highwf,
59,s210,59,pykka,py,yk,kk,ka,p,y,k,k,a,,,,,,0.8689158749766648,1.1649280819110572,2.084944572998211,2.228867534082383,2.3249085990246385,0.0,0.0,0.0,0.0,0.0,pykka,pseudo,
60,s210,60,cheer,ch,he,ee,er,c,h,e,e,r,,,,,,0.7695403120014817,0.8895594158675522,1.0174051190260798,1.1455217939801514,1.249484634026885,0.0,0.0,0.0,0.0,0.0,cheer,medwf,
61,s210,61,cooed,co,oo,oe,ed,c,o,o,d,,,,,,,0.6929735029116273,0.9090096009895205,1.0690743648447096,1.1650606589391828,0.0,0.0,0.0,0.0,0.0,0.0,cood,lowwf,
62,s210,62,there,th,he,er,re,t,h,e,r,e,,,,,,0.6487780509050936,0.760781197110191,0.9366871339734644,1.0406899079680443,1.168765498092398,0.0,0.0,0.0,0.0,0.0,there,highwf,
63,s210,63,buddy,bu,ud,dd,dy,b,u,d,d,y,,,,,,0.8771899829152972,1.117197467945516,1.2693104110658169,1.4132903718855232,1.485268946038559,0.0,0.0,0.0,0.0,0.0,buddy,highwf,
64,s210,64,there,th,he,er,re,t,h,e,r,e,,,,,,0.6572956230957061,0.7611987069249153,0.8731807190924883,0.9532948769629002,1.0652451189234853,0.0,0.0,0.0,0.0,0.0,there,highwf,
65,s210,65,would,wo,ou,ul,ld,w,o,u,l,d,,,,,,0.7251493439543992,0.9491865979507565,1.1252675759606063,1.3572562758345157,1.5011091558262706,0.0,0.0,0.0,0.0,0.0,would,highwf,
66,s210,66,think,th,hi,in,nk,t,h,u,i,n,k,,,,,0.6810557411517948,0.8091173260472715,0.9770424249581993,0.9850527411326766,1.3451528931036592,1.4491704271640629,0.0,0.0,0.0,0.0,thuink,highwf,
67,s210,67,theme,th,he,em,me,t,h,e,m,e,,,,,,0.6530650099739432,0.7331012990325689,0.8850525510497391,0.9731092839501798,1.0851084000896662,0.0,0.0,0.0,0.0,0.0,theme,medwf,
68,s210,68,belly,be,el,ll,ly,b,e,l,l,y,,,,,,0.7690639458596706,0.953055728925392,1.0411057509481907,1.2249933839775622,1.4169848868623376,0.0,0.0,0.0,0.0,0.0,belly,medwf,
69,s210,69,vanru,va,an,nr,ru,v,a,n,r,u,,,,,,0.8532547070644796,0.9972333300393075,1.1572417540010065,1.31711140810512,1.4771474380977452,0.0,0.0,0.0,0.0,0.0,vanru,pseudo,
70,s210,70,cooed,co,oo,oe,ed,v,o,o,e,d,,,,,,1.065280901035294,2.1931815510615706,2.409208342898637,2.5771746260579675,2.7532889880239964,0.0,0.0,0.0,0.0,0.0,vooed,lowwf,
71,s210,71,would,wo,ou,ul,ld,w,o,u,l,d,,,,,,0.7172772749327123,0.8454025969840586,1.0373908579349518,1.22934800805524,1.3813422860112041,0.0,0.0,0.0,0.0,0.0,would,highwf,
72,s210,72,vanru,va,an,nr,ru,v,a,n,r,u,,,,,,0.9450497291982174,1.1611058071721345,1.4089846981223673,1.5769740052055568,1.72905264608562,0.0,0.0,0.0,0.0,0.0,vanru,pseudo,
73,s210,73,therm,th,he,er,rm,t,h,e,r,m,,,,,,0.7732942369766533,0.9332554249558598,1.1012175208888948,1.2292223980184644,1.3892279979772866,0.0,0.0,0.0,0.0,0.0,therm,lowwf,
74,s210,74,cheer,ch,he,ee,er,c,h,e,e,r,,,,,,0.7049888458568603,0.8569935788400471,1.0168670669663697,1.1529904208146036,1.2409538479987532,0.0,0.0,0.0,0.0,0.0,cheer,medwf,
75,s210,75,think,th,hi,in,nk,t,h,i,n,k,,,,,,0.6450803349725902,0.8050526478327811,0.9650799909140915,1.2130873799324036,1.3250374249182642,0.0,0.0,0.0,0.0,0.0,think,highwf,
76,s210,76,would,wo,ou,ul,ld,w,o,u,l,d,,,,,,0.6808968398254365,0.8729779908899218,1.0409162088762969,1.3209864678792655,1.4410321589093655,0.0,0.0,0.0,0.0,0.0,would,highwf,
77,s210,77,vodka,vo,od,dk,ka,v,o,d,k,a,,,,,,0.8769724508747458,1.125106745865196,1.3251042708288878,1.461007010890171,1.5810230248607695,0.0,0.0,0.0,0.0,0.0,vodka,medwf,
78,s210,78,therm,th,he,er,rm,t,h,e,r,m,,,,,,0.7050580680370331,0.8170340750366449,0.9211496419738978,1.0091149001382291,1.1051704289857298,0.0,0.0,0.0,0.0,0.0,therm,lowwf,
79,s210,79,think,th,hi,in,nk,t,h,i,n,k,,,,,,0.7971443058922887,0.9731737049296498,1.1331256087869406,1.3411670147906989,1.4371669569518417,0.0,0.0,0.0,0.0,0.0,think,highwf,
80,s210,80,theme,th,he,em,me,t,h,m,e,,,,,,,0.7049187310039997,0.8089561541564763,1.0969118219800293,1.6888730691280216,0.0,0.0,0.0,0.0,0.0,0.0,thme,medwf,
81,s210,81,heond,he,eo,on,nd,h,e,o,n,d,,,,,,0.8853232450783253,1.037312818923965,1.1652872799895704,1.373209253884852,1.5011902248952538,0.0,0.0,0.0,0.0,0.0,heond,pseudo,
82,s210,82,think,th,hi,in,nk,t,h,i,n,k,,,,,,0.6330073331482708,0.7769444091245532,0.8970424879807979,1.1050629380624741,1.2169389501214027,0.0,0.0,0.0,0.0,0.0,think,highwf,
83,s210,83,tithe,ti,it,th,he,t,i,t,h,e,,,,,,0.9492428039666265,1.0612969489302486,1.2131790739949793,1.3332135090604424,1.5012179201003164,0.0,0.0,0.0,0.0,0.0,tithe,lowwf,
84,s210,84,zibja,zi,ib,bj,ja,z,i,b,j,a,,,,,,0.9373106230050325,1.3771930141374469,1.6812727160286158,1.8253244690131396,1.9852014181669801,0.0,0.0,0.0,0.0,0.0,zibja,pseudo,
85,s210,85,pykka,py,yk,kk,ka,p,y,k,k,a,,,,,,1.1412923578172922,1.7651736638508737,2.16527824383229,2.3253441439010203,2.4452333108056337,0.0,0.0,0.0,0.0,0.0,pykka,pseudo,
86,s210,86,tithe,ti,it,th,he,t,i,t,h,e,,,,,,0.9611972039565444,1.169257190078497,1.3452774009201676,1.4411685590166599,1.5612805059645325,0.0,0.0,0.0,0.0,0.0,tithe,lowwf,
87,s210,87,about,ab,bo,ou,ut,a,b,o,u,t,,,,,,0.6528593460097909,1.3808330651372671,1.6927850041538477,1.7889203091617674,1.9569069831632078,0.0,0.0,0.0,0.0,0.0,about,highwf,
88,s210,88,tithe,ti,it,th,he,t,i,t,h,e,,,,,,0.7210183590650558,0.928954903036356,1.1129793741274625,1.1769853641744703,1.312979584094137,0.0,0.0,0.0,0.0,0.0,tithe,lowwf,
89,s210,89,about,ab,bo,ou,ut,a,b,o,u,t,,,,,,0.6129852430894971,0.8530873940326273,1.0289556889329106,1.1810383051633835,1.2929856211412698,0.0,0.0,0.0,0.0,0.0,about,highwf,
90,s210,90,champ,ch,ha,am,mp,c,h,a,m,p,,,,,,0.7685210229828954,0.9045684549491853,1.0245590328704566,1.1845604488626122,1.648560413857922,0.0,0.0,0.0,0.0,0.0,champ,medwf,
91,s210,91,druze,dr,ru,uz,ze,d,r,u,z,e,,,,,,0.7248665678780526,0.900860734982416,1.1809287869837135,1.3088807279709727,1.564851274015382,0.0,0.0,0.0,0.0,0.0,druze,lowwf,
92,s210,92,heond,he,eo,on,nd,h,e,o,n,d,,,,,,0.8731567969080061,1.0330895339138806,1.2251064288429916,1.4410716989077628,1.5290438157971948,0.0,0.0,0.0,0.0,0.0,heond,pseudo,
93,s210,93,tithe,ti,it,th,he,t,i,e,h,,,,,,,0.8449498720001429,0.9408296179026365,1.2529482839163393,1.388958484865725,0.0,0.0,0.0,0.0,0.0,0.0,tieh,lowwf,
94,s210,94,champ,ch,ha,am,mp,c,h,a,m,p,,,,,,0.6888828051742166,0.856883745174855,0.9848161910194904,1.0808178260922432,1.4007749911397696,0.0,0.0,0.0,0.0,0.0,champ,medwf,
95,s210,95,zibja,zi,ib,bj,ja,z,i,b,j,a,,,,,,0.9248132931534201,1.1408070100005716,1.364789835177362,1.4927857611328363,1.684808730147779,0.0,0.0,0.0,0.0,0.0,zibja,pseudo,
96,s210,96,heond,he,eo,on,nd,h,e,o,n,d,,,,,,0.7690071789547801,0.9130471558310091,1.0168988048098981,1.2410093238577247,1.3690130808390677,0.0,0.0,0.0,0.0,0.0,heond,pseudo,
97,s210,97,cooed,co,oo,oe,ed,c,o,o,e,d,,,,,,0.8531722680199891,1.0851007900200784,1.2611097749322653,1.5651215629186481,1.7411786110606045,0.0,0.0,0.0,0.0,0.0,cooed,lowwf,
98,s210,98,pykka,py,yk,kk,ka,p,y,k,k,a,,,,,,1.2088953340426087,1.584984814049676,2.2729073751252145,2.4248981941491365,2.6089001081418246,0.0,0.0,0.0,0.0,0.0,pykka,pseudo,
99,s210,99,faqir,fa,aq,qi,ir,f,a,q,i,r,,,,,,0.9971488469745964,1.509071959881112,1.9090638780035079,2.125067840795964,2.421126457862556,0.0,0.0,0.0,0.0,0.0,faqir,lowwf,
100,s210,100,cheer,ch,he,ee,er,c,h,e,e,r,,,,,,0.7291277919430286,0.8731511319056153,1.0411060468759388,1.185152926016599,1.257163577945903,0.0,0.0,0.0,0.0,0.0,cheer,medwf,
101,s210,101,haole,ha,ao,ol,le,h,a,o,l,e,,,,,,0.8129713081289083,0.9889426410663873,1.1889525800943375,1.3889592660125345,1.4850260850507766,0.0,0.0,0.0,0.0,0.0,haole,lowwf,
102,s210,102,vodka,vo,od,dk,ka,v,o,d,k,a,,,,,,0.9208977040834725,1.0728731618728489,1.224974586861208,1.36093422700651,1.5690273579675704,0.0,0.0,0.0,0.0,0.0,vodka,medwf,
103,s210,103,lucky,lu,uc,ck,ky,l,u,c,k,y,,,,,,0.8208712479099631,1.0768504769075662,1.3808440170250833,1.5088081969879568,1.7648531279992312,0.0,0.0,0.0,0.0,0.0,lucky,highwf,
104,s210,104,vodka,vo,od,dk,ka,v,o,d,k,a,,,,,,0.9450211359653622,1.1370307919569314,1.2889558009337634,1.4169901069253683,1.688909922959283,0.0,0.0,0.0,0.0,0.0,vodka,medwf,
105,s210,105,therm,th,he,er,rm,t,h,e,r,m,,,,,,0.7649418609216809,0.8928921020124108,0.9890235939528793,1.0689857399556786,1.189015171956271,0.0,0.0,0.0,0.0,0.0,therm,lowwf,
106,s210,106,faqir,fa,aq,qi,ir,f,a,i,q,e,r,,,,,0.768884606892243,0.9448712798766792,1.2968911118805408,1.7448901000898331,1.9609457119368017,2.1688704208936542,0.0,0.0,0.0,0.0,faiqer,lowwf,
107,s210,107,tithe,ti,it,th,he,t,i,t,h,e,,,,,,0.7646818419452757,1.0047493891324848,1.1887550631072372,1.2847407970111817,1.4047001439612359,0.0,0.0,0.0,0.0,0.0,tithe,lowwf,
108,s210,108,buddy,bu,ud,dd,dy,b,u,d,d,y,,,,,,0.8326471489854157,1.1046006500255316,1.2485735609661788,1.4165684280451387,1.4886097400449216,0.0,0.0,0.0,0.0,0.0,buddy,highwf,
109,s210,109,zibja,zi,ib,bj,ja,z,i,b,j,a,,,,,,0.8371028311084956,1.2290542460978031,1.5890546501614153,1.7731130411848426,1.9490739090833813,0.0,0.0,0.0,0.0,0.0,zibja,pseudo,
110,s210,110,faqir,fa,aq,qi,ir,f,a,q,i,r,,,,,,0.8889021549839526,1.0889729321934283,1.4569724611938,1.6329396851360798,1.8569005550816655,0.0,0.0,0.0,0.0,0.0,faqir,lowwf,
111,s210,111,vanru,va,an,nr,ru,v,a,n,r,u,,,,,,0.8290263630915433,0.9971919669769704,1.1410217229276896,1.2690137019380927,1.4450007248669863,0.0,0.0,0.0,0.0,0.0,vanru,pseudo,
112,s210,112,theme,th,he,em,me,t,h,e,m,,,,,,,0.9690018929541111,1.0648511939216405,1.2489538178779185,1.352953736903146,0.0,0.0,0.0,0.0,0.0,0.0,them,medwf,
113,s210,113,edthe,ed,dt,th,he,e,d,t,h,e,,,,,,0.7167877641040832,0.8926847390830517,1.0687974230386317,1.1646925481036305,1.2447807879652828,0.0,0.0,0.0,0.0,0.0,edthe,pseudo,
114,s210,114,would,wo,ou,ul,ld,w,o,u,l,d,,,,,,1.2805801110807806,1.5846582259982824,1.7605846300721169,1.9845629401970655,2.1046942791435868,0.0,0.0,0.0,0.0,0.0,would,highwf,
115,s210,115,puppy,pu,up,pp,py,p,u,p,p,y,,,,,,1.0127226628828794,1.692660657921806,2.0126871368847787,2.1487567159347236,2.6047793289180845,0.0,0.0,0.0,0.0,0.0,puppy,medwf,
116,s210,116,haole,ha,ao,ol,le,h,a,o,l,e,,,,,,0.6486944840289652,0.800585743971169,1.0005752078723162,1.216653211042285,1.3286914569325745,0.0,0.0,0.0,0.0,0.0,haole,lowwf,
117,s210,117,belly,be,el,ll,ly,b,e,e,l,l,y,,,,,0.7407903380226344,0.948775373166427,1.1086987510789186,1.2207437430042773,1.3567522240336984,1.5327738029882312,0.0,0.0,0.0,0.0,beelly,medwf,
118,s210,118,zibja,zi,ib,bj,ja,z,i,b,j,a,,,,,,1.0168232638388872,1.248851325828582,1.432849467964843,1.5688324738293886,1.696850816020742,0.0,0.0,0.0,0.0,0.0,zibja,pseudo,
119,s210,119,about,ab,bo,ou,ut,a,b,o,u,t,,,,,,0.5568629507906735,0.6767369948793203,0.9088034129235893,1.1168018109165132,1.2048389299307019,0.0,0.0,0.0,0.0,0.0,about,highwf,
120,s210,120,druze,dr,ru,uz,ze,d,r,u,z,e,,,,,,1.5515393509995192,1.7676325330976397,2.2476463401690125,2.3517304530832916,2.559633537195623,0.0,0.0,0.0,0.0,0.0,druze,lowwf,
121,s210,121,tithe,ti,it,th,he,t,i,t,h,e,,,,,,0.7620783969759941,0.8581046417821199,1.0260406618472189,1.0980347429867834,1.2261981528718024,0.0,0.0,0.0,0.0,0.0,tithe,lowwf,
122,s210,122,cooed,co,oo,oe,ed,c,o,o,e,d,,,,,,0.9979180141817778,1.1418588901869953,1.2938654301688075,1.3979068310000002,1.5659230300225317,0.0,0.0,0.0,0.0,0.0,cooed,lowwf,
123,s210,123,heond,he,eo,on,nd,h,e,o,n,d,,,,,,0.8097069461364299,0.9217092101462185,1.0336976610124111,1.3218217100948095,1.4257567001041025,0.0,0.0,0.0,0.0,0.0,heond,pseudo,
124,s210,124,champ,ch,ha,am,mp,c,h,a,m,p,,,,,,0.685789834940806,0.7977031329646707,0.9096925610210747,0.9897895371541381,1.1336696711368859,0.0,0.0,0.0,0.0,0.0,champ,medwf,
125,s210,125,pykka,py,yk,kk,ka,p,y,l,l,a,,,,,,1.1058649010956287,1.665839646011591,2.0018378640525043,2.1458076550625265,2.217754435027018,0.0,0.0,0.0,0.0,0.0,pylla,pseudo,
126,s210,126,vodka,vo,od,dk,ka,v,o,d,k,a,,,,,,0.9256317741237581,1.0295529570430517,1.1896694609895349,1.2856723479926586,1.4296107650734484,0.0,0.0,0.0,0.0,0.0,vodka,medwf,
127,s210,127,puppy,pu,up,pp,py,p,u,y,,,,,,,,1.2977767770644277,1.7937597630079836,2.8097706800326705,0.0,0.0,0.0,0.0,0.0,0.0,0.0,puy,medwf,
128,s210,128,vanru,va,an,nr,ru,v,a,n,r,u,,,,,,1.4377496410161257,1.5578120010904968,1.6698024729266763,1.773806642042473,2.2056824578903615,0.0,0.0,0.0,0.0,0.0,vanru,pseudo,
129,s210,129,heond,he,eo,on,nd,h,e,o,n,d,,,,,,0.9298468010965735,1.049818661995232,1.1777594659943134,1.3617749200202525,1.4257879650685936,0.0,0.0,0.0,0.0,0.0,heond,pseudo,
130,s210,130,buddy,bu,ud,dd,dy,b,u,d,d,y,,,,,,0.9256422491744161,1.1976106921210885,1.3656765681225806,1.5095736351795495,1.6935574039816856,0.0,0.0,0.0,0.0,0.0,buddy,highwf,
131,s210,131,cheer,ch,he,ee,er,c,h,e,e,r,,,,,,0.6658203140832484,0.7618577659595758,0.8897842029109597,1.01771652395837,1.089825371047482,0.0,0.0,0.0,0.0,0.0,cheer,medwf,
132,s210,132,kremp,kr,re,em,mp,l,r,e,m,p,,,,,,0.8058776380494237,1.1258598889689893,1.2779471490066499,1.3579057201277465,1.79786158609204,0.0,0.0,0.0,0.0,0.0,lremp,pseudo,
133,s210,133,cooed,co,oo,oe,ed,c,o,o,e,d,,,,,,0.7540171758737415,1.0178953378926963,1.1780014138203114,1.2578969239257276,1.4178782338276505,0.0,0.0,0.0,0.0,0.0,cooed,lowwf,
134,s210,134,lucky,lu,uc,ck,ky,l,u,c,l,y,,,,,,0.7019119060132653,0.9018792510032654,1.1018946778494865,1.237846033880487,1.4937846229877323,0.0,0.0,0.0,0.0,0.0,lucly,highwf,
135,s210,135,think,th,hi,in,nk,t,h,i,n,k,,,,,,0.6578124519437551,0.7378656880464405,0.8658530218526721,1.0337429288774729,1.0817924558650702,0.0,0.0,0.0,0.0,0.0,think,highwf,
136,s210,136,theme,th,he,em,me,t,h,e,m,e,,,,,,0.6617543241009116,0.7577495239675045,0.877762250136584,0.9816757370717824,1.0617921689990908,0.0,0.0,0.0,0.0,0.0,theme,medwf,
137,s210,137,druze,dr,ru,uz,ze,d,r,u,z,e,,,,,,0.5857653450220823,0.8497651091311127,1.1456872951239347,1.3857544909697026,1.6176797091029584,0.0,0.0,0.0,0.0,0.0,druze,lowwf,
138,s210,138,faqir,fa,aq,qi,ir,f,a,q,i,e,,,,,,0.6456214201170951,0.7897170640062541,1.0936221340671182,1.2377321149688214,1.47777699213475,0.0,0.0,0.0,0.0,0.0,faqie,lowwf,
139,s210,139,vanru,va,an,nr,ru,v,a,n,r,u,,,,,,0.7058277290780097,0.84982237406075,0.9937537801451981,1.057879643049091,1.2417561730835587,0.0,0.0,0.0,0.0,0.0,vanru,pseudo,
140,s210,140,tithe,ti,it,th,he,t,i,t,h,e,,,,,,0.7577425700146705,0.8697428752202541,1.0216940951067954,1.11763082514517,1.2057508730795234,0.0,0.0,0.0,0.0,0.0,tithe,lowwf,
141,s210,141,edthe,ed,dt,th,he,e,d,t,h,e,,,,,,0.6415873439982533,0.8095484580844641,0.9696410871110857,1.113658546935767,1.1375440850388259,0.0,0.0,0.0,0.0,0.0,edthe,pseudo,
142,s210,142,would,wo,ou,ul,ld,w,o,u,l,d,,,,,,0.7817007401026785,0.9497568560764194,1.085688655031845,1.2936446859966964,1.4057180450763553,0.0,0.0,0.0,0.0,0.0,would,highwf,
143,s210,143,champ,ch,ha,am,mp,c,h,a,m,p,,,,,,0.6896740258671343,0.8095923459623009,0.9455813379026949,1.0335766959469765,1.2896945560351014,0.0,0.0,0.0,0.0,0.0,champ,medwf,
144,s210,144,zibja,zi,ib,bj,ja,z,i,b,j,a,,,,,,0.8377382440958172,1.0377408920321614,1.2777756659779698,1.3657771989237517,1.4936713511124253,0.0,0.0,0.0,0.0,0.0,zibja,pseudo,
145,s210,145,puppy,pu,up,pp,py,p,u,,,,,,,,,1.2976151630282402,1.5216077719815075,0.0,0.0,0.0,0.0,0.0,0.0,0.0,0.0,pu,medwf,
146,s210,146,buddy,bu,ud,dd,dy,b,u,d,d,y,,,,,,1.2937907169107348,1.4937169749755412,1.661791356978938,1.8058482939377427,1.9418330378830433,0.0,0.0,0.0,0.0,0.0,buddy,highwf,
147,s210,147,faqir,fa,aq,qi,ir,f,a,q,i,e,,,,,,0.6017945199273527,0.7937525031156838,1.1618370700161904,1.2817967259325087,1.4177406469825655,0.0,0.0,0.0,0.0,0.0,faqie,lowwf,
148,s210,148,puppy,pu,up,pp,py,p,u,u,p,y,,,,,,1.5169919210020453,2.1411156312096864,2.2850673731882125,2.4290002312045544,3.0369768000673503,0.0,0.0,0.0,0.0,0.0,puupy,medwf,
149,s210,149,druze,dr,ru,uz,ze,d,r,u,z,e,,,,,,0.8895739899016917,1.1296342618297786,1.4496169839985669,1.5456045009195805,1.75366981793195,0.0,0.0,0.0,0.0,0.0,druze,lowwf,
150,s210,150,tithe,ti,it,th,he,t,i,t,h,e,,,,,,0.7414864290039986,0.8454679599963129,0.9975199289619923,1.0934681249782443,1.1815725059714168,0.0,0.0,0.0,0.0,0.0,tithe,lowwf,
151,s210,151,haole,ha,ao,ol,le,h,a,o,l,e,,,,,,0.7456416010390967,0.8976561070885509,1.0336909301113337,1.2335938441101462,1.3136703330092132,0.0,0.0,0.0,0.0,0.0,haole,lowwf,
152,s210,152,therm,th,he,er,rm,t,h,e,r,m,,,,,,0.6455213220324367,0.7415657478850335,0.8695134019944817,0.9495117939077318,1.045472732046619,0.0,0.0,0.0,0.0,0.0,therm,lowwf,
153,s210,153,there,th,he,er,re,t,h,e,r,e,,,,,,0.6656163427978754,0.7856480819173157,0.9215128819923848,1.0015424208249897,1.14561672299169,0.0,0.0,0.0,0.0,0.0,there,highwf,
154,s210,154,cheer,ch,he,ee,er,c,h,e,e,r,,,,,,0.6454679949674755,0.7734448460396379,0.9014820149168372,1.02938192198053,1.1333767180331051,0.0,0.0,0.0,0.0,0.0,cheer,medwf,
155,s210,155,therm,th,he,er,rm,t,h,e,r,m,,,,,,0.6575178639031947,0.7534790649078786,0.8814453668892384,0.9534671208821237,1.0495012567844242,0.0,0.0,0.0,0.0,0.0,therm,lowwf,
156,s210,156,zibja,zi,ib,bj,ja,z,i,b,j,a,,,,,,0.7251327268313617,0.9732552799396217,1.1892504070419818,1.2692068899050355,1.3971598909702152,0.0,0.0,0.0,0.0,0.0,zibja,pseudo,
157,s210,157,therm,th,he,er,rm,t,h,e,r,m,,,,,,0.6575595340691507,0.7536041680723429,0.8736132080666721,0.9375275869388133,1.0655480150599033,0.0,0.0,0.0,0.0,0.0,therm,lowwf,
158,s210,158,lucky,lu,uc,ck,ky,l,u,c,k,y,,,,,,0.6696392199955881,0.9015750929247588,1.0616267500445247,1.1415369608439505,1.3336291080340743,0.0,0.0,0.0,0.0,0.0,lucky,highwf,
159,s210,159,theme,th,he,em,me,t,h,e,m,e,,,,,,0.6577394059859216,0.7297239650506526,0.8816776410676539,1.0016299900598824,1.3376949590165168,0.0,0.0,0.0,0.0,0.0,theme,medwf,
160,s210,160,druze,dr,ru,uz,ze,d,r,u,z,e,,,,,,0.6857189750298858,0.8537390490528196,1.0456721789669245,1.133695748867467,1.3096154669765383,0.0,0.0,0.0,0.0,0.0,druze,lowwf,
161,s210,161,edthe,ed,dt,th,he,e,d,t,h,e,,,,,,0.6417025080882013,0.8256115179974586,0.9936427630018443,1.0896161391865462,1.1696959419641644,0.0,0.0,0.0,0.0,0.0,edthe,pseudo,
162,s210,162,would,wo,ou,ul,ld,w,o,u,l,d,,,,,,0.6375558238942176,0.8055123838130385,0.9415055538993329,1.157609366811812,1.2934857718646526,0.0,0.0,0.0,0.0,0.0,would,highwf,
163,s210,163,vodka,vo,od,dk,ka,v,o,d,k,a,,,,,,0.7695857011713088,0.8975518501829356,1.0814943460281938,1.1935268871020526,1.361573258182034,0.0,0.0,0.0,0.0,0.0,vodka,medwf,
164,s210,164,druze,dr,ru,uz,ze,d,r,u,z,e,,,,,,0.908985307905823,1.0771004650741816,1.285095107043162,1.4051882319618016,1.5810318170115352,0.0,0.0,0.0,0.0,0.0,druze,lowwf,
165,s210,165,kremp,kr,re,em,mp,k,r,e,m,p,,,,,,1.1774269510060549,1.5774377018678933,1.7695209740195423,1.8814419219270349,2.22540046996437,0.0,0.0,0.0,0.0,0.0,kremp,pseudo,
166,s210,166,think,th,hi,in,nk,t,h,i,n,k,,,,,,0.6455267840065062,0.7414847281761467,0.8615255190525204,1.0454000071622431,1.1255030641332269,0.0,0.0,0.0,0.0,0.0,think,highwf,
167,s210,167,theme,th,he,em,me,t,h,e,m,e,,,,,,0.657490978948772,0.7454719441011548,0.8974496230948716,0.9854604010470212,1.1053933061193675,0.0,0.0,0.0,0.0,0.0,theme,medwf,
168,s210,168,think,th,hi,in,nk,t,h,i,n,k,,,,,,0.5653651100583375,0.7013358930125833,0.8054619368631393,0.9813864650204778,1.045433681923896,0.0,0.0,0.0,0.0,0.0,think,highwf,
169,s210,169,there,th,he,er,re,t,h,e,r,e,,,,,,0.5452458949293941,0.6652706749737263,0.8572526818607002,0.9612782588228583,1.073260520817712,0.0,0.0,0.0,0.0,0.0,there,highwf,
170,s210,170,faqir,fa,aq,qi,ir,f,a,q,i,r,,,,,,0.7094885720871389,1.0455270810052752,1.9015222019515932,2.069564430974424,2.357487709959969,0.0,0.0,0.0,0.0,0.0,faqir,lowwf,
171,s210,171,cooed,co,oo,oe,ed,c,o,o,e,d,,,,,,1.5696053360588849,1.7934736961033195,1.9615733709651977,2.1455313491169363,2.2975272750481963,0.0,0.0,0.0,0.0,0.0,cooed,lowwf,
172,s210,172,there,th,he,er,re,t,h,e,r,e,,,,,,0.5655719111673534,0.7015271841082722,0.8616171160247177,1.0055341131519526,1.1254944440443069,0.0,0.0,0.0,0.0,0.0,there,highwf,
173,s210,173,champ,ch,ha,am,mp,c,h,a,m,p,,,,,,0.7135715731419623,0.849596010055393,0.9616264670621604,1.0895097581669688,1.3695971260312945,0.0,0.0,0.0,0.0,0.0,champ,medwf,
174,s210,174,about,ab,bo,ou,ut,a,b,o,u,t,,,,,,0.5976150771602988,0.7735740581993014,1.053684329148382,1.1975784189999104,1.3416875312104821,0.0,0.0,0.0,0.0,0.0,about,highwf,
175,s210,175,buddy,bu,ud,dd,dy,b,u,d,d,y,,,,,,0.681586273945868,0.8496418579015881,1.0416478989645839,1.1935281029436737,1.2815736930351704,0.0,0.0,0.0,0.0,0.0,buddy,highwf,
176,s210,176,edthe,ed,dt,th,he,e,d,t,h,e,,,,,,0.733345576794818,0.9092511099297553,1.06934917694889,1.173359366832301,1.245367688825354,0.0,0.0,0.0,0.0,0.0,edthe,pseudo,
177,s210,177,pykka,py,yk,kk,ka,p,y,l,l,a,,,,,,1.0334693209733814,1.2254766440019011,1.6173996899742633,1.7694666220340878,1.8894615271128714,0.0,0.0,0.0,0.0,0.0,pylla,pseudo,
178,s210,178,heond,he,eo,on,nd,h,e,o,n,d,,,,,,0.7173778100404888,0.8374916610773653,0.9494944710750133,1.141505623003468,1.261438611894846,0.0,0.0,0.0,0.0,0.0,heond,pseudo,
179,s210,179,haole,ha,ao,ol,le,h,a,o,l,e,,,,,,1.0974699051585048,1.305409895023331,1.6014609690755606,1.7934174910187721,1.9214990839827806,0.0,0.0,0.0,0.0,0.0,haole,lowwf,
180,s210,180,about,ab,bo,ou,ut,a,b,o,u,t,,,,,,0.5574182528071105,0.7334181109908968,0.9654164528474212,1.117303668987006,1.2534985248930752,0.0,0.0,0.0,0.0,0.0,about,highwf,
181,s210,181,cooed,co,oo,oe,ed,c,v,o,o,e,d,,,,,0.8893015878275037,0.8973202269989997,1.0812737848609686,1.225310165900737,1.3453730538021773,1.513314913958311,0.0,0.0,0.0,0.0,cvooed,lowwf,
182,s210,182,kremp,kr,re,em,mp,k,e,r,m,o,,,,,,0.6854317970573902,0.9172954270616174,1.365421415073797,1.629343843087554,1.9334124671295285,0.0,0.0,0.0,0.0,0.0,kermo,pseudo,
183,s210,183,zibja,zi,ib,bj,ja,z,i,b,j,a,,,,,,0.7613302869722247,0.9613734809681773,1.1292234498541802,1.2252218630164862,1.3533024329226464,0.0,0.0,0.0,0.0,0.0,zibja,pseudo,
184,s210,184,cheer,ch,he,ee,er,c,h,e,e,r,,,,,,0.5734569451306015,0.7093431621324271,0.837455744156614,0.9814152291510254,1.0773965921252966,0.0,0.0,0.0,0.0,0.0,cheer,medwf,
185,s210,185,puppy,pu,up,pp,py,p,u,p,p,y,,,,,,1.3289203790482134,1.576880221022293,1.849038630956784,1.9849799061194062,2.280897340970114,0.0,0.0,0.0,0.0,0.0,puppy,medwf,
186,s210,186,faqir,fa,aq,qi,ir,f,a,q,i,r,,,,,,0.6855601700954139,0.8695410198997706,1.2136672521010041,1.421538257971406,1.6295381130184978,0.0,0.0,0.0,0.0,0.0,faqir,lowwf,
187,s210,187,belly,be,el,ll,ly,b,e,l,l,y,,,,,,0.7054534368216991,1.0013241528067738,1.1454013239126652,1.2894459329545498,1.4734333499800414,0.0,0.0,0.0,0.0,0.0,belly,medwf,
188,s210,188,cheer,ch,he,ee,er,c,h,e,e,r,,,,,,0.6292863998096436,0.7333647708874196,0.9172547939233482,1.0453468488994986,1.1413839010056108,0.0,0.0,0.0,0.0,0.0,cheer,medwf,
189,s210,189,puppy,pu,up,pp,py,p,u,u,p,y,,,,,,0.9293309871573001,1.2413954981602728,1.4654076860751957,1.6973726782016456,2.7534349411726,0.0,0.0,0.0,0.0,0.0,puupy,medwf,
190,s210,190,vodka,vo,od,dk,ka,v,o,k,a,,,,,,,0.8693093690089881,1.0931853700894862,1.4452704370487481,1.6133011861238629,0.0,0.0,0.0,0.0,0.0,0.0,voka,medwf,
191,s210,191,belly,be,el,ll,ly,b,e,l,l,y,,,,,,0.6254461810458452,0.881355781108141,1.0092733150813729,1.161379775032401,1.2574082389473915,0.0,0.0,0.0,0.0,0.0,belly,medwf,
192,s210,192,vodka,vo,od,dk,ka,v,o,d,k,a,,,,,,0.8292814129963517,0.9493479570373893,1.1254434341099113,1.2216283450834453,1.3812857519369572,0.0,0.0,0.0,0.0,0.0,vodka,medwf,
193,s210,193,belly,be,el,ll,ly,b,e,l,l,y,,,,,,0.721277168020606,0.8972081639803946,0.9852684498764575,1.1291865399107337,1.233221207978204,0.0,0.0,0.0,0.0,0.0,belly,medwf,
194,s210,194,vanru,va,an,nr,ru,v,a,n,r,u,,,,,,0.7572227050550282,0.8931894660927355,1.0132619459182024,1.1253400389105082,1.2931968979537487,0.0,0.0,0.0,0.0,0.0,vanru,pseudo,
195,s210,195,lucky,lu,uc,ck,ky,l,u,c,k,y,,,,,,1.4810949100647122,1.6811099068727344,1.841156539041549,1.9131132969632745,2.113085509976372,0.0,0.0,0.0,0.0,0.0,lucky,highwf,
196,s210,196,vanru,va,an,nr,ru,v,a,n,r,u,,,,,,0.6453886760864407,0.8213705660309643,0.9734076850581914,1.0933097980450839,1.245507223997265,0.0,0.0,0.0,0.0,0.0,vanru,pseudo,
197,s210,197,buddy,bu,ud,dd,dy,b,u,d,d,y,,,,,,0.7054030580911785,0.8653806671500206,1.113383914111182,1.2813487111125141,1.3293486300390214,0.0,0.0,0.0,0.0,0.0,buddy,highwf,
198,s210,198,vanru,va,an,nr,ru,v,a,n,r,u,,,,,,0.685440466972068,0.8534698449075222,1.0054218200966716,1.1013456210494041,1.2773396431002766,0.0,0.0,0.0,0.0,0.0,vanru,pseudo,
199,s210,199,heond,he,eo,on,nd,h,e,o,n,d,,,,,,0.6814303221181035,0.8494537090882659,0.9454188500531018,1.145483525004238,1.2974794870242476,0.0,0.0,0.0,0.0,0.0,heond,pseudo,
200,s210,200,belly,be,el,ll,ly,b,e,l,l,y,,,,,,0.6133200670592487,0.861226457869634,0.9253196800127625,1.0932257568929344,1.213264969876036,0.0,0.0,0.0,0.0,0.0,belly,medwf,
201,s210,201,tithe,ti,it,th,he,t,i,t,h,e,,,,,,0.7613612471614033,0.8733491420280188,1.0254502680618316,1.1455002520233393,1.2413500901311636,0.0,0.0,0.0,0.0,0.0,tithe,lowwf,
202,s210,202,champ,ch,ha,am,mp,c,h,a,m,o,p,,,,,0.6051755480002612,0.7172035910189152,0.845313907135278,0.9413027560804039,1.1171784789767116,1.1332897790707648,0.0,0.0,0.0,0.0,chamop,medwf,
203,s210,203,edthe,ed,dt,th,he,e,d,t,h,e,,,,,,0.6411759168840945,0.8171219890937209,0.9931334280408919,1.1132294950075448,1.2011176419910043,0.0,0.0,0.0,0.0,0.0,edthe,pseudo,
204,s210,204,haole,ha,ao,ol,le,h,a,o,l,e,,,,,,0.5971041270531714,0.7650812480133027,0.925003525102511,1.092993135098368,1.2130810429807752,0.0,0.0,0.0,0.0,0.0,haole,lowwf,
205,s210,205,pykka,py,yk,kk,ka,p,y,k,k,a,,,,,,0.8971106850076467,1.0971513539552689,1.5131292440928519,1.6491476781666279,1.8010430049616843,0.0,0.0,0.0,0.0,0.0,pykka,pseudo,
206,s210,206,therm,th,he,er,rm,t,h,e,r,m,,,,,,0.6052597791422158,0.7332407981157303,0.8532175091095269,0.9652374731376767,1.0612155951093882,0.0,0.0,0.0,0.0,0.0,therm,lowwf,
207,s210,207,faqir,fa,aq,qi,ir,f,a,q,i,r,,,,,,0.6492059219162911,0.8331987268757075,1.0971368718892336,1.2732174759730697,1.4811049508862197,0.0,0.0,0.0,0.0,0.0,faqir,lowwf,
208,s210,208,haole,ha,ao,ol,le,h,a,o,l,e,,,,,,0.6210004221647978,0.7890982332173735,0.9250789270736277,1.085026168031618,1.1970586772076786,0.0,0.0,0.0,0.0,0.0,haole,lowwf,
209,s210,209,cheer,ch,he,ee,er,c,h,e,e,r,,,,,,0.608945783926174,0.7450034369248897,0.8729764779563993,1.009023566963151,1.0890206429176033,0.0,0.0,0.0,0.0,0.0,cheer,medwf,
210,s210,210,haole,ha,ao,ol,le,h,a,o,l,e,,,,,,0.5652100169099867,0.7092693508602679,0.8451991300098598,1.0212261159904301,1.1332039888948202,0.0,0.0,0.0,0.0,0.0,haole,lowwf,
211,s210,211,belly,be,el,ll,ly,b,e,l,l,y,,,,,,0.6491073451470584,0.8491469020955265,0.9851565931458026,1.1371123630087823,1.2091088651213795,0.0,0.0,0.0,0.0,0.0,belly,medwf,
212,s210,212,would,wo,ou,ul,ld,w,o,i,u,l,d,,,,,0.7011148021556437,0.8851173070725054,1.0211969891097397,1.0291523921769112,1.3251782460138202,1.43723816704005,0.0,0.0,0.0,0.0,woiuld,highwf,
213,s210,213,theme,th,he,em,me,t,h,e,m,e,,,,,,0.5851343281101435,0.6731128371320665,0.8571285500656813,0.9131946840789169,1.0651810611598194,0.0,0.0,0.0,0.0,0.0,theme,medwf,
214,s210,214,heond,he,eo,on,nd,h,e,o,n,d,,,,,,0.6292587358038872,0.7973193437792361,0.8533654659986496,1.0694360679481179,1.1813742897938937,0.0,0.0,0.0,0.0,0.0,heond,pseudo,
215,s210,215,edthe,ed,dt,th,he,e,d,t,h,e,,,,,,0.6011894650291651,0.7692991879303008,0.9292761390097439,1.0493716809432954,1.1373206339776516,0.0,0.0,0.0,0.0,0.0,edthe,pseudo,
216,s210,216,lucky,lu,uc,ck,ky,l,u,c,k,y,,,,,,0.5969289329368621,0.8288502998184413,0.9969733809120953,1.0849634630139917,1.3008479189593345,0.0,0.0,0.0,0.0,0.0,lucky,highwf,
217,s210,217,kremp,kr,re,em,mp,k,r,e,m,p,o,,,,,0.6403959430754185,0.8403494600206614,1.0082894801162183,1.0643925410695374,1.3763461171183735,1.3842895331326872,0.0,0.0,0.0,0.0,krempo,pseudo,
218,s210,218,think,th,hi,in,nk,t,h,i,n,k,,,,,,0.9010506719350815,1.021044431021437,1.1571764999534935,1.3251137868501246,1.4131235610693693,0.0,0.0,0.0,0.0,0.0,think,highwf,
219,s210,219,about,ab,bo,ou,ut,a,b,o,u,t,,,,,,0.6331903070677072,0.7611562500242144,0.9452113329898566,1.105218973942101,1.2010695829521865,0.0,0.0,0.0,0.0,0.0,about,highwf,
220,s210,220,theme,th,he,em,me,t,h,e,m,e,,,,,,0.5970568340271711,0.7009553601965308,0.8610371460672468,0.9089703501667827,1.069055441999808,0.0,0.0,0.0,0.0,0.0,theme,medwf,
221,s210,221,lucky,lu,uc,ck,ky,l,u,c,k,y,,,,,,0.5610790709033608,0.7690097789745778,0.8809748399071395,1.0089306789450347,1.2169215038884431,0.0,0.0,0.0,0.0,0.0,lucky,highwf,
222,s210,222,about,ab,bo,ou,ut,a,b,o,u,t,,,,,,0.6290713460184634,0.7810306379105896,1.0130257669370621,1.1410720879212022,1.2770101961214095,0.0,0.0,0.0,0.0,0.0,about,highwf,
223,s210,223,therm,th,he,er,rm,t,h,e,r,m,,,,,,0.6090680740308017,0.705163137987256,0.8651935320813209,0.98504742491059,1.0890613340307027,0.0,0.0,0.0,0.0,0.0,therm,lowwf,
224,s210,224,pykka,py,yk,kk,ka,p,y,k,k,a,,,,,,0.8770913030020893,1.0851969190407544,1.5091652609407902,1.6531599869485945,1.7732323640957475,0.0,0.0,0.0,0.0,0.0,pykka,pseudo,
225,s210,225,kremp,kr,re,em,mp,k,r,e,m,p,,,,,,0.729122269898653,0.9851623268332332,1.1371691979002208,1.2010551858693361,1.4491102588362992,0.0,0.0,0.0,0.0,0.0,kremp,pseudo,
226,s210,226,zibja,zi,ib,bj,ja,z,i,b,j,a,,,,,,0.740836429875344,0.9969251740258187,1.1888830228708684,1.3087966018356383,1.4449100168421865,0.0,0.0,0.0,0.0,0.0,zibja,pseudo,
227,s210,227,would,wo,ou,ul,ld,w,o,u,l,d,s,,,,,0.9052203870378435,1.1052188810426742,1.2332173131871969,1.5211855340749025,1.7050947011448443,1.713181319180876,0.0,0.0,0.0,0.0,woulds,highwf,
228,s210,228,tithe,ti,it,th,he,t,i,t,h,e,,,,,,0.6530169111210853,0.7810298029799014,0.9970448480453342,1.1009351429529488,1.1970657631754875,0.0,0.0,0.0,0.0,0.0,tithe,lowwf,
229,s210,229,cooed,co,oo,oe,ed,c,o,o,e,d,,,,,,0.7690295360516757,1.0570193950552493,1.2089385481085628,1.3129668170586228,1.4809509511105716,0.0,0.0,0.0,0.0,0.0,cooed,lowwf,
230,s210,230,there,th,he,er,re,t,h,e,r,e,,,,,,0.7569372199941427,0.8689632180612534,1.0129013119731098,1.1088610999286175,1.2369543630629778,0.0,0.0,0.0,0.0,0.0,there,highwf,
231,s210,231,would,wo,ou,ul,ld,w,o,u,l,d,,,,,,0.6330166419502348,0.7929171409923583,0.8890458669047803,1.112925010966137,1.2650154768489301,0.0,0.0,0.0,0.0,0.0,would,highwf,
232,s210,232,think,th,hi,in,nk,t,h,i,n,k,,,,,,0.620924178045243,0.756889367941767,0.8449739508796483,1.0208527250215411,1.0928787670563906,0.0,0.0,0.0,0.0,0.0,think,highwf,
233,s210,233,zibja,zi,ib,bj,ja,a,z,z,i,b,j,a,,,,0.7290773710701615,0.7850771869998425,0.9371063569560647,1.2090166308917105,1.4009796280879527,1.4730983909685165,1.6250017900019884,0.0,0.0,0.0,azzibja,pseudo,
234,s210,234,pykka,py,yk,kk,ka,p,y,l,k,k,a,d,h,l,h,0.8849956521298736,1.0690022390335798,1.4369772269856185,1.6210108629893512,1.788969952147454,1.9329852981027216,2.052964420057833,2.220984643092379,2.356911184033379,2.3969766430091113,pylkkadhlh,pseudo,
235,s210,235,there,th,he,er,re,t,h,e,r,e,,,,,,0.6489911270327866,0.7610616940073669,0.9050558679737151,1.0009377759415656,1.0970609011128545,0.0,0.0,0.0,0.0,0.0,there,highwf,
236,s210,236,about,ab,bo,ou,ut,a,b,o,u,t,,,,,,0.6210502721369267,0.7970126871950924,1.005017199087888,1.148962370119989,1.2929231610614806,0.0,0.0,0.0,0.0,0.0,about,highwf,
237,s210,237,vodka,vo,od,dk,ka,c,v,o,k,d,a,,,,,0.7290749410167336,0.7610109320376068,1.200961622176692,1.4489945471286774,1.5769581301137805,1.7129954770207405,0.0,0.0,0.0,0.0,cvokda,medwf,
238,s210,238,champ,ch,ha,am,mp,c,h,a,m,o,p,,,,,0.6190618299879134,0.7629831209778786,0.8909474310930818,0.9950301779899746,1.195026946021244,1.2190465859603137,0.0,0.0,0.0,0.0,chamop,medwf,
239,s210,239,buddy,bu,ud,dd,dy,b,u,d,d,y,,,,,,0.8970208009704947,1.080928476061672,1.2649416911881417,1.4249994361307472,1.5130339809693396,0.0,0.0,0.0,0.0,0.0,buddy,highwf,
