,sID,Trial #,string,bi_1,bi_2,bi_3,bi_4,key_resp.keys.1,key_resp.keys.2,key_resp.keys.3,key_resp.keys.4,key_resp.keys.5,key_resp.keys.6,key_resp.keys.7,key_resp.keys.8,key_resp.rt.1,key_resp.rt.2,key_resp.rt.3,key_resp.rt.4,key_resp.rt.5,key_resp.rt.6,key_resp.rt.7,key_resp.rt.8,resp_string,WF Type,BF Type
0,s212,0,theme,th,he,em,me,t,h,e,m,e,,,,1.0233346042223275,1.0954597699455917,1.24738316424191,1.3833992332220078,1.503420194145292,0.0,0.0,0.0,theme,medwf,highbf
1,s212,1,puppy,pu,up,pp,py,p,u,p,p,y,,,,1.011618149932474,1.299629958346486,1.531584168318659,1.691643173340708,1.7956972722895443,0.0,0.0,0.0,puppy,medwf,lowbf
2,s212,2,lucky,lu,uc,ck,ky,l,u,c,k,y,,,,0.8635305017232895,1.095540465787053,1.303587831556797,1.447510935831815,1.6555494386702776,0.0,0.0,0.0,lucky,highwf,lowbf
3,s212,3,about,ab,bo,ou,ut,a,b,o,u,t,,,,0.77934659877792,0.9232816137373447,1.107348816934973,1.2833487018942833,1.4272750858217478,0.0,0.0,0.0,about,highwf,medbf
4,s212,4,there,th,he,er,re,t,h,e,r,e,,,,0.8634989387355745,0.999424003995955,1.111412941943854,1.2713323920033872,1.431345340795815,0.0,0.0,0.0,there,highwf,highbf
5,s212,5,lucky,lu,uc,ck,ky,l,u,c,k,y,,,,0.7712925099767745,0.9792356821708381,1.0754127679392695,1.219353285152465,1.427232779096812,0.0,0.0,0.0,lucky,highwf,lowbf
6,s212,6,puppy,pu,up,pp,py,p,u,p,p,y,,,,1.2473270958289504,1.543257197830826,1.799370912835002,1.951270590070635,2.063319351989776,0.0,0.0,0.0,puppy,medwf,lowbf
7,s212,7,druze,dr,ru,uz,ze,d,r,u,x,z,e,,,1.075299996882677,1.4272805009968579,1.5312520531006157,1.9473518677987158,1.9554075468331575,2.5233119088225067,0.0,0.0,druxze,lowwf,lowbf
8,s212,8,heond,he,eo,on,nd,h,e,o,n,d,,,,1.0713050249032676,1.2392200762405992,1.3913114978931844,1.6792219998314977,1.8472886220552027,0.0,0.0,0.0,heond,pseudo,highbf
9,s212,9,buddy,bu,ud,dd,dy,b,u,d,d,y,,,,1.115331212989986,1.347335949074477,1.6272238190285861,1.8272220147773623,1.98732930701226,0.0,0.0,0.0,buddy,highwf,lowbf
10,s212,10,about,ab,bo,ou,ut,a,b,o,u,t,,,,0.9031958044506609,1.0311303921043873,1.2390875122509897,1.3751649344339967,1.5032628532499075,0.0,0.0,0.0,about,highwf,medbf
11,s212,11,would,wo,ou,ul,ld,w,o,u,l,d,,,,0.8509172149933875,0.9950055601075292,1.1710001579485834,1.3470252831466496,1.4589211591519415,0.0,0.0,0.0,would,highwf,medbf
12,s212,12,think,th,hi,in,nk,t,h,i,n,k,,,,0.7193427300080657,0.8312883549369872,1.0313093699514866,1.1833690209314227,1.3672519349493086,0.0,0.0,0.0,think,highwf,highbf
13,s212,13,therm,th,he,er,rm,t,h,e,r,m,,,,0.8114456562325358,0.9474749253131449,1.1074900110252202,1.2754216673783958,1.4273717179894447,0.0,0.0,0.0,therm,lowwf,highbf
14,s212,14,vodka,vo,od,dk,ka,v,o,d,k,a,,,,1.2229970498010516,1.3909047567285597,1.5989263718947768,1.7189448988065124,1.8872221987694502,0.0,0.0,0.0,vodka,medwf,lowbf
15,s212,15,therm,th,he,er,rm,t,h,e,r,m,,,,0.8352366448380053,0.9393434980884194,1.123259746003896,1.2593081891536713,1.4193594930693507,0.0,0.0,0.0,therm,lowwf,highbf
16,s212,16,cheer,ch,he,ee,er,c,h,e,e,r,,,,0.7755371541716158,0.92742181988433,1.0794094111770391,1.3274649530649185,1.5593897961080074,0.0,0.0,0.0,cheer,medwf,highbf
17,s212,17,edthe,ed,dt,th,he,e,d,t,h,e,,,,1.0912061240524054,1.299227376934141,1.5072463741526008,1.635296600870788,1.8111934219487011,0.0,0.0,0.0,edthe,pseudo,highbf
18,s212,18,lucky,lu,uc,ck,ky,l,u,c,k,y,,,,0.7591625959612429,0.9832795541733503,1.0953287482261658,1.2153585869818926,1.399276473093778,0.0,0.0,0.0,lucky,highwf,lowbf
19,s212,19,vanru,va,an,nr,ru,v,a,n,r,u,,,,1.0031216642819345,1.1390813272446394,1.2749594850465655,1.4509542449377477,1.6269677560776472,0.0,0.0,0.0,vanru,pseudo,medbf
20,s212,20,buddy,bu,ud,dd,dy,b,u,d,d,y,,,,0.8151673022657633,1.0631129713729024,1.3031853423453867,1.4791091810911894,1.5911361272446811,0.0,0.0,0.0,buddy,highwf,lowbf
21,s212,21,about,ab,bo,ou,ut,a,b,o,u,t,,,,0.6993789789266884,0.8272994281724095,1.0114247919991612,1.1553576770238578,1.2753770421259105,0.0,0.0,0.0,about,highwf,medbf
22,s212,22,heond,he,eo,on,nd,h,e,o,n,d,,,,1.703205092344433,1.8231924450956285,2.0231599560938776,2.167070033028722,2.30319903511554,0.0,0.0,0.0,heond,pseudo,highbf
23,s212,23,edthe,ed,dt,th,he,e,d,t,h,e,,,,1.0352180688641965,1.235260535031557,1.4670977056957781,1.6192826479673386,1.7631008909083903,0.0,0.0,0.0,edthe,pseudo,highbf
24,s212,24,kremp,kr,re,em,mp,k,r,e,m,p,,,,0.9671218390576541,1.3192548211663961,1.50326444581151,1.6072477661073208,1.7751949159428477,0.0,0.0,0.0,kremp,pseudo,medbf
25,s212,25,cheer,ch,he,ee,er,c,h,e,e,r,,,,0.7872751951217651,0.9392639910802245,1.2032365491613746,1.3791535813361406,1.5952375889755785,0.0,0.0,0.0,cheer,medwf,highbf
26,s212,26,kremp,kr,re,em,mp,k,r,e,m,p,,,,0.895421733148396,1.0153714548796415,1.1833416409790516,1.34326151618734,1.535391562152654,0.0,0.0,0.0,kremp,pseudo,medbf
27,s212,27,vanru,va,an,nr,ru,v,a,n,r,u,,,,1.1154031562618911,1.2354638860560954,1.371315031312406,1.5154362469911575,1.6194597813300788,0.0,0.0,0.0,vanru,pseudo,medbf
28,s212,28,theme,th,he,em,me,t,h,e,m,e,,,,0.7192749669775367,0.8072746233083308,0.9511474859900773,1.0551374442875385,1.1511463192291558,0.0,0.0,0.0,theme,medwf,highbf
29,s212,29,druze,dr,ru,uz,ze,d,r,u,z,e,,,,0.8833830608054996,1.075273665599525,1.2114413599483669,1.5313071636483073,1.739262812770903,0.0,0.0,0.0,druze,lowwf,lowbf
30,s212,30,belly,be,el,ll,ly,b,e,l,l,y,,,,0.7751294830814004,0.8790759900584817,1.039139102678746,1.1991652897559106,1.2870846521109343,0.0,0.0,0.0,belly,medwf,medbf
31,s212,31,faqir,fa,aq,qi,ir,f,a,q,i,r,,,,0.9304733760654926,1.1465751780197024,1.8025914994068444,2.930531037040055,3.042454115115106,0.0,0.0,0.0,faqir,lowwf,lowbf
32,s212,32,tithe,ti,it,th,he,t,i,t,h,e,,,,1.1669636061415076,1.255103625357151,1.3911074590869248,1.519115811213851,1.687088621314615,0.0,0.0,0.0,tithe,lowwf,highbf
33,s212,33,cooed,co,oo,oe,ed,c,o,o,e,d,,,,0.7790731568820775,0.9951073783449829,1.155162500217557,1.2430510451085865,1.45104106888175,0.0,0.0,0.0,cooed,lowwf,medbf
34,s212,34,haole,ha,ao,ol,le,h,a,o,l,e,,,,1.0150384055450559,1.1189910229295492,1.2789936466142535,1.526966666802764,1.631031719967723,0.0,0.0,0.0,haole,lowwf,medbf
35,s212,35,zibja,zi,ib,bj,ja,z,i,b,j,a,,,,1.3870499623008072,1.4750686548650265,1.6750686601735651,1.8429636200889945,1.978956290986389,0.0,0.0,0.0,zibja,pseudo,lowbf
36,s212,36,tithe,ti,it,th,he,t,i,t,h,e,,,,0.790984489955008,0.886967146769166,1.0309087689965963,1.1508624949492514,1.2949944967404008,0.0,0.0,0.0,tithe,lowwf,highbf
37,s212,37,champ,ch,ha,am,mp,c,h,a,m,p,,,,0.794871864374727,0.91487154411152,1.0029356232844293,1.1628911751322448,1.3788137203082442,0.0,0.0,0.0,champ,medwf,medbf
38,s212,38,vanru,va,an,nr,ru,v,a,n,r,u,,,,0.9912244249135256,1.1271098712459207,1.271190342027694,1.4071982689201832,1.543110195081681,0.0,0.0,0.0,vanru,pseudo,medbf
39,s212,39,therm,th,he,er,rm,t,h,e,r,m,,,,0.7150483299046755,0.8270889925770462,0.9791227108798921,1.1231168457306921,1.259071216918528,0.0,0.0,0.0,therm,lowwf,highbf
40,s212,40,lucky,lu,uc,ck,ky,l,u,c,k,y,,,,0.7192315561696887,0.9270896431989968,1.0232066940516233,1.1671328567899764,1.375173264183104,0.0,0.0,0.0,lucky,highwf,lowbf
41,s212,41,haole,ha,ao,ol,le,h,a,o,l,e,,,,0.8432496385648847,0.9792417888529599,1.0833611385896802,1.2833569357171655,1.4033213355578482,0.0,0.0,0.0,haole,lowwf,medbf
42,s212,42,vanru,va,an,nr,ru,v,a,n,r,u,,,,0.8791890447027981,1.0311552956700325,1.1510864738374949,1.3191632949747145,1.4232184579595923,0.0,0.0,0.0,vanru,pseudo,medbf
43,s212,43,there,th,he,er,re,t,h,e,r,e,,,,0.7152514820918441,0.8112019500695169,0.9472627271898091,1.0752722821198404,1.2591439811512828,0.0,0.0,0.0,there,highwf,highbf
44,s212,44,kremp,kr,re,em,mp,k,r,e,m,p,,,,0.9110806412063539,1.0070821200497448,1.1669535841792822,1.303026004228741,1.510967274196446,0.0,0.0,0.0,kremp,pseudo,medbf
45,s212,45,about,ab,bo,ou,ut,a,b,o,u,t,,,,0.6508701327256858,0.7949632541276515,0.97100251307711,1.1149562578648329,1.2428800398483872,0.0,0.0,0.0,about,highwf,medbf
46,s212,46,there,th,he,er,re,t,h,e,r,e,,,,0.6870386488735676,0.8230351759120822,0.9750193180516362,1.103000178001821,1.2789881601929665,0.0,0.0,0.0,there,highwf,highbf
47,s212,47,think,th,hi,in,nk,t,h,i,n,k,,,,0.7311688531190157,0.8751116381026804,1.0670998259447515,1.2430899320170283,1.4031777568161488,0.0,0.0,0.0,think,highwf,highbf
48,s212,48,faqir,fa,aq,qi,ir,f,a,q,i,r,,,,1.0470449458807707,1.2550565698184073,1.7909495937637985,1.9590057847090065,2.190936258994043,0.0,0.0,0.0,faqir,lowwf,lowbf
49,s212,49,theme,th,he,em,me,t,h,e,m,e,,,,0.7309748758561909,0.8588893059641123,1.01099520502612,1.2509001959115267,1.4030314777046442,0.0,0.0,0.0,theme,medwf,highbf
50,s212,50,puppy,pu,up,pp,py,p,u,p,p,y,,,,0.7988185696303844,1.030791130848229,1.2468008706346154,1.414800667669624,1.6228690748102963,0.0,0.0,0.0,puppy,medwf,lowbf
51,s212,51,champ,ch,ha,am,mp,c,h,a,m,p,,,,0.8747631870210171,0.9626662177033722,1.122776169795543,1.2347394018433988,1.3867448568344116,0.0,0.0,0.0,champ,medwf,medbf
52,s212,52,vodka,vo,od,dk,ka,v,o,d,k,a,,,,0.8712028530426323,1.0471860151737928,1.4710786743089557,1.5831759553402662,1.73514703521505,0.0,0.0,0.0,vodka,medwf,lowbf
53,s212,53,cheer,ch,he,ee,er,c,h,e,e,r,,,,0.6590067818760872,0.8111397251486778,0.955112683121115,1.1790521470829844,1.3711359151639044,0.0,0.0,0.0,cheer,medwf,highbf
54,s212,54,champ,ch,ha,am,mp,c,h,a,m,p,,,,0.678733745124191,0.7907685530371964,0.9266590429469943,1.062774654943496,1.270754598081112,0.0,0.0,0.0,champ,medwf,medbf
55,s212,55,zibja,zi,ib,bj,ja,z,i,b,j,a,,,,1.2751591908745468,1.3790392512455583,1.5711264829151332,1.7710776599124074,1.9551483439281583,0.0,0.0,0.0,zibja,pseudo,lowbf
56,s212,56,cooed,co,oo,oe,ed,c,o,o,e,d,,,,0.7667499734088778,0.9748328542336822,1.134788288269192,1.2468251790851355,1.4387733130715787,0.0,0.0,0.0,cooed,lowwf,medbf
57,s212,57,vodka,vo,od,dk,ka,v,o,d,k,a,,,,1.0830182102508843,1.2349275569431484,1.4589505172334611,1.6269407020881772,1.7870379439555109,0.0,0.0,0.0,vodka,medwf,lowbf
58,s212,58,haole,ha,ao,ol,le,h,a,o,l,e,,,,0.9588201539590955,1.0869409553706646,1.2069234950467944,1.3988864193670452,1.5349146910011768,0.0,0.0,0.0,haole,lowwf,medbf
59,s212,59,would,wo,ou,ul,ld,w,o,u,l,d,,,,1.0588509631343186,1.178951843176037,1.3469115472398698,1.5709254993125796,1.6909521301276982,0.0,0.0,0.0,would,highwf,medbf
60,s212,60,theme,th,he,em,me,t,h,e,m,e,,,,0.6708669411018491,0.7667527431622148,0.9108123281039298,0.9988360349088907,1.118884779047221,0.0,0.0,0.0,theme,medwf,highbf
61,s212,61,cooed,co,oo,oe,ed,c,o,o,e,d,,,,0.6988956066779792,0.9068634486757219,1.0749631356447935,1.1869230060838163,1.394925250671804,0.0,0.0,0.0,cooed,lowwf,medbf
62,s212,62,vanru,va,an,nr,ru,v,a,n,r,u,,,,1.0548881492577493,1.1748941633850336,1.310888817999512,1.5109327849932015,1.6308337301015854,0.0,0.0,0.0,vanru,pseudo,medbf
63,s212,63,buddy,bu,ud,dd,dy,b,u,d,d,y,,,,0.8587016239762306,1.0427007800899446,1.346761189866811,1.5147694456391037,1.6187812187708914,0.0,0.0,0.0,buddy,highwf,lowbf
64,s212,64,tithe,ti,it,th,he,t,i,t,h,e,,,,0.8465734622441232,0.9265442132018507,1.0945897372439504,1.2145921192131937,1.4066261681728065,0.0,0.0,0.0,tithe,lowwf,highbf
65,s212,65,about,ab,bo,ou,ut,a,b,o,u,t,,,,0.7789456471800804,0.8909384268335998,1.0909278611652553,1.2348529710434377,1.3469834048300982,0.0,0.0,0.0,about,highwf,medbf
66,s212,66,champ,ch,ha,am,mp,c,h,a,m,p,,,,0.6709821568801999,0.8389734760858119,0.9749797009862959,1.086984084919095,1.2549217948690057,0.0,0.0,0.0,champ,medwf,medbf
67,s212,67,heond,he,eo,on,nd,h,e,o,n,d,,,,0.8509255377575755,1.0269606211222708,1.1470282189548016,1.322990344837308,1.4910310227423906,0.0,0.0,0.0,heond,pseudo,highbf
68,s212,68,think,th,hi,in,nk,t,h,i,n,k,,,,0.7509013148956001,0.8390272818505764,1.1190229295752943,1.1750247878953815,1.3349657086655498,0.0,0.0,0.0,think,highwf,highbf
69,s212,69,would,wo,ou,ul,ld,w,o,u,l,d,,,,0.7629514299333096,0.8748937197960913,1.0669751279056072,1.242880626115948,1.32299317792058,0.0,0.0,0.0,would,highwf,medbf
70,s212,70,theme,th,he,em,me,t,h,m,e,,,,,0.6788789420388639,0.766875381115824,1.0308857271447778,1.2229170673526824,0.0,0.0,0.0,0.0,thme,medwf,highbf
71,s212,71,zibja,zi,ib,bj,ja,z,i,b,j,a,,,,1.2668112819083035,1.3708628481253982,1.5468571311794221,1.7307473588734865,1.8908402118831873,0.0,0.0,0.0,zibja,pseudo,lowbf
72,s212,72,edthe,ed,dt,th,he,e,d,t,h,e,,,,1.022871389053762,1.2469814140349627,1.4949532337486744,1.6069787950254977,1.7829805850051343,0.0,0.0,0.0,edthe,pseudo,highbf
73,s212,73,belly,be,el,ll,ly,b,e,l,l,y,,,,0.7390403770841658,0.8910295772366226,1.018919738009572,1.1870444440282881,1.2990443599410355,0.0,0.0,0.0,belly,medwf,medbf
74,s212,74,faqir,fa,aq,qi,ir,f,a,q,i,r,,,,1.0227565108798444,1.1907234508544207,1.6707461620680988,2.2867293981835246,2.3986851600930095,0.0,0.0,0.0,faqir,lowwf,lowbf
75,s212,75,pykka,py,yk,kk,ka,p,y,k,k,a,,,,0.8748797220177948,1.178897044621408,1.4668710487894714,1.6507608406245708,1.7868507159873843,0.0,0.0,0.0,pykka,pseudo,lowbf
76,s212,76,there,th,he,er,re,t,h,e,r,e,,,,0.6707394332624972,0.8066705539822578,0.9506485471501946,1.1106566470116377,1.2626563552767038,0.0,0.0,0.0,there,highwf,highbf
77,s212,77,druze,dr,ru,uz,ze,d,r,u,z,e,,,,0.9788715648464859,1.1949001871980727,1.3308440712280571,1.6427629739046097,1.8908766200765967,0.0,0.0,0.0,druze,lowwf,lowbf
78,s212,78,zibja,zi,ib,bj,ja,z,i,b,j,a,,,,1.4389042081311345,1.574902273248881,1.7588579612784088,1.9108066633343697,2.030895376112312,0.0,0.0,0.0,zibja,pseudo,lowbf
79,s212,79,therm,th,he,er,rm,t,h,e,r,m,,,,0.770933564286679,0.8908884390257299,1.0268056374043226,1.1709063262678683,1.3228765320964158,0.0,0.0,0.0,therm,lowwf,highbf
80,s212,80,puppy,pu,up,pp,py,p,u,p,p,y,,,,1.0627619456499815,1.3347611110657454,1.5748624447733164,1.742755735758692,1.9028382417745888,0.0,0.0,0.0,puppy,medwf,lowbf
81,s212,81,zibja,zi,ib,bj,ja,z,i,b,j,a,,,,1.0830081407912076,1.194987618830055,1.362913514021784,1.5550122587010264,1.691010836046189,0.0,0.0,0.0,zibja,pseudo,lowbf
82,s212,82,belly,be,el,ll,ly,b,e,l,l,y,,,,0.8227418139576912,1.0068693249486387,1.1107483692467213,1.2788065681234002,1.4068511668592691,0.0,0.0,0.0,belly,medwf,medbf
83,s212,83,heond,he,eo,on,nd,h,e,o,n,d,,,,0.9549496551044285,1.0829579131677747,1.2189786368981004,1.3870077319443226,1.5709411739371717,0.0,0.0,0.0,heond,pseudo,highbf
84,s212,84,think,th,hi,in,nk,t,h,i,n,k,,,,0.8786714221350849,0.9906084141694009,1.1746836402453482,1.35869409609586,1.542603511363268,0.0,0.0,0.0,think,highwf,highbf
85,s212,85,pykka,py,yk,kk,ka,p,y,k,k,a,,,,0.8586855540052056,1.1467027910985053,1.4426070721819997,1.6187261771410704,1.7867277888581157,0.0,0.0,0.0,pykka,pseudo,lowbf
86,s212,86,vodka,vo,od,dk,ka,v,o,d,k,a,a,,,1.718665957916528,1.9585857759229839,2.4545839647762477,2.6066880971193314,2.8545995210297406,2.950577742885798,0.0,0.0,vodkaa,medwf,lowbf
87,s212,87,therm,th,he,er,rm,t,h,e,m,r,,,,0.7227684208191931,0.8027459396980703,0.9867833806201816,1.1546496907249093,1.1626916630193591,0.0,0.0,0.0,themr,lowwf,highbf
88,s212,88,would,wo,ou,ul,ld,w,o,u,l,d,,,,0.8306537820026278,0.9265788220800459,1.0946273691952229,1.2707173530943692,1.390601612161845,0.0,0.0,0.0,would,highwf,medbf
89,s212,89,cooed,co,oo,oe,ed,c,o,o,e,d,,,,0.7706930129788816,0.9625658630393445,1.1306469892151654,1.2425521230325103,1.466681052930653,0.0,0.0,0.0,cooed,lowwf,medbf
90,s212,90,faqir,fa,aq,qi,ir,f,a,q,i,e,,,,0.9585761623457074,1.1264714673161507,1.5985445831902325,1.7745879562571645,1.926458468195051,0.0,0.0,0.0,faqie,lowwf,lowbf
91,s212,91,kremp,kr,re,em,mp,k,r,e,m,p,,,,1.0668540759943426,1.1548520820215344,1.3228516271337867,1.4507317692041397,1.6427286020480096,0.0,0.0,0.0,kremp,pseudo,medbf
92,s212,92,lucky,lu,uc,ck,ky,l,u,c,k,y,,,,0.8146089729852974,1.0306960055604577,1.1666857269592583,1.2866828148253262,1.5346036329865456,0.0,0.0,0.0,lucky,highwf,lowbf
93,s212,93,heond,he,eo,on,nd,h,e,o,n,d,,,,0.8028958970680833,0.9388118293136358,1.0347614893689752,1.178851949982345,1.3148394310846925,0.0,0.0,0.0,heond,pseudo,highbf
94,s212,94,belly,be,el,ll,ly,b,e,l,l,y,,,,0.766773612704128,0.9028061986900866,1.0467500416561961,1.2228023395873606,1.358771983999759,0.0,0.0,0.0,belly,medwf,medbf
95,s212,95,faqir,fa,aq,qi,ir,f,a,q,i,r,,,,0.8987986920401454,1.0748552549630404,1.4107467299327254,1.9468429638072848,2.090859190095216,0.0,0.0,0.0,faqir,lowwf,lowbf
96,s212,96,pykka,py,yk,kk,ka,p,y,k,k,a,,,,1.2147609633393586,1.6148297470062971,1.934764584992081,2.126757580321282,2.3347674473188818,0.0,0.0,0.0,pykka,pseudo,lowbf
97,s212,97,edthe,ed,dt,th,he,e,d,t,h,e,,,,1.0825602770783007,1.2985307928174734,1.5624943347647786,1.6586097809486091,1.794595438055694,0.0,0.0,0.0,edthe,pseudo,highbf
98,s212,98,think,th,hi,in,nk,t,h,i,n,k,,,,0.7985639730468392,0.8706224299967289,1.0706146559678018,1.190492691937834,1.342488331720233,0.0,0.0,0.0,think,highwf,highbf
99,s212,99,puppy,pu,up,pp,py,p,u,p,p,y,,,,0.7381560229696333,1.0340468757785857,1.2740562451072037,1.4340725908987224,1.6260443041101098,0.0,0.0,0.0,puppy,medwf,lowbf
100,s212,100,would,wo,ou,ul,ld,w,o,u,l,d,,,,0.9256796166300774,1.0377502758055925,1.197683630976826,1.4057992296293378,1.5176709168590605,0.0,0.0,0.0,would,highwf,medbf
101,s212,101,buddy,bu,ud,dd,dy,b,u,d,d,y,,,,0.8417876050807536,1.0258848769590259,1.3378563080914319,1.545845943968743,1.6978204231709242,0.0,0.0,0.0,buddy,highwf,lowbf
102,s212,102,tithe,ti,it,th,he,i,t,h,e,,,,,0.8220289312303066,0.9661321481689811,1.1821541972458363,1.4141213148832321,0.0,0.0,0.0,0.0,ithe,lowwf,highbf
103,s212,103,edthe,ed,dt,th,he,e,d,t,h,e,,,,0.9451854228973389,1.1532248347066343,1.4090976426377892,1.5770801976323128,1.7372029866091907,0.0,0.0,0.0,edthe,pseudo,highbf
104,s212,104,buddy,bu,ud,dd,dy,b,u,d,d,y,,,,1.2931546890176833,1.485277274157852,1.6612468222156167,1.853306584060192,2.013219312299043,0.0,0.0,0.0,buddy,highwf,lowbf
105,s212,105,druze,dr,ru,uz,ze,d,r,u,z,e,,,,1.1772630936466157,1.3772655287757516,1.5292909820564091,1.8252667370252311,2.0892643509432673,0.0,0.0,0.0,druze,lowwf,lowbf
106,s212,106,cheer,ch,he,ee,er,c,h,e,e,r,,,,0.8296592691913247,0.9977014320902526,1.2457126141525805,1.4537701439112425,1.6617359882220626,0.0,0.0,0.0,cheer,medwf,highbf
107,s212,107,vodka,vo,od,dk,ka,v,o,d,k,a,,,,0.8652938022278249,1.0332872802391648,1.2253419449552894,1.3851681179367006,1.513283203355968,0.0,0.0,0.0,vodka,medwf,lowbf
108,s212,108,haole,ha,ao,ol,le,h,a,o,l,e,,,,1.0770844328217208,1.2052283389493823,1.3732054396532476,1.6051721470430493,1.733216396998614,0.0,0.0,0.0,haole,lowwf,medbf
109,s212,109,cheer,ch,he,ee,er,c,h,e,e,r,,,,0.7050852468237281,0.8491409067064524,1.0170775959268212,1.2170781739987433,1.4250818537548184,0.0,0.0,0.0,cheer,medwf,highbf
110,s212,110,pykka,py,yk,kk,ka,p,y,k,k,a,,,,0.8196120401844382,1.363616629038006,1.6755450069904327,1.8516094530932605,1.987652676180005,0.0,0.0,0.0,pykka,pseudo,lowbf
111,s212,111,champ,ch,ha,am,mp,c,h,a,m,p,,,,0.7207726230844855,0.8407816961407661,1.0407113223336637,1.1766725992783904,1.3367939591407776,0.0,0.0,0.0,champ,medwf,medbf
112,s212,112,belly,be,el,ll,ly,b,e,l,l,y,,,,0.7412334019318223,0.8771173730492592,1.0372688909992576,1.2132342960685492,1.3651954759843647,0.0,0.0,0.0,belly,medwf,medbf
113,s212,113,kremp,kr,re,em,mp,k,r,e,m,p,,,,1.041328830178827,1.105338177178055,1.2893467182293534,1.3772736703976989,1.561308031436056,0.0,0.0,0.0,kremp,pseudo,medbf
114,s212,114,druze,dr,ru,uz,ze,d,r,u,z,e,,,,0.9732494871132076,1.197197520174086,1.3572417432442307,1.6132319709286094,1.9011459141038358,0.0,0.0,0.0,druze,lowwf,lowbf
115,s212,115,tithe,ti,it,th,he,t,i,t,h,e,,,,1.0652271788567305,1.2093221307732165,1.5052990028634667,1.657271847128868,1.8254157551564276,0.0,0.0,0.0,tithe,lowwf,highbf
116,s212,116,haole,ha,ao,ol,le,h,o,a,l,e,,,,0.9412409998476505,1.2533617671579123,1.349343508016318,1.7413676171563566,1.933358277194202,0.0,0.0,0.0,hoale,lowwf,medbf
117,s212,117,pykka,py,yk,kk,ka,p,y,k,k,a,,,,0.904505074955523,1.2004655529744923,1.5205502388998866,1.7124489438720047,1.8804856189526618,0.0,0.0,0.0,pykka,pseudo,lowbf
118,s212,118,cooed,co,oo,oe,ed,c,o,o,e,d,,,,0.804418696090579,1.0204219841398299,1.2043762453831732,1.3244639751501381,1.5324072469957173,0.0,0.0,0.0,cooed,lowwf,medbf
119,s212,119,there,th,he,er,re,t,h,e,r,e,,,,0.6483906111679971,0.7763249999843538,0.9284175741486251,1.1123231360688806,1.2964745089411736,0.0,0.0,0.0,there,highwf,highbf
120,s212,120,vanru,va,an,nr,ru,v,a,n,r,u,,,,1.065898742992431,1.177895818836987,1.3299914319068193,1.5460079298354685,1.6259658699855208,0.0,0.0,0.0,vanru,pseudo,medbf
121,s212,121,haole,ha,ao,ol,le,h,a,o,l,e,,,,0.8845945103093982,0.9966280101798475,1.116701651364565,1.3087273333221674,1.41259492514655,0.0,0.0,0.0,haole,lowwf,medbf
122,s212,122,champ,ch,ha,am,mp,c,h,a,m,p,,,,0.7765005072578788,0.8806693889200687,1.0084922881796956,1.1447090050205588,1.3286271253600717,0.0,0.0,0.0,champ,medwf,medbf
123,s212,123,druze,dr,ru,uz,ze,d,r,u,z,e,,,,0.8042666520923376,1.0602059541270137,1.2043445617891848,1.5083604650571942,1.732281421776861,0.0,0.0,0.0,druze,lowwf,lowbf
124,s212,124,puppy,pu,up,pp,py,p,u,p,p,y,,,,1.1445517549291253,1.3844308801926672,1.632551257032901,1.800411547999829,1.9365544188767672,0.0,0.0,0.0,puppy,medwf,lowbf
125,s212,125,theme,th,he,em,me,t,h,e,m,e,,,,0.7484565069898963,0.8764461618848145,1.0444902922026813,1.1805202919058502,1.3165624872781336,0.0,0.0,0.0,theme,medwf,highbf
126,s212,126,tithe,ti,it,th,he,t,i,t,h,e,,,,0.8083643540740013,0.9763135691173375,1.1923087663017213,1.3444815683178604,1.5122922672890127,0.0,0.0,0.0,tithe,lowwf,highbf
127,s212,127,therm,th,he,er,rm,t,h,e,r,m,,,,0.7244306062348187,0.8364425450563431,0.9884271291084588,1.1403254461474717,1.3083191229961812,0.0,0.0,0.0,therm,lowwf,highbf
128,s212,128,there,th,he,er,re,t,h,e,r,e,,,,0.696459973230958,0.8244587201625109,0.9763746312819421,1.1284055481664836,1.320489821024239,0.0,0.0,0.0,there,highwf,highbf
129,s212,129,faqir,fa,aq,qi,ir,f,a,q,i,r,,,,0.9401229280047119,1.132233768235892,1.4282274870201945,1.7162260892800987,1.8761247801594436,0.0,0.0,0.0,faqir,lowwf,lowbf
130,s212,130,lucky,lu,uc,ck,ky,l,u,c,k,y,,,,0.9282184178009629,1.1202588719315827,1.2482316470704973,1.3681338829919696,1.64819566719234,0.0,0.0,0.0,lucky,highwf,lowbf
131,s212,131,zibja,zi,ib,bj,ja,z,i,b,j,a,,,,1.1962890410795808,1.3243897962383926,1.5242943572811782,1.7404224029742181,1.8363631758838892,0.0,0.0,0.0,zibja,pseudo,lowbf
132,s212,132,edthe,ed,dt,th,he,e,d,t,h,e,,,,0.7684329752810299,0.9923205650411546,1.2084080781787634,1.312323174905032,1.4643716122955084,0.0,0.0,0.0,edthe,pseudo,highbf
133,s212,133,champ,ch,ha,am,mp,c,h,a,m,p,,,,0.7403451288118958,0.8602652219124138,0.9642811748199165,1.1163846557028592,1.292302343994379,0.0,0.0,0.0,champ,medwf,medbf
134,s212,134,druze,dr,ru,uz,ze,d,r,u,z,e,,,,0.8165487009100616,1.040432089008391,1.2164736078120768,1.456388280261308,1.7044055522419512,0.0,0.0,0.0,druze,lowwf,lowbf
135,s212,135,edthe,ed,dt,th,he,e,d,t,h,e,,,,0.8806850272230804,1.1047006039880216,1.3527131089940667,1.4486336088739336,1.6086417799815536,0.0,0.0,0.0,edthe,pseudo,highbf
136,s212,136,would,wo,ou,ul,ld,w,o,u,d,l,,,,0.6956449160352349,0.8636136911809444,1.0315176681615412,1.343516587279737,1.575590877328068,0.0,0.0,0.0,woudl,highwf,medbf
137,s212,137,faqir,fa,aq,qi,ir,f,a,q,i,e,backspace,r,,1.0356273362413049,1.2116442141123116,1.4996284362860024,1.7235598401166499,1.88357422221452,2.4515590318478644,2.619712984189391,0.0,faqiebackspacer,lowwf,lowbf
138,s212,138,buddy,bu,ud,dd,dy,b,u,d,d,y,,,,0.999520889017731,1.2154886950738728,1.455405831336975,1.6394105893559754,1.7514588353224099,0.0,0.0,0.0,buddy,highwf,lowbf
139,s212,139,vodka,vo,od,dk,ka,v,o,d,k,a,,,,0.8116164249368012,0.9795376290567219,1.195606003049761,1.3635892136953771,1.5395201337523758,0.0,0.0,0.0,vodka,medwf,lowbf
140,s212,140,theme,th,he,em,me,t,h,e,m,e,,,,0.6474356036633253,0.7355193626135588,0.8794134119525552,0.9915100056678057,1.071497278753668,0.0,0.0,0.0,theme,medwf,highbf
141,s212,141,heond,he,eo,on,nd,h,e,o,n,d,,,,0.795688877813518,0.9316731500439346,1.0197711498476565,1.1876197690144181,1.3316660337150097,0.0,0.0,0.0,heond,pseudo,highbf
142,s212,142,lucky,lu,uc,ck,ky,l,u,c,k,y,,,,0.6954394732601941,0.8794266148470342,0.9753958531655371,1.1434664381667972,1.2955074459314346,0.0,0.0,0.0,lucky,highwf,lowbf
143,s212,143,tithe,ti,it,th,he,t,i,t,h,e,,,,0.8117910292930901,0.9556708419695497,1.155801935121417,1.2917903908528388,1.4596592732705176,0.0,0.0,0.0,tithe,lowwf,highbf
144,s212,144,druze,dr,ru,uz,ze,d,r,u,z,e,,,,0.9517572401091456,1.1756876320578158,1.3196795070543885,1.5117093417793512,1.727685609832406,0.0,0.0,0.0,druze,lowwf,lowbf
145,s212,145,heond,he,eo,on,nd,h,e,o,n,d,,,,0.739627995993942,0.8676319499500096,0.9637137958779931,1.139758552890271,1.3236985546536744,0.0,0.0,0.0,heond,pseudo,highbf
146,s212,146,haole,ha,ao,ol,le,h,a,o,l,e,,,,0.8552939291112125,0.9352857880294323,1.1033315579406917,1.287212003953755,1.4152717757970095,0.0,0.0,0.0,haole,lowwf,medbf
147,s212,147,think,th,hi,in,nk,t,h,i,n,k,,,,0.7706889091059566,0.9226956591010094,1.1386255319230258,1.3146950518712401,1.5466377129778266,0.0,0.0,0.0,think,highwf,highbf
148,s212,148,about,ab,bo,ou,ut,a,b,o,u,t,,,,0.7835838096216321,0.91170609369874,1.087673137895763,1.247655102983117,1.3996709240600467,0.0,0.0,0.0,about,highwf,medbf
149,s212,149,champ,ch,ha,am,mp,c,h,a,m,p,,,,0.6435471549630165,0.75566824991256,0.8835236891172826,0.9956828928552568,1.1876830370165408,0.0,0.0,0.0,champ,medwf,medbf
150,s212,150,vanru,va,an,nr,ru,v,a,n,r,u,,,,0.8874884359538555,1.0155548742040992,1.151470857206732,1.359440680127591,1.4874748042784631,0.0,0.0,0.0,vanru,pseudo,medbf
151,s212,151,would,wo,ou,ul,ld,w,o,u,l,d,,,,0.7236479758284986,0.8676001317799091,1.035666482988745,1.5076545430347323,1.6436005979776382,0.0,0.0,0.0,would,highwf,medbf
152,s212,152,vodka,vo,od,dk,ka,v,o,d,k,a,,,,0.9035802930593491,1.055522092152387,1.207461363170296,1.3754321723245084,1.6154838372021914,0.0,0.0,0.0,vodka,medwf,lowbf
153,s212,153,therm,th,he,er,rm,t,h,e,m,,,,,0.635419812053442,0.739392566960305,0.9154162891209126,1.0193875320255756,0.0,0.0,0.0,0.0,them,lowwf,highbf
154,s212,154,would,wo,ou,ul,ld,w,o,u,l,d,,,,0.6955688460730016,0.8715819800272584,1.0394821669906378,1.2235970399342477,1.3835649802349508,0.0,0.0,0.0,would,highwf,medbf
155,s212,155,edthe,ed,dt,th,he,e,d,t,h,e,,,,0.8196447342634201,1.0514739379286766,1.2995432778261602,1.395498697180301,1.5554632791318,0.0,0.0,0.0,edthe,pseudo,highbf
156,s212,156,buddy,bu,ud,dd,dy,b,u,d,d,y,,,,0.9036475918255746,1.1356379510834813,1.351507443934679,1.5435136570595205,1.6956559950485826,0.0,0.0,0.0,buddy,highwf,lowbf
157,s212,157,there,th,he,er,re,t,h,e,r,e,,,,0.715680368244648,0.8517390713095665,0.9876677310094237,1.1476708832196891,1.3157050530426204,0.0,0.0,0.0,there,highwf,highbf
158,s212,158,zibja,zi,ib,bj,ja,z,i,b,j,a,,,,1.0555789093486965,1.1594704701565206,1.3594748093746603,1.5195837579667568,1.6554966871626675,0.0,0.0,0.0,zibja,pseudo,lowbf
159,s212,159,heond,he,eo,on,nd,h,e,o,n,d,,,,0.7955618263222277,0.9235795810818672,1.0594651573337615,1.2115679210983217,1.363568743225187,0.0,0.0,0.0,heond,pseudo,highbf
160,s212,160,therm,th,he,er,rm,t,h,e,m,,,,,0.6394897713325918,0.7433784320019186,0.8793905982747674,1.0074882879853249,0.0,0.0,0.0,0.0,them,lowwf,highbf
161,s212,161,tithe,ti,it,th,he,t,i,t,h,e,,,,0.7948501473292708,0.9307882701978087,1.0587810790166259,1.2668676902540028,1.3948976192623377,0.0,0.0,0.0,tithe,lowwf,highbf
162,s212,162,zibja,zi,ib,bj,ja,z,i,b,j,a,,,,1.1345590925775468,1.2467226940207183,1.4307284238748252,1.58269071765244,1.734568985644728,0.0,0.0,0.0,zibja,pseudo,lowbf
163,s212,163,vodka,vo,od,dk,ka,v,o,d,k,a,,,,0.9866532259620726,1.0986427259631455,1.2826516372151673,1.4265256910584867,1.6186547209508717,0.0,0.0,0.0,vodka,medwf,lowbf
164,s212,164,would,wo,ou,ul,ld,w,o,u,l,d,,,,0.7348096081987023,0.8627203879877925,1.0547109739854932,1.294823442120105,1.4387291860766709,0.0,0.0,0.0,would,highwf,medbf
165,s212,165,kremp,kr,re,em,mp,k,r,e,m,p,,,,1.026742157060653,1.1388215962797403,1.3228642661124468,1.434745125938207,1.6427509281784296,0.0,0.0,0.0,kremp,pseudo,medbf
166,s212,166,lucky,lu,uc,ck,ky,l,u,c,x,k,y,,,0.7670017252676189,0.9589611459523439,1.1030179071240127,1.1109165051020682,1.183008692227304,1.526891085319221,0.0,0.0,lucxky,highwf,lowbf
167,s212,167,would,wo,ou,ul,ld,w,o,u,l,d,,,,0.738875248003751,0.8268013461492956,1.0107999150641263,1.234811533242464,1.330876898020506,0.0,0.0,0.0,would,highwf,medbf
168,s212,168,cooed,co,oo,oe,ed,c,o,o,e,d,,,,0.8708181092515588,1.0628164950758219,1.2389351050369442,1.3829207634553313,1.606922559440136,0.0,0.0,0.0,cooed,lowwf,medbf
169,s212,169,kremp,kr,re,em,mp,k,r,e,m,p,,,,0.9147988697513938,1.0588687090203166,1.2348000588826835,1.378945592790842,1.5468811388127506,0.0,0.0,0.0,kremp,pseudo,medbf
170,s212,170,tithe,ti,it,th,he,t,i,t,h,e,,,,0.7747793789021671,0.9426737669855356,1.046758599113673,1.2067798990756273,1.342655154876411,0.0,0.0,0.0,tithe,lowwf,highbf
171,s212,171,druze,dr,ru,uz,ze,d,r,u,z,e,,,,1.0105992602184415,1.202661159913987,1.410543239209801,1.5625557550229132,1.8026722059585154,0.0,0.0,0.0,druze,lowwf,lowbf
172,s212,172,belly,be,el,ll,ly,b,e,l,l,y,,,,1.0627610059455037,1.1747313188388944,1.3267651479691267,1.502778999041766,1.6147787291556597,0.0,0.0,0.0,belly,medwf,medbf
173,s212,173,druze,dr,ru,uz,ze,d,r,u,z,e,,,,1.0988418119959533,1.3308766768313944,1.4669316168874502,1.63478759303689,1.8668801221065223,0.0,0.0,0.0,druze,lowwf,lowbf
174,s212,174,there,th,he,er,re,t,h,e,r,e,,,,0.7426218339242041,0.9027223950251937,1.0226943609304726,1.182708322070539,1.350616272073239,0.0,0.0,0.0,there,highwf,highbf
175,s212,175,belly,be,el,ll,ly,b,e,l,l,y,,,,0.7146151978522539,0.8586737317964435,1.034611428156495,1.2027313211001456,1.3466795207932591,0.0,0.0,0.0,belly,medwf,medbf
176,s212,176,edthe,ed,dt,th,he,e,r,backspace,e,d,t,h,e,0.7186130941845477,0.7186130941845477,1.7586280712857842,1.9424999780021608,2.1504782270640135,2.3666032142937183,2.494585013948381,2.6385473469272256,erbackspaceedthe,pseudo,highbf
177,s212,177,buddy,bu,ud,dd,dy,b,u,d,d,y,,,,1.026566008105874,1.8425286398269236,2.170666353777051,2.338545690756291,2.466754036024213,0.0,0.0,0.0,buddy,highwf,lowbf
178,s212,178,pykka,py,yk,kk,ka,p,y,k,k,a,,,,1.0787430289201438,1.3427252448163927,1.606796404812485,1.7827577251009643,1.9587196307256818,0.0,0.0,0.0,pykka,pseudo,lowbf
179,s212,179,tithe,ti,it,th,he,t,i,t,h,e,,,,0.7468726341612637,0.8747933940030634,0.9948379569686949,1.1708512683399022,1.3228389001451433,0.0,0.0,0.0,tithe,lowwf,highbf
180,s212,180,there,th,he,er,re,t,h,e,r,e,,,,0.6625158111564815,0.7666053390130401,0.9026186638511717,1.06254379497841,1.2466025198809803,0.0,0.0,0.0,there,highwf,highbf
181,s212,181,think,th,hi,in,nk,t,h,n,k,,,,,0.6988068423233926,0.810690417420119,1.506820812355727,1.6427482049912214,0.0,0.0,0.0,0.0,thnk,highwf,highbf
182,s212,182,faqir,fa,aq,qi,ir,f,a,q,i,r,,,,1.0460590599104762,1.2381503316573799,1.5661552087403834,1.694026393815875,2.006023501046002,0.0,0.0,0.0,faqir,lowwf,lowbf
183,s212,183,heond,he,eo,on,nd,h,e,o,n,d,,,,0.7620179578661919,0.8979639196768403,1.002042468637228,1.193929341621697,1.3380280639976263,0.0,0.0,0.0,heond,pseudo,highbf
184,s212,184,zibja,zi,ib,bj,ja,z,i,b,j,a,,,,0.9420366757549345,1.053988222964108,1.221880146767944,1.397867287043482,1.5098536387085915,0.0,0.0,0.0,zibja,pseudo,lowbf
185,s212,185,buddy,bu,ud,dd,dy,b,u,d,d,y,,,,0.9459840338677168,1.1460023019462824,1.3540651719085872,1.529995164833963,1.6820026999339461,0.0,0.0,0.0,buddy,highwf,lowbf
186,s212,186,faqir,fa,aq,qi,ir,f,a,w,i,r,,,,1.0622585210949183,1.2542610131204128,1.5581569448113441,1.7422896530479193,1.9905907921493053,0.0,0.0,0.0,fawir,lowwf,lowbf
187,s212,187,therm,th,he,er,rm,t,h,e,r,m,,,,0.7213741997256875,0.8414239981211722,0.9854235919192433,1.1293362057767808,1.2894284599460661,0.0,0.0,0.0,therm,lowwf,highbf
188,s212,188,pykka,py,yk,kk,ka,p,y,k,k,a,,,,0.8052265006117523,1.5172178489156067,1.9092500526458025,2.0932296556420624,2.2853468358516693,0.0,0.0,0.0,pykka,pseudo,lowbf
189,s212,189,zibja,zi,ib,bj,ja,z,i,b,j,a,,,,1.0891818241216242,1.2492789733223617,1.4091624850407243,1.5852806600742042,1.75329674128443,0.0,0.0,0.0,zibja,pseudo,lowbf
190,s212,190,about,ab,bo,ou,ut,a,b,o,u,t,,,,0.7645418802276254,0.9165715421549976,1.0605164761655033,1.2285939981229603,1.3966049342416227,0.0,0.0,0.0,about,highwf,medbf
191,s212,191,puppy,pu,up,pp,py,o,u,o,o,y,,,,0.8165858848951757,1.064469839911908,1.5365941021591425,1.7605047700926661,2.5764686367474496,0.0,0.0,0.0,ouooy,medwf,lowbf
192,s212,192,lucky,lu,uc,ck,ky,l,u,c,k,y,,,,1.0124314101412892,1.2204613438807428,1.3724563661962748,1.4684731871820986,1.7564775571227074,0.0,0.0,0.0,lucky,highwf,lowbf
193,s212,193,kremp,kr,re,em,mp,k,r,e,m,p,,,,1.1764553859829903,1.3045505681075156,1.4885435719043016,1.6245420989580452,1.832538653165102,0.0,0.0,0.0,kremp,pseudo,medbf
194,s212,194,think,th,hi,in,nk,t,h,i,n,k,,,,0.9326739930547774,1.0207069469615817,1.180680579971522,1.3085765172727406,1.4925696309655905,0.0,0.0,0.0,think,highwf,highbf
195,s212,195,edthe,ed,dt,th,he,e,d,t,h,e,,,,0.7432604976929724,0.9672973649576306,1.1751762358471751,1.2952649700455368,1.4312885720282793,0.0,0.0,0.0,edthe,pseudo,highbf
196,s212,196,champ,ch,ha,am,mp,c,h,a,m,p,,,,0.6765493839047849,0.7806144850328565,0.9085580171085894,1.0125770471058786,1.2046733568422496,0.0,0.0,0.0,champ,medwf,medbf
197,s212,197,pykka,py,yk,kk,ka,p,y,k,k,a,,,,0.680679390206933,0.9687417689710855,1.288732083979994,1.4646731852553785,1.6806957381777465,0.0,0.0,0.0,pykka,pseudo,lowbf
198,s212,198,champ,ch,ha,am,mp,c,h,a,m,p,,,,0.780585141852498,0.8764766547828913,1.0366086806170642,1.12447541160509,1.324606484733522,0.0,0.0,0.0,champ,medwf,medbf
199,s212,199,cooed,co,oo,oe,ed,c,o,o,e,d,,,,0.6805757218971848,0.9446489149704576,1.120590706821531,1.248538440093398,1.4966054069809616,0.0,0.0,0.0,cooed,lowwf,medbf
200,s212,200,there,th,he,er,re,t,h,e,r,e,,,,0.6597995539195836,0.7638497389853001,0.9158487631939352,1.1078683291561902,1.2518685590475798,0.0,0.0,0.0,there,highwf,highbf
201,s212,201,vodka,vo,od,dk,ka,v,o,d,k,a,,,,0.7758402428589761,0.9597580246627331,1.1038812370970845,1.2318529970943928,1.4477618066594005,0.0,0.0,0.0,vodka,medwf,lowbf
202,s212,202,theme,th,he,em,me,t,h,e,m,e,,,,0.6916616577655077,0.8276271587237716,0.9796334030106664,1.1236675106920302,1.235671835951507,0.0,0.0,0.0,theme,medwf,highbf
203,s212,203,about,ab,bo,ou,ut,a,b,o,u,t,,,,0.719790194183588,0.7836303180083632,0.975716704968363,1.1117159579880536,1.1836477778851986,0.0,0.0,0.0,about,highwf,medbf
204,s212,204,belly,be,el,ll,ly,b,e,l,l,y,,,,0.7559407972730696,0.8918632650747895,1.0598288821056485,1.2598398211412132,1.4519326998852193,0.0,0.0,0.0,belly,medwf,medbf
205,s212,205,cheer,ch,he,ee,er,c,h,e,e,r,,,,1.0559357940219343,1.1919452850706875,1.3359023299999535,1.5518954573199153,1.7598247253336012,0.0,0.0,0.0,cheer,medwf,highbf
206,s212,206,lucky,lu,uc,ck,ky,l,u,c,k,y,,,,0.9399983482435346,1.1399399349465966,1.2999553652480245,1.4519935678690672,1.6678793770261109,0.0,0.0,0.0,lucky,highwf,lowbf
207,s212,207,haole,ha,ao,ol,le,h,a,o,l,e,,,,0.8478387910872698,0.935957572888583,1.079914125148207,1.2798510272987187,1.4399491702206433,0.0,0.0,0.0,haole,lowwf,medbf
208,s212,208,vodka,vo,od,dk,ka,v,o,d,k,a,,,,0.7959481556899846,0.9319743979722261,1.0999725628644228,1.259880555793643,1.4519502860493958,0.0,0.0,0.0,vodka,medwf,lowbf
209,s212,209,puppy,pu,up,pp,py,p,u,p,p,y,,,,0.679246393032372,0.8873000042513013,1.1033392972312868,1.2632868341170251,1.839306551963091,0.0,0.0,0.0,puppy,medwf,lowbf
210,s212,210,cheer,ch,he,ee,er,c,h,e,e,r,,,,0.851783940102905,0.9637484941631556,1.1877440623939037,1.3877215264365077,1.5957261682488024,0.0,0.0,0.0,cheer,medwf,highbf
211,s212,211,theme,th,he,em,me,t,h,e,m,e,,,,0.7596347280777991,0.8797733811661601,1.0316408802755177,1.1356949801556766,1.2556733721867204,0.0,0.0,0.0,theme,medwf,highbf
212,s212,212,pykka,py,yk,kk,ka,p,y,u,k,k,a,,,0.7318046540021896,0.9877551752142608,1.019799964968115,1.5957044321112335,1.7717433171346784,1.9157915711402893,0.0,0.0,pyukka,pseudo,lowbf
213,s212,213,buddy,bu,ud,dd,dy,b,u,d,d,y,,,,0.8478119261562824,1.071874916087836,1.2957499329932034,1.4718289142474532,1.6477686641737819,0.0,0.0,0.0,buddy,highwf,lowbf
214,s212,214,heond,he,eo,on,nd,h,e,o,n,d,,,,0.8037364240735769,0.9316805680282414,1.0517003978602588,1.2117277742363513,1.3557527028024197,0.0,0.0,0.0,heond,pseudo,highbf
215,s212,215,think,th,hi,in,nk,t,h,n,k,,,,,0.7116986690089107,0.8316339966841042,1.1916912458837032,1.5116825788281858,0.0,0.0,0.0,0.0,thnk,highwf,highbf
216,s212,216,vanru,va,an,nr,ru,v,a,n,r,u,,,,1.2279509999789298,1.3718977021053433,1.4677677610889077,1.6918887151405215,1.803903539199382,0.0,0.0,0.0,vanru,pseudo,medbf
217,s212,217,cheer,ch,he,ee,er,c,h,e,e,r,,,,0.775255274027586,0.903391226194799,1.0633738040924072,1.2953679761849344,1.4953375053592026,0.0,0.0,0.0,cheer,medwf,highbf
218,s212,218,cooed,co,oo,oe,ed,c,o,o,e,d,,,,0.691708330065012,0.8997740731574595,1.075744153931737,1.2277786983177066,1.4596534939482808,0.0,0.0,0.0,cooed,lowwf,medbf
219,s212,219,cheer,ch,he,ee,er,c,h,e,e,r,,,,0.6638319417834282,0.8077640868723392,0.9837534017860889,1.1758271930739284,1.3597333449870348,0.0,0.0,0.0,cheer,medwf,highbf
220,s212,220,faqir,fa,aq,qi,ir,f,a,q,i,r,,,,0.9157983432523906,1.059660173021257,1.4037977559491992,1.5477203852497041,1.7637375220656395,0.0,0.0,0.0,faqir,lowwf,lowbf
221,s212,221,belly,be,el,ll,ly,b,l,l,y,,,,,0.7751000449061394,1.0712306778877974,1.2632074118591845,1.4391836440190673,0.0,0.0,0.0,0.0,blly,medwf,medbf
222,s212,222,think,th,hi,in,nk,t,h,i,n,k,,,,0.7710798229090869,0.8670845199376345,1.0352282668463886,1.2590182851999998,1.4110366250388324,0.0,0.0,0.0,think,highwf,highbf
223,s212,223,cooed,co,oo,oe,ed,c,o,o,e,d,,,,0.8547958368435502,1.1189165022224188,1.2948955232277513,1.4308081548660994,1.6468755500391126,0.0,0.0,0.0,cooed,lowwf,medbf
224,s212,224,about,ab,bo,ou,ut,a,b,o,u,t,,,,0.7069284860044718,0.7949708299711347,0.9710204009898007,1.1149357450194657,1.2670139111578465,0.0,0.0,0.0,about,highwf,medbf
225,s212,225,haole,ha,ao,ol,le,h,a,o,l,e,,,,0.8147655711509287,0.9108215668238699,1.0467922259122133,1.2468065610155463,1.3667246801778674,0.0,0.0,0.0,haole,lowwf,medbf
226,s212,226,vanru,va,an,nr,ru,v,a,n,r,u,,,,0.8347118990495801,0.9787080651149154,1.114779767114669,1.2908301940187812,1.4747051377780735,0.0,0.0,0.0,vanru,pseudo,medbf
227,s212,227,therm,th,he,er,rm,t,h,e,r,m,,,,0.8390450631268322,0.9349675802513957,1.1030446533113718,1.2629526969976723,1.4229759303852916,0.0,0.0,0.0,therm,lowwf,highbf
228,s212,228,theme,th,he,em,me,t,h,e,m,e,,,,0.7151286569423974,0.8270312841050327,1.0031129070557654,1.1551621197722852,1.2750499648973346,0.0,0.0,0.0,theme,medwf,highbf
229,s212,229,haole,ha,ao,ol,le,h,a,o,l,e,,,,0.9909562170505524,1.0949798189103603,1.2549137780442834,1.4629125650972128,1.5989755461923778,0.0,0.0,0.0,haole,lowwf,medbf
230,s212,230,kremp,kr,re,em,mp,k,r,e,m,p,,,,0.9551544273272157,1.0991539023816586,1.2751716179773211,1.379037206992507,1.587117035407573,0.0,0.0,0.0,kremp,pseudo,medbf
231,s212,231,pykka,py,yk,kk,ka,p,y,k,k,a,,,,0.7028344548307359,0.9427146972157061,1.2627349998801947,1.4387708841823041,1.5908294362016022,0.0,0.0,0.0,pykka,pseudo,lowbf
232,s212,232,puppy,pu,up,pp,py,p,u,p,p,y,,,,0.7309541781432927,0.9469803688116372,1.1629038909450173,1.3389980210922658,1.4748912891373038,0.0,0.0,0.0,puppy,medwf,lowbf
233,s212,233,cheer,ch,he,ee,er,c,h,e,e,r,,,,0.7989947171881795,0.9353276831097901,1.1829547453671694,1.374933590181172,1.5748703083954751,0.0,0.0,0.0,cheer,medwf,highbf
234,s212,234,vanru,va,an,nr,ru,v,a,n,r,u,,,,1.1310591660439968,1.2910442240536213,1.4351013978011906,1.579134872648865,1.7310711308382452,0.0,0.0,0.0,vanru,pseudo,medbf
235,s212,235,about,ab,bo,ou,ut,a,b,o,u,t,,,,0.7588453190401196,0.8469315990805626,0.9989424622617662,1.1508557121269405,1.278960696887225,0.0,0.0,0.0,about,highwf,medbf
236,s212,236,cooed,co,oo,oe,ed,c,o,o,e,d,,,,0.7949493783526123,1.0349962362088263,1.2109267730265856,1.3628585943952203,1.570980102289468,0.0,0.0,0.0,cooed,lowwf,medbf
237,s212,237,puppy,pu,up,pp,py,p,u,p,p,y,,,,0.7746682711876929,1.0066546350717545,1.2467144569382071,1.398693785071373,1.5187640548683703,0.0,0.0,0.0,puppy,medwf,lowbf
238,s212,238,kremp,kr,re,em,mp,k,r,e,m,p,,,,0.9307418940588832,1.0107454778626561,1.186828525736928,1.338756978046149,1.506761553697288,0.0,0.0,0.0,kremp,pseudo,medbf
239,s212,239,belly,be,el,ll,ly,b,e,l,l,y,,,,0.7907992410473526,0.9106902703642845,1.0788065940141678,1.270781623199582,1.3988160244189203,0.0,0.0,0.0,belly,medwf,medbf
