,sID,Trial #,string,bi_1,bi_2,bi_3,bi_4,key_resp.keys.1,key_resp.keys.2,key_resp.keys.3,key_resp.keys.4,key_resp.keys.5,key_resp.keys.6,key_resp.keys.7,key_resp.rt.1,key_resp.rt.2,key_resp.rt.3,key_resp.rt.4,key_resp.rt.5,key_resp.rt.6,key_resp.rt.7,resp_string,WF Type,BF Type
0,s217,0,haole,ha,ao,ol,le,h,a,o,l,e,,,1.0634733901824802,1.2795377320144325,1.7035186171997339,1.895417686086148,1.9915359311271459,0.0,0.0,haole,lowwf,
1,s217,1,cooed,co,oo,oe,ed,c,o,o,e,d,,,0.8561859780456871,0.9682613578625023,1.1282599798869342,1.2563012389000505,1.424178991932422,0.0,0.0,cooed,lowwf,
2,s217,2,champ,ch,ha,am,mp,c,h,a,m,p,,,0.9325808139983565,1.0205960990861058,1.1565465251915157,1.236590923042968,1.476483206031844,0.0,0.0,champ,medwf,
3,s217,3,heond,he,eo,on,nd,h,e,o,n,d,,,1.2324383861850947,1.4484870100859553,1.7124198901001364,1.9044099950697273,2.056375232990831,0.0,0.0,heond,pseudo,
4,s217,4,lucky,lu,uc,ck,ky,l,u,c,k,y,,,0.7725449809804559,0.9965701159089804,1.084500540047884,1.2125649668741971,1.300480091944337,0.0,0.0,lucky,highwf,
5,s217,5,about,ab,bo,ou,ut,a,b,o,u,t,,,0.7125131939537823,0.9206022650469095,0.992559416918084,1.1205717250704765,1.1925735550466925,0.0,0.0,about,highwf,
6,s217,6,tithe,ti,it,th,he,t,i,t,h,e,,,2.0207072510384023,2.2046480251010507,2.364626689115539,2.516728605143726,2.6927801489364356,0.0,0.0,tithe,lowwf,
7,s217,7,theme,th,he,em,me,t,h,e,m,e,,,0.8642256718594581,0.9363670160528272,1.0802888609468937,1.216308819828555,1.2723286850377917,0.0,0.0,theme,medwf,
8,s217,8,about,ab,bo,ou,ut,a,b,o,u,t,,,0.7325177730526775,0.9405298219062388,1.004480306059122,1.1325185459572822,1.2124563490506262,0.0,0.0,about,highwf,
9,s217,9,there,th,he,er,re,t,h,e,r,e,,,0.704437020001933,0.7444377390202135,0.8725309781730175,1.0244984421879053,1.1684898410458118,0.0,0.0,there,highwf,
10,s217,10,tithe,ti,it,th,he,t,i,t,h,e,,,0.8287078789435327,1.7167007660027593,2.3166895259637386,2.5005856319330633,2.6207122679334134,0.0,0.0,tithe,lowwf,
11,s217,11,think,th,hi,in,nk,t,h,i,n,k,,,0.7204832679126412,0.808459232095629,0.9364934400655329,1.0724453700240701,1.2003709669224918,0.0,0.0,think,highwf,
12,s217,12,kremp,kr,re,em,mp,k,r,e,m,p,,,1.228411135962233,1.308383401017636,1.4684416789095849,1.532442094059661,1.6923874609638005,0.0,0.0,kremp,pseudo,
13,s217,13,champ,ch,ha,am,mp,c,h,a,m,p,,,0.7044894839636981,0.8003509389236569,0.9204959799535573,1.0004026698879898,1.1445239279419184,0.0,0.0,champ,medwf,
14,s217,14,buddy,bu,ud,dd,dy,b,u,d,d,y,,,0.7564189089462161,0.900423435959965,0.9884095888119191,1.1084644568618387,1.16434736084193,0.0,0.0,buddy,highwf,
15,s217,15,theme,th,he,em,me,t,h,e,m,e,,,0.704460543114692,0.7684783190488815,0.8883731719106436,0.9923838719259948,1.0484960658941418,0.0,0.0,theme,medwf,
16,s217,16,druze,dr,ru,uz,ze,d,r,u,z,e,,,0.8925539979245514,1.0605607968755066,1.1326075289398432,1.3406153989490122,1.53263378306292,0.0,0.0,druze,lowwf,
17,s217,17,pykka,py,yk,kk,ka,p,y,k,k,a,,,1.1285493150353432,1.3764712028205395,1.8405500818043947,1.9844806669279933,2.09650862403214,0.0,0.0,pykka,pseudo,
18,s217,18,faqir,fa,aq,qi,ir,f,q,i,r,,,,1.0124629829078913,1.3644846808165312,1.7165741168428212,2.1084727679844946,0.0,0.0,0.0,fqir,lowwf,
19,s217,19,champ,ch,ha,am,mp,c,h,m,backspace,,,,0.8485184940509498,0.9285407969728112,1.152527566999197,1.8085441829171032,0.0,0.0,0.0,chmbackspace,medwf,
20,s217,20,vanru,va,an,nr,ru,v,a,n,r,u,,,1.0603100680746138,1.1883892249315977,1.332390211056918,1.5962836539838463,1.7163396230898798,0.0,0.0,vanru,pseudo,
21,s217,21,would,wo,ou,ul,ld,w,o,u,l,d,,,0.8082273621112108,0.9202300170436502,1.0402374002151191,1.240235745208338,1.320226107025519,0.0,0.0,would,highwf,
22,s217,22,tithe,ti,it,th,he,t,h,,,,,,0.8443141400348395,1.036192563129589,0.0,0.0,0.0,0.0,0.0,th,lowwf,
23,s217,23,druze,dr,ru,uz,ze,d,r,u,z,e,,,0.7760652059223503,0.9441637240815908,1.0561813348904252,1.2081926660612226,1.39206561492756,0.0,0.0,druze,lowwf,
24,s217,24,lucky,lu,uc,ck,ky,l,u,c,k,y,,,0.7802353848237544,0.9403014287818223,1.0522050918079913,1.2121900648344308,1.236301451921463,0.0,0.0,lucky,highwf,
25,s217,25,vodka,vo,od,dk,ka,v,o,d,k,a,,,1.0961055711377412,1.2241756150033325,1.384097150992602,1.6001701971981674,1.712127021048218,0.0,0.0,vodka,medwf,
26,s217,26,haole,ha,ao,ol,le,h,a,o,l,e,,,0.9322879759129137,1.2362103399354964,1.4761932499241084,1.7642074751202017,1.9402655689045787,0.0,0.0,haole,lowwf,
27,s217,27,heond,he,eo,on,nd,h,e,o,n,d,,,0.816173043102026,1.0481491240207106,1.3521731591317803,1.5760695589706302,1.7121366129722446,0.0,0.0,heond,pseudo,
28,s217,28,about,ab,bo,ou,ut,a,b,o,u,t,,,0.6282416009344161,0.852233693934977,0.9402165410574526,1.0761450019199401,1.116224016994238,0.0,0.0,about,highwf,
29,s217,29,belly,be,el,ll,ly,b,e,l,l,y,,,0.720467085018754,0.832469382090494,1.024363337084651,1.2324579381383955,1.480473189149052,0.0,0.0,belly,medwf,
30,s217,30,theme,th,he,em,me,t,h,e,m,e,,,0.8684182290453464,0.9644053359515965,1.0924215058330446,1.2045310838147998,1.2685245289467275,0.0,0.0,theme,medwf,
31,s217,31,cooed,co,oo,oe,ed,c,o,o,e,d,,,0.7364082150161266,0.8403914330992848,0.984327546088025,1.0804225490428507,1.2324181790463626,0.0,0.0,cooed,lowwf,
32,s217,32,edthe,ed,dt,th,he,e,d,t,h,e,,,1.044445764971897,1.236447149887681,1.4364554800558835,1.5324842259287834,1.7004565228708088,0.0,0.0,edthe,pseudo,
33,s217,33,zibja,zi,ib,bj,ja,z,i,b,j,a,,,1.1843804931268096,1.2724993901792914,1.4564872721675783,1.6004143981263041,1.7124637891538441,0.0,0.0,zibja,pseudo,
34,s217,34,would,wo,ou,ul,ld,w,o,u,l,d,,,0.7002445519901812,0.7803376391530037,0.908375115133822,1.0922548789530993,1.1562506291083992,0.0,0.0,would,highwf,
35,s217,35,haole,ha,ao,ol,le,h,a,o,l,e,,,1.2961471970193088,1.4802161240950227,1.6481221539434046,1.8562311651185155,1.9521810940932482,0.0,0.0,haole,lowwf,
36,s217,36,zibja,zi,ib,bj,ja,z,i,b,j,a,,,1.2203308099415153,1.348258004989475,1.660258511081338,1.8123225190211087,1.9402714110910892,0.0,0.0,zibja,pseudo,
37,s217,37,puppy,pu,up,pp,py,p,u,p,p,y,,,0.8079538568854332,0.9838796989060938,1.1280367719009519,1.2720027570612729,1.5838790519628674,0.0,0.0,puppy,medwf,
38,s217,38,edthe,ed,dt,th,he,e,d,t,h,e,,,0.8282402150798589,1.0121954979840666,1.196191597962752,1.3002618439495564,1.4121747410390526,0.0,0.0,edthe,pseudo,
39,s217,39,cheer,ch,he,ee,er,c,h,e,e,r,,,0.6804098580032587,0.7684095879085362,0.8724209300708026,1.0163870849646628,1.1603260489646345,0.0,0.0,cheer,medwf,
40,s217,40,kremp,kr,re,em,mp,k,r,e,m,p,,,0.940069941105321,1.0120314999949187,1.1561312300618738,1.2441133989486843,1.4040651249233633,0.0,0.0,kremp,pseudo,
41,s217,41,theme,th,he,em,me,t,h,e,m,e,,,0.7123697050847113,0.7842557551339269,0.896274683997035,1.0243881600908935,1.0563917912077159,0.0,0.0,theme,medwf,
42,s217,42,edthe,ed,dt,th,he,e,d,t,h,e,,,0.7558790810871869,0.9158136330079287,1.0917574940249324,1.187833143165335,1.275753963040188,0.0,0.0,edthe,pseudo,
43,s217,43,would,wo,ou,ul,ld,w,o,u,l,d,,,0.6324086948297918,0.7204999658279121,0.8484078359324485,1.0403605259489268,1.0884525149594992,0.0,0.0,would,highwf,
44,s217,44,heond,he,eo,on,nd,h,e,o,n,d,,,1.044357992010191,1.1483168001286685,1.2683202009648085,1.4284276620019227,1.53239998803474,0.0,0.0,heond,pseudo,
45,s217,45,puppy,pu,up,pp,py,p,u,p,p,y,,,0.7124982080422342,0.8884355549234897,1.0324585209600627,1.1923094228841364,1.3763966939877719,0.0,0.0,puppy,medwf,
46,s217,46,therm,th,he,er,rm,t,h,e,r,m,,,0.7643233619164675,0.9084287639707327,1.0603019720874727,1.1963312500156462,1.3003826509229839,0.0,0.0,therm,lowwf,
47,s217,47,cooed,co,oo,oe,ed,c,o,e,e,d,,,1.0562583007849753,1.1442224979400635,1.2722250749357045,1.4082287058699876,1.5681751538068056,0.0,0.0,coeed,lowwf,
48,s217,48,puppy,pu,up,pp,py,p,u,p,p,y,,,0.7483310841489583,0.9403589460998774,1.1084296610206366,1.2682915690820664,1.3483051399234682,0.0,0.0,puppy,medwf,
49,s217,49,champ,ch,ha,am,mp,c,h,a,m,p,,,0.7201499231159687,0.8241605630610138,0.9361174372024834,1.040084487060085,1.1920419360976666,0.0,0.0,champ,medwf,
50,s217,50,cheer,ch,he,ee,er,c,h,e,e,r,,,0.6761272209696472,0.7562659338582307,0.868115825811401,1.0042421449907124,1.1721831560134888,0.0,0.0,cheer,medwf,
51,s217,51,buddy,bu,ud,dd,dy,b,u,d,d,y,,,0.7841055989265442,0.9681275319308043,1.0401767469011247,1.1841055369004607,1.3042229448910803,0.0,0.0,buddy,highwf,
52,s217,52,druze,dr,ru,uz,ze,d,r,u,z,e,,,1.172151847044006,1.332117365207523,1.4520867131650448,1.708143579075113,1.9000090691260993,0.0,0.0,druze,lowwf,
53,s217,53,faqir,fa,aq,qi,ir,f,a,q,i,r,,,0.8480317899957299,1.0320741990581155,1.3839867028873414,1.5679799208883196,1.7280749308411032,0.0,0.0,faqir,lowwf,
54,s217,54,there,th,he,er,re,t,h,e,r,e,,,0.8598906651604921,0.9639738530386239,1.0599231561645865,1.2199696111492813,1.347946556052193,0.0,0.0,there,highwf,
55,s217,55,zibja,zi,ib,bj,ja,z,i,b,j,a,,,0.7254377598874271,0.8854744450654835,1.077441121917218,1.389419242972508,1.5254411699716002,0.0,0.0,zibja,pseudo,
56,s217,56,therm,th,he,er,rm,t,h,e,r,m,,,0.6915027729701251,0.7714875270612538,0.9074348760768771,1.0433956780470908,1.139400630025193,0.0,0.0,therm,lowwf,
57,s217,57,haole,ha,ao,ol,le,h,a,o,l,e,,,0.8475652309134603,0.9915064829401672,1.079586847918108,1.2476612809114158,1.3116412009112537,0.0,0.0,haole,lowwf,
58,s217,58,would,wo,ou,ul,ld,w,o,u,l,d,,,0.8833434430416673,0.9713216989766806,1.0833237438928336,1.2833498490508646,1.3393917449284345,0.0,0.0,would,highwf,
59,s217,59,lucky,lu,uc,ck,ky,l,u,c,k,y,,,0.7512632780708373,0.9432514121290296,1.063359744148329,1.1993655320256948,1.2792672191280872,0.0,0.0,lucky,highwf,
60,s217,60,faqir,fa,aq,qi,ir,f,a,q,i,r,,,0.6674808820243925,0.8594906867947429,1.1555981310084462,1.2835920858196914,1.4115758738480508,0.0,0.0,faqir,lowwf,
61,s217,61,pykka,py,yk,kk,ka,p,y,k,k,a,,,1.0551869659684598,1.3750835990067571,1.671056617051363,1.8311109161004424,1.9590658089146018,0.0,0.0,pykka,pseudo,
62,s217,62,cooed,co,oo,oe,ed,c,o,o,e,d,,,0.8752982870209962,0.9873647028580308,1.1312608169391751,1.2672839558217674,1.4113369749393314,0.0,0.0,cooed,lowwf,
63,s217,63,vanru,va,an,nr,ru,v,a,n,r,u,,,0.9511849919799715,1.0632956780027598,1.1913320780731738,1.3832863541319966,1.4553248861338943,0.0,0.0,vanru,pseudo,
64,s217,64,there,th,he,er,re,t,h,e,r,e,,,0.6670967261306942,0.7392536979168653,0.859088659984991,1.0111928100232035,1.1551051249261945,0.0,0.0,there,highwf,
65,s217,65,lucky,lu,uc,ck,ky,l,u,c,k,y,,,0.8712873291224241,1.103394526988268,1.2474208150524646,1.3593025850132108,1.447389520937577,0.0,0.0,lucky,highwf,
66,s217,66,kremp,kr,re,em,mp,k,r,e,m,p,,,1.435575342969969,1.515615686075762,1.6595065230503678,1.747547758044675,1.8996102891396731,0.0,0.0,kremp,pseudo,
67,s217,67,therm,th,he,er,rm,t,h,e,r,m,,,0.7354453292209655,0.7834361640270799,0.9194483000319451,1.0634280811063945,1.1194682121276855,0.0,0.0,therm,lowwf,
68,s217,68,tithe,ti,it,th,he,t,i,t,h,e,,,0.7795279948040843,1.5794887468218803,1.7076006908901036,1.8195974179543555,1.9235892079304904,0.0,0.0,tithe,lowwf,
69,s217,69,theme,th,he,em,me,t,h,e,m,e,,,0.7033095899969339,0.8072355859912932,0.90335609507747,1.0312405000440776,1.071353018982336,0.0,0.0,theme,medwf,
70,s217,70,champ,ch,ha,am,mp,c,h,a,m,p,,,0.7073110919445753,0.7553696199320257,0.8672452259343117,0.9633356458507478,1.1153235449455678,0.0,0.0,champ,medwf,
71,s217,71,heond,he,eo,on,nd,h,e,o,n,d,,,0.8633374301716685,1.0232723699882627,1.103268533013761,1.3032915671356022,1.407283985055983,0.0,0.0,heond,pseudo,
72,s217,72,kremp,kr,re,em,mp,k,r,e,m,p,,,0.9235341059975326,0.9875093540176749,1.1314649928826839,1.2114545449148864,1.3715366849210113,0.0,0.0,kremp,pseudo,
73,s217,73,buddy,bu,ud,dd,dy,b,u,d,d,y,,,0.695388293126598,0.8553196489810944,0.8873559830244631,1.0393202400300652,1.1512606390751898,0.0,0.0,buddy,highwf,
74,s217,74,belly,be,el,ll,ly,b,e,l,l,y,,,0.6752432310022414,0.7791287929285318,0.9391231490299106,1.1072380598634481,1.2352002509869635,0.0,0.0,belly,medwf,
75,s217,75,vodka,vo,od,dk,ka,v,o,d,k,a,,,0.847313801990822,0.927332263905555,1.0633436450734735,1.1913765440694988,1.3272900120355189,0.0,0.0,vodka,medwf,
76,s217,76,vanru,va,an,nr,ru,v,a,n,r,u,,,0.8752088940236717,1.0111610610038042,1.123107838910073,1.2351009480189532,1.3152151079848409,0.0,0.0,vanru,pseudo,
77,s217,77,cheer,ch,he,ee,er,c,h,e,e,r,,,0.6954435019288212,0.7512973248958588,0.8793278029188514,1.0073270159773529,1.151301448000595,0.0,0.0,cheer,medwf,
78,s217,78,think,th,hi,in,nk,t,h,i,n,k,,,0.6912408210337162,0.7792876090388745,0.9153419111389667,1.0193255601916462,1.1392928920686245,0.0,0.0,think,highwf,
79,s217,79,haole,ha,ao,ol,le,h,a,o,l,e,,,1.175231282133609,1.3353122351691127,1.4952962261158973,1.74319021217525,1.8713217040058225,0.0,0.0,haole,lowwf,
80,s217,80,vodka,vo,od,dk,ka,v,o,d,k,a,,,1.1153462880756706,1.2273086591158062,1.3954553881194443,1.5634666411206126,1.6833899240009487,0.0,0.0,vodka,medwf,
81,s217,81,would,wo,ou,ul,ld,w,o,u,l,d,,,0.6471138470806181,0.7270526580978185,0.8630864080041647,1.0631044739857316,1.1670151569414884,0.0,0.0,would,highwf,
82,s217,82,vanru,va,an,nr,ru,a,v,n,r,u,,,0.9074072178918868,0.9074072178918868,1.2194999649655074,1.3954574018716812,1.5235143569298089,0.0,0.0,avnru,pseudo,
83,s217,83,edthe,ed,dt,th,he,e,d,t,h,e,,,0.7349981018342078,0.9030201740097255,1.0949763630051166,1.1910536009818316,1.2950489369686693,0.0,0.0,edthe,pseudo,
84,s217,84,vanru,va,an,nr,ru,v,a,n,r,u,,,0.787275074981153,0.9152663629502058,1.0512024508789182,1.1713059039320797,1.2592620179057121,0.0,0.0,vanru,pseudo,
85,s217,85,buddy,bu,ud,dd,dy,b,u,d,d,y,,,0.7510676169767976,0.9031911140773445,1.071073492988944,1.2071867110207677,1.3031878711190075,0.0,0.0,buddy,highwf,
86,s217,86,cheer,ch,he,ee,er,c,h,e,e,r,,,0.6590735090430826,0.7310268969740719,0.8509807931259274,0.9950886410661042,1.1389821900520474,0.0,0.0,cheer,medwf,
87,s217,87,about,ab,bo,ou,ut,a,b,o,u,t,,,0.6309961299411952,0.8151059739757329,0.9190823999233544,1.023063383065164,1.0950601459480822,0.0,0.0,about,highwf,
88,s217,88,think,th,hi,in,nk,t,h,i,n,k,,,0.6511319300625473,0.723186754155904,0.8671242501586676,0.9711270581465214,1.0911164002027363,0.0,0.0,think,highwf,
89,s217,89,pykka,py,yk,kk,ka,p,y,k,k,a,,,0.8790496420115232,1.0471471478231251,1.2071335760410875,1.3510603469330817,1.4471487428527325,0.0,0.0,pykka,pseudo,
90,s217,90,belly,be,el,ll,ly,b,e,l,l,y,,,0.7551688069943339,0.8832505499012768,1.0112484809942544,1.1552001009695232,1.2671441019047052,0.0,0.0,belly,medwf,
91,s217,91,lucky,lu,uc,ck,ky,l,u,c,k,y,,,0.6547563339117914,0.878686279989779,1.0306855749804527,1.1666347670834512,1.262715064920485,0.0,0.0,lucky,highwf,
92,s217,92,cheer,ch,he,ee,er,c,h,e,e,r,,,0.6511598620563745,0.7551776699256152,0.891223510960117,1.0272024620790035,1.1711591840721667,0.0,0.0,cheer,medwf,
93,s217,93,faqir,fa,aq,qi,ir,f,a,q,i,r,,,0.78266930882819,0.9425523430109024,1.1986311108339578,1.350558603880927,1.5026580719277263,0.0,0.0,faqir,lowwf,
94,s217,94,belly,be,el,ll,ly,b,e,l,l,y,,,1.083301908802241,1.5312849758192897,1.7073066588491201,1.891344778938219,2.0193269059527665,0.0,0.0,belly,medwf,
95,s217,95,think,th,hi,in,nk,t,h,i,n,k,,,0.7913134431000799,0.8873227802105248,1.0312335300259292,1.1512007331475616,1.2633079050574452,0.0,0.0,think,highwf,
96,s217,96,pykka,py,yk,kk,ka,p,y,k,k,a,,,1.0110881149303168,1.2111482890322804,1.4591272929683328,1.6111260850448161,1.7471319809556007,0.0,0.0,pykka,pseudo,
97,s217,97,puppy,pu,up,pp,py,p,u,p,p,y,,,1.0952260808553547,1.383257295936346,1.695215645013377,1.8872418829705566,2.119219349930063,0.0,0.0,puppy,medwf,
98,s217,98,think,th,hi,in,nk,t,h,i,n,k,,,1.46719553694129,1.5152134969830513,1.6512060479726642,1.747251459164545,1.8432102091610432,0.0,0.0,think,highwf,
99,s217,99,heond,he,eo,on,nd,h,e,o,n,d,,,0.8711386078502983,0.9991374788805842,1.0870960529427975,1.2790377310011536,1.3991337560582906,0.0,0.0,heond,pseudo,
100,s217,100,therm,th,he,er,rm,t,h,e,r,m,,,0.6671144971624017,0.7311100380029529,0.8510891869664192,0.9951919270679355,1.0670750471763313,0.0,0.0,therm,lowwf,
101,s217,101,about,ab,bo,ou,ut,a,b,o,u,t,,,0.615200205007568,0.7991939519997686,0.8631880518514663,0.9750735680572689,1.031089355936274,0.0,0.0,about,highwf,
102,s217,102,tithe,ti,it,th,he,t,i,t,h,e,,,0.8509398801252246,1.8830335410311818,2.14702546200715,2.3150040470063686,2.4750675880350173,0.0,0.0,tithe,lowwf,
103,s217,103,druze,dr,ru,uz,ze,d,r,u,z,e,,,0.727130571147427,0.8632242120802402,0.9351803241297603,1.103189186193049,1.2552420450374484,0.0,0.0,druze,lowwf,
104,s217,104,edthe,ed,dt,th,he,e,d,t,h,e,,,0.6986510739661753,0.8906740280799568,1.0586705461610109,1.1306427060626447,1.2505915211513638,0.0,0.0,edthe,pseudo,
105,s217,105,vodka,vo,od,dk,ka,v,o,d,k,a,,,0.8631685490254313,0.9510543178766966,1.0631548559758812,1.2951454978901893,1.4471354349516332,0.0,0.0,vodka,medwf,
106,s217,106,zibja,zi,ib,bj,ja,a,i,b,j,k,a,,0.827112081926316,0.9230873838532716,1.1071455818600953,1.307163619901985,1.3151633888483047,1.435227612964809,0.0,aibjka,pseudo,
107,s217,107,vodka,vo,od,dk,ka,v,o,d,k,a,,,1.4711922609712929,1.5511687719263136,1.8712617070414126,1.9752832578960806,2.1032801799010485,0.0,0.0,vodka,medwf,
108,s217,108,there,th,he,er,re,t,h,e,r,e,,,0.6992218720261008,0.7711219699122012,0.8831853030715138,1.0351814171299338,1.1632611099630594,0.0,0.0,there,highwf,
109,s217,109,puppy,pu,up,pp,py,p,u,p,p,y,,,1.1031864369288087,1.3431182049680501,1.5752447959966958,1.7352261040359735,1.9352057499345392,0.0,0.0,puppy,medwf,
110,s217,110,belly,be,el,ll,ly,b,e,l,l,y,,,1.0032035619951785,1.2031984589993954,1.3311207660008222,1.56316251703538,1.6831932659260929,0.0,0.0,belly,medwf,
111,s217,111,kremp,kr,re,em,mp,k,r,e,m,p,,,0.7750475821085274,0.8630935160908848,1.015020202146843,1.2070216061547399,1.3509192899800837,0.0,0.0,kremp,pseudo,
112,s217,112,there,th,he,er,re,t,h,e,r,e,,,0.7470307720359415,0.8350094661582261,0.9309803710784763,1.083018576959148,1.2190500400029123,0.0,0.0,there,highwf,
113,s217,113,druze,dr,ru,uz,ze,d,r,u,z,e,,,0.6787295788526535,0.8387692328542471,0.926707228878513,1.0708091808483005,1.1988139059394598,0.0,0.0,druze,lowwf,
114,s217,114,therm,th,he,er,rm,t,h,e,r,m,,,0.6266486020758748,0.6987141380086541,0.8187501451466233,0.9706681941170245,1.0827618511393666,0.0,0.0,therm,lowwf,
115,s217,115,faqir,fa,aq,qi,ir,f,a,q,i,r,,,0.6545710200443864,0.8225306360982358,1.0784328570589423,1.1825305600650609,1.3025447770487517,0.0,0.0,faqir,lowwf,
116,s217,116,buddy,bu,ud,dd,dy,b,u,d,d,y,,,0.7307930269744247,0.8828909120056778,1.0427943591494113,1.162812712136656,1.2267930191010237,0.0,0.0,buddy,highwf,
117,s217,117,zibja,zi,ib,bj,ja,z,i,b,j,a,,,1.1668985201977193,1.2630955029744655,1.6150240721181035,1.8309205980040133,1.9509273180738091,0.0,0.0,zibja,pseudo,
118,s217,118,pykka,py,yk,kk,ka,p,y,k,k,a,,,1.6349750449880958,2.0909993699751794,2.3469686419703066,2.5549099619966,2.682989224093035,0.0,0.0,pykka,pseudo,
119,s217,119,cooed,co,oo,oe,ed,c,o,o,e,d,,,0.9427092759869993,1.510828749043867,1.7187712739687413,2.0147009259089828,2.2228090409189463,0.0,0.0,cooed,lowwf,
120,s217,120,cooed,co,oo,oe,ed,c,o,o,e,d,,,1.093372476985678,1.2613089720252901,1.4133725469000638,1.5252732699736953,1.6772617769893259,0.0,0.0,cooed,lowwf,
121,s217,121,champ,ch,ha,am,mp,c,h,a,m,p,,,0.710874536074698,0.7989044489804655,0.8949006660841405,1.0148038470651954,1.1748639149591327,0.0,0.0,champ,medwf,
122,s217,122,zibja,zi,ib,bj,ja,z,i,b,j,a,,,0.8107807710766792,0.9467419239226729,1.2346594100818038,1.6346678230911493,1.7386581629980356,0.0,0.0,zibja,pseudo,
123,s217,123,druze,dr,ru,uz,ze,d,r,u,z,e,,,1.3268586748745292,1.574934622971341,1.7508300100453198,2.014897096902132,2.294957486912608,0.0,0.0,druze,lowwf,
124,s217,124,belly,be,el,ll,ly,b,e,l,l,y,,,1.0907309260219336,1.4987719180062413,1.7947930700611323,2.0028127799741924,2.194794154027477,0.0,0.0,belly,medwf,
125,s217,125,tithe,ti,it,th,he,t,i,t,h,e,,,1.1108274911530316,1.2708574801217765,1.7188829721417278,1.9268000579904765,2.046827299054712,0.0,0.0,tithe,lowwf,
126,s217,126,there,th,he,er,re,t,h,e,r,e,,,0.6908350049052387,0.7548156299162656,0.8668075199238956,1.0188745460473,1.1628569860477,0.0,0.0,there,highwf,
127,s217,127,vodka,vo,od,dk,ka,v,o,d,k,a,,,0.7904961730819196,0.9024488190189004,1.0224480780307204,1.1583701779600233,1.2544844229705632,0.0,0.0,vodka,medwf,
128,s217,128,belly,be,el,ll,ly,b,e,l,l,y,,,0.7863653670065105,0.9142438829876482,1.0422403879929334,1.1943216719664633,1.2903225310146809,0.0,0.0,belly,medwf,
129,s217,129,faqir,fa,aq,qi,ir,f,a,q,i,r,,,1.0227667270228267,1.2388445839751512,1.4547281910199672,1.542729307198897,1.678798042004928,0.0,0.0,faqir,lowwf,
130,s217,130,druze,dr,ru,uz,ze,d,r,u,z,e,,,0.8589784780051559,1.1469864111859351,1.4509051411878318,1.650911003118381,2.018999793101102,0.0,0.0,druze,lowwf,
131,s217,131,buddy,bu,ud,dd,dy,b,u,d,d,y,,,0.7988314121030271,0.9267543370369822,1.038843991002068,1.158772719092667,1.2228556380141526,0.0,0.0,buddy,highwf,
132,s217,132,champ,ch,ha,am,mp,c,h,a,m,p,,,0.7310574850998819,0.7549959700554609,0.8670692550949752,0.9630278891418129,1.123086913023144,0.0,0.0,champ,medwf,
133,s217,133,lucky,lu,uc,ck,ky,l,u,c,k,y,,,0.750869092065841,0.9428844500798732,1.0469631121959537,1.174984886078164,1.2628913770895451,0.0,0.0,lucky,highwf,
134,s217,134,about,ab,bo,ou,ut,a,b,o,u,t,,,0.6187691090162843,0.8027175518218428,0.8506618689280003,0.9867761200293899,1.0348130099009722,0.0,0.0,about,highwf,
135,s217,135,would,wo,ou,ul,ld,w,o,u,l,d,,,0.854660461191088,0.9666543200146407,1.0946412130724639,1.286606365116313,1.3666528901085258,0.0,0.0,would,highwf,
136,s217,136,heond,he,eo,on,nd,h,e,o,n,d,,,1.9868088457733393,2.2027890509925783,2.322676580864936,2.4907399609219283,2.5947699567768723,0.0,0.0,heond,pseudo,
137,s217,137,cooed,co,oo,oe,ed,c,o,o,e,d,,,0.838805889012292,0.9107699061278254,1.0788400880992413,1.182825184194371,1.3427286301739514,0.0,0.0,cooed,lowwf,
138,s217,138,edthe,ed,dt,th,he,e,d,t,h,e,,,0.6904579610563815,0.8345305339898914,1.0345756269525737,1.0745948001276702,1.218519750982523,0.0,0.0,edthe,pseudo,
139,s217,139,theme,th,he,em,me,t,h,e,m,e,,,0.63762380881235,0.6937304779421538,0.8136760958004743,0.9416378559544683,0.9657559730112553,0.0,0.0,theme,medwf,
140,s217,140,about,ab,bo,ou,ut,a,b,o,u,t,,,0.6267859239596874,0.7948680319823325,0.8749079790432006,0.9869012699928135,1.026764641981572,0.0,0.0,about,highwf,
141,s217,141,cheer,ch,he,ee,er,c,h,e,e,r,,,0.622590065933764,0.718552959850058,0.8225314938463271,0.9504681678954512,1.0946001869160682,0.0,0.0,cheer,medwf,
142,s217,142,there,th,he,er,re,t,h,e,r,e,,,0.6028860991355032,0.6427796189673245,0.7707616961561143,0.9148702451493591,1.0507709241937846,0.0,0.0,there,highwf,
143,s217,143,belly,be,el,ll,ly,b,e,l,y,,,,0.7024668799713254,0.8143664300441742,1.134396631969139,1.2864418081007898,0.0,0.0,0.0,bely,medwf,
144,s217,144,lucky,lu,uc,ck,ky,l,u,c,k,y,,,0.794901774963364,0.9628611688967794,1.0590097878593951,1.1789454398676753,1.2588888378813863,0.0,0.0,lucky,highwf,
145,s217,145,champ,ch,ha,am,mp,c,h,a,m,p,,,0.6788672229740769,0.7507244721055031,0.870848850114271,1.0147805151063949,1.246860405197367,0.0,0.0,champ,medwf,
146,s217,146,therm,th,he,er,rm,t,h,e,r,m,,,0.770669732009992,0.8505873400717974,0.9866656721569598,1.1466598841361701,1.2026810990646482,0.0,0.0,therm,lowwf,
147,s217,147,there,th,he,er,re,t,h,e,r,w,e,,1.6307562950532883,1.7827973291277885,1.8626987040042877,2.04679290112108,2.1907222950831056,2.1907222950831056,0.0,therwe,highwf,
148,s217,148,zibja,zi,ib,bj,ja,z,i,b,j,a,,,0.8906040070578456,1.0264882629271597,1.4344934208784252,1.6985622539650649,1.794588069897145,0.0,0.0,zibja,pseudo,
149,s217,149,pykka,py,yk,kk,ka,p,y,k,k,a,,,0.8542622660752386,1.0222332901321352,1.1582625519949943,1.3101993759628385,1.3743236721493304,0.0,0.0,pykka,pseudo,
150,s217,150,tithe,ti,it,th,he,t,i,t,h,e,,,1.2020331411622465,1.4500466149765998,1.6420279829762876,1.8660486740991473,1.970056176185608,0.0,0.0,tithe,lowwf,
151,s217,151,heond,he,eo,on,nd,h,e,o,n,d,,,1.2139027460943907,1.3979204760398716,1.541956084081903,1.8219437829684466,1.9579788260161877,0.0,0.0,heond,pseudo,
152,s217,152,belly,be,el,ll,ly,b,e,l,l,y,,,0.7381406589411199,0.8582049820106477,0.9701866200193763,1.1302056161221117,1.2341469780076295,0.0,0.0,belly,medwf,
153,s217,153,cheer,ch,he,ee,er,c,h,e,e,r,,,0.6701908418908715,0.766220852965489,1.1502113488968462,1.390230811899528,1.6142108428757638,0.0,0.0,cheer,medwf,
154,s217,154,druze,dr,ru,uz,ze,d,r,u,z,e,,,0.6976235487964004,0.8896868908777833,0.9696900718845427,1.121646729996428,1.2736959108151495,0.0,0.0,druze,lowwf,
155,s217,155,tithe,ti,it,th,he,t,i,t,h,e,,,0.7740913729649037,0.9340241069439799,1.0701156330760568,1.2460360201075673,1.3741200030781329,0.0,0.0,tithe,lowwf,
156,s217,156,druze,dr,ru,uz,ze,d,r,u,z,e,,,0.9056560751050711,1.0817119949497283,1.1297050858847797,1.3137822120916098,1.4417768879793584,0.0,0.0,druze,lowwf,
157,s217,157,cooed,co,oo,oe,ed,c,o,o,e,d,,,0.6540453531779349,0.7820051540620625,0.9259585100226104,1.0220133361872286,1.1740083121694624,0.0,0.0,cooed,lowwf,
158,s217,158,heond,he,eo,on,nd,h,o,e,n,d,,,1.0978119671344757,1.5219047209247947,1.6658940841443837,1.8177844749297947,1.9298244691453874,0.0,0.0,hoend,pseudo,
159,s217,159,would,wo,ou,ul,ld,w,o,u,l,d,,,0.9977859100326896,1.0698337478097528,1.1977381890174001,1.37384077697061,1.4298033360391855,0.0,0.0,would,highwf,
160,s217,160,haole,ha,ao,ol,le,h,a,o,l,e,,,1.6421426171436906,1.866090509109199,1.9939816121477634,2.1861000841017812,2.2660770029760897,0.0,0.0,haole,lowwf,
161,s217,161,belly,be,el,ll,ly,b,e,l,l,y,,,0.6619946968276054,0.7819410900119692,0.9178976989351213,1.0700208710040897,1.1578968798276037,0.0,0.0,belly,medwf,
162,s217,162,edthe,ed,dt,th,he,e,d,t,h,e,,,0.6897855689749122,0.8737244950607419,1.049826507922262,1.1377086949069053,1.2337133360560983,0.0,0.0,edthe,pseudo,
163,s217,163,lucky,lu,uc,ck,ky,l,u,c,k,y,,,0.685947691090405,0.8779420210048556,0.9979189659934491,1.1178551600314677,1.2139145280234516,0.0,0.0,lucky,highwf,
164,s217,164,cheer,ch,he,ee,er,c,h,e,e,r,,,0.7057577399536967,0.7698785080574453,0.8818589779548347,1.0177490189671516,1.1698702310677618,0.0,0.0,cheer,medwf,
165,s217,165,about,ab,bo,ou,ut,a,b,o,u,t,,,0.5976492881309241,0.781702937092632,0.8777025809977204,0.9737123420927674,1.0296447109431028,0.0,0.0,about,highwf,
166,s217,166,would,wo,ou,ul,ld,w,o,u,l,d,,,0.7540141609497368,0.8979759849607944,1.03389479406178,1.2259108040016145,1.3380053690634668,0.0,0.0,would,highwf,
167,s217,167,haole,ha,ao,ol,le,h,a,o,l,e,,,1.0061164700891823,1.142005308996886,1.2540958479512483,1.4460165880154818,2.2460162669885904,0.0,0.0,haole,lowwf,
168,s217,168,kremp,kr,re,em,mp,k,r,e,m,p,,,0.9621142109390348,1.0179502770770341,1.1700185099616647,1.2261125911027193,1.39400212909095,0.0,0.0,kremp,pseudo,
169,s217,169,therm,th,he,er,rm,t,h,e,r,m,,,0.6456762200687081,0.717690119985491,0.829838888021186,0.9736851039342582,1.0456976839341223,0.0,0.0,therm,lowwf,
170,s217,170,faqir,fa,aq,qi,ir,f,q,i,r,,,,0.777726419037208,1.0976174480747432,1.8736123510170728,2.025777901057154,0.0,0.0,0.0,fqir,lowwf,
171,s217,171,puppy,pu,up,pp,py,p,u,p,p,y,,,1.0378500868100673,1.205889139790088,1.397793181007728,1.5177683148067445,1.6619096908252686,0.0,0.0,puppy,medwf,
172,s217,172,edthe,ed,dt,th,he,e,d,t,h,e,,,0.7937260291073471,0.9778953830245882,1.153841455001384,1.2337326351553202,1.3457276411354542,0.0,0.0,edthe,pseudo,
173,s217,173,faqir,fa,aq,qi,ir,f,a,q,i,r,,,0.7098386948928237,0.9018676520790905,1.2059561959467828,1.3098444589413702,1.5178326710592955,0.0,0.0,faqir,lowwf,
174,s217,174,vanru,va,an,nr,ru,v,a,n,r,u,,,0.9374606311321259,1.0574748159851879,1.201355051016435,1.3454021660145372,1.4333354709669948,0.0,0.0,vanru,pseudo,
175,s217,175,therm,th,he,er,rm,t,h,e,r,m,,,0.7657043889630586,0.869753094855696,0.973753138910979,1.1257285960018635,1.2137714480049908,0.0,0.0,therm,lowwf,
176,s217,176,faqir,fa,aq,qi,ir,f,a,q,i,r,,,0.729773486033082,0.8578019719570875,1.1697869671043009,1.2577924779616296,1.385796993970871,0.0,0.0,faqir,lowwf,
177,s217,177,pykka,py,yk,kk,ka,p,y,k,k,a,,,0.9652534581255168,1.2533078619744629,1.6613237080164254,1.8133088659960777,1.9413270989898592,0.0,0.0,pykka,pseudo,
178,s217,178,puppy,pu,up,pp,py,p,u,p,p,y,,,1.2738872459158301,1.4737665608990937,1.7138418948743492,1.8337551557924598,2.097816319903359,0.0,0.0,puppy,medwf,
179,s217,179,therm,th,he,er,rm,t,h,e,r,m,,,0.7579265860840678,0.8298692889511585,0.9579812730662525,1.093874413985759,1.1739286570809782,0.0,0.0,therm,lowwf,
180,s217,180,theme,th,he,em,me,t,h,e,m,e,,,0.8258697888813913,0.897849032888189,1.0258401138707995,1.13797346688807,1.193846127949655,0.0,0.0,theme,medwf,
181,s217,181,tithe,ti,it,th,he,t,i,t,h,e,,,0.6699892010074109,0.8458762378431857,0.9499386248644441,1.1019670569803566,1.2139614259358495,0.0,0.0,tithe,lowwf,
182,s217,182,heond,he,eo,on,nd,h,e,o,n,d,,,0.8337092180736363,0.977847252972424,1.0817239759489894,1.2418461928609759,1.3378301670309156,0.0,0.0,heond,pseudo,
183,s217,183,lucky,lu,uc,ck,ky,l,u,c,k,y,,,0.7817955629434437,0.9498263068962842,1.085858705919236,1.181855133967474,1.269811478909105,0.0,0.0,lucky,highwf,
184,s217,184,vanru,va,an,nr,ru,v,a,n,r,u,,,0.929675554856658,0.9537455309182405,2.4816438108682632,2.6256240180227906,2.7057005800306797,0.0,0.0,vanru,pseudo,
185,s217,185,would,wo,ou,ul,ld,w,o,u,l,d,,,0.669508159859106,0.7494944760110229,0.8776007418055087,1.0535491509363055,1.1334577780216932,0.0,0.0,would,highwf,
186,s217,186,there,th,he,er,re,t,h,e,r,e,,,0.6817480339668691,0.7456339378841221,0.8577595967799425,1.001703652786091,1.1537276189774275,0.0,0.0,there,highwf,
187,s217,187,vodka,vo,od,dk,ka,v,o,d,k,a,,,0.941827388945967,1.077866543084383,1.341818534070626,1.4777673920616508,1.5978112779557705,0.0,0.0,vodka,medwf,
188,s217,188,lucky,lu,uc,ck,ky,l,u,c,k,y,,,0.6656552890781313,0.8336705500259995,0.9617208349518478,1.089658420998603,1.1935797149781138,0.0,0.0,lucky,highwf,
189,s217,189,buddy,bu,ud,dd,dy,b,u,d,d,y,,,0.7173697198741138,0.8534091629553586,0.9654742619022727,1.0854060740675777,1.1494813349563628,0.0,0.0,buddy,highwf,
190,s217,190,think,th,hi,in,nk,t,h,i,n,k,,,0.681752695934847,0.7376776079181582,0.8817767109721899,0.9697923960629851,1.0816452850122005,0.0,0.0,think,highwf,
191,s217,191,buddy,bu,ud,dd,dy,b,u,d,d,y,,,0.8376937340945005,0.957710734102875,1.0776089781429619,1.2056651711463928,1.2776510971598327,0.0,0.0,buddy,highwf,
192,s217,192,cooed,co,oo,oe,ed,o,o,e,d,,,,0.9778813018929213,1.6018273539375514,1.7857809618581086,1.9537932318635285,0.0,0.0,0.0,ooed,lowwf,
193,s217,193,buddy,bu,ud,dd,dy,b,u,d,d,y,,,0.7738236770965159,0.9097672011703253,1.0217700710054487,1.1417735361028463,1.213877959176898,0.0,0.0,buddy,highwf,
194,s217,194,champ,ch,ha,am,mp,c,h,a,m,p,,,0.71392019581981,0.7938323349226266,0.9059518929570913,1.0098465629853308,1.1699043079279363,0.0,0.0,champ,medwf,
195,s217,195,puppy,pu,up,pp,py,p,u,p,p,y,,,0.7012676598969847,0.8852844499051571,1.053251548903063,1.197242444846779,1.2772489879280329,0.0,0.0,puppy,medwf,
196,s217,196,pykka,py,yk,kk,ka,p,y,k,k,a,,,1.097502542892471,1.2735148698557168,1.4495056848973036,1.5933962559793144,1.6894866519141942,0.0,0.0,pykka,pseudo,
197,s217,197,there,th,he,er,re,t,h,e,r,e,,,0.8056511839386076,0.8696547569707036,0.9975983120966703,1.1495825429446995,1.2856271050404757,0.0,0.0,there,highwf,
198,s217,198,therm,th,he,er,rm,t,h,e,r,m,,,0.657657298957929,0.7295598569326103,0.8576545119285583,0.9776040890719742,1.0816216669045389,0.0,0.0,therm,lowwf,
199,s217,199,kremp,kr,re,em,mp,k,t,r,e,r,m,p,1.00570303411223,1.1175945000723004,1.1175945000723004,1.253726250026375,1.253726250026375,1.2857069100718945,1.4777475611772388,ktrermp,pseudo,
200,s217,200,druze,dr,ru,uz,ze,d,r,u,z,e,,,0.7615420278161764,0.9135170858353376,0.9934174928348511,1.1375048498157412,1.265506427967921,0.0,0.0,druze,lowwf,
201,s217,201,would,wo,ou,ul,ld,w,o,u,l,d,,,0.6934717989061028,0.7895098289009184,0.9094847508240491,1.0934705219697207,1.1575533519499004,0.0,0.0,would,highwf,
202,s217,202,haole,ha,ao,ol,le,h,a,o,l,e,,,0.8013133141212165,0.9692946779541671,1.0572420200333,1.2492924961261451,1.3292153261136264,0.0,0.0,haole,lowwf,
203,s217,203,vanru,va,an,nr,ru,v,a,n,r,u,,,0.8454840849153697,0.9815868008881807,1.0775093310512602,1.197531946003437,1.2695350348949432,0.0,0.0,vanru,pseudo,
204,s217,204,kremp,kr,re,em,mp,k,r,e,m,p,,,0.8255136678926647,0.9215826608706266,1.081570261856541,1.1456017438322306,1.2895852799993008,0.0,0.0,kremp,pseudo,
205,s217,205,theme,th,he,em,me,t,h,e,m,e,,,0.6693596031982452,0.7573578690644354,0.8853588351048529,0.9813158800825477,1.045271861134097,0.0,0.0,theme,medwf,
206,s217,206,buddy,bu,ud,dd,dy,b,u,d,d,y,,,0.7216824188362807,0.8415893770288676,0.9616429668385535,1.0895867149811238,1.1456483048386872,0.0,0.0,buddy,highwf,
207,s217,207,puppy,pu,up,pp,py,p,u,p,p,y,,,0.6857135868631303,0.8617177798878402,1.0056415600702167,1.157742413925007,1.237630648072809,0.0,0.0,puppy,medwf,
208,s217,208,tithe,ti,it,th,he,t,i,t,h,e,,,0.7937056899536401,1.0737767461687326,1.249739543069154,1.3858367761131376,1.4977461560629308,0.0,0.0,tithe,lowwf,
209,s217,209,faqir,fa,aq,qi,ir,f,a,q,i,r,,,0.7095141860190779,0.9095020371023566,1.5416180880274624,1.7416139040142298,2.1335896051023155,0.0,0.0,faqir,lowwf,
210,s217,210,zibja,zi,ib,bj,ja,z,i,b,j,a,,,1.2496105700265616,1.5456546328496188,1.7536492068320513,2.0095366009045392,2.177583248820156,0.0,0.0,zibja,pseudo,
211,s217,211,edthe,ed,dt,th,he,e,d,t,h,e,,,0.7332533800508827,0.9092426071874797,1.1092399230692536,1.197324002161622,1.3172341990284622,0.0,0.0,edthe,pseudo,
212,s217,212,puppy,pu,up,pp,py,p,u,p,p,y,,,0.6972077509853989,0.8652554780710489,1.0251619638875127,1.1612851680256426,1.2891734261065722,0.0,0.0,puppy,medwf,
213,s217,213,vodka,vo,od,dk,ka,v,o,d,k,a,,,0.9336774239782244,1.053687637904659,1.3576905159279704,1.5015569690149277,1.6376769898924977,0.0,0.0,vodka,medwf,
214,s217,214,heond,he,eo,on,nd,h,e,o,n,d,,,1.5454856529831886,1.7614288600161672,1.9615384419448674,2.217384162126109,2.393428336130455,0.0,0.0,heond,pseudo,
215,s217,215,about,ab,bo,ou,ut,a,b,o,u,t,,,0.5733476949390024,0.7813230000901967,0.837348042987287,0.9734113549347967,1.021361512131989,0.0,0.0,about,highwf,
216,s217,216,zibja,zi,ib,bj,ja,z,i,b,j,a,,,1.136461271904409,1.312537619844079,1.5284695599693805,1.6884658599738032,1.8084681308828294,0.0,0.0,zibja,pseudo,
217,s217,217,vodka,vo,od,dk,ka,v,o,d,k,a,,,0.9414746479596943,1.1414468849543482,1.909377777017653,2.0453847679309547,2.173431518021971,0.0,0.0,vodka,medwf,
218,s217,218,edthe,ed,dt,th,he,e,d,t,h,e,,,0.8095398908481002,0.9856495498679578,1.1696095899678767,1.2095395689830184,1.3376107020303607,0.0,0.0,edthe,pseudo,
219,s217,219,cooed,co,oo,oe,ed,c,o,o,e,d,,,0.7496761849615723,0.8936178449075669,1.0457514349836856,1.1257388431113213,1.2776440889574587,0.0,0.0,cooed,lowwf,
220,s217,220,cheer,ch,he,ee,er,c,h,e,e,r,,,0.7056420580483973,0.7935176470782608,0.9136093249544501,1.0496263050008565,1.2015531009528786,0.0,0.0,cheer,medwf,
221,s217,221,think,th,hi,in,nk,t,h,i,n,k,,,0.6294928749557585,0.6934562548995018,0.8295168459881097,0.9254905970301479,1.0375386548694223,0.0,0.0,think,highwf,
222,s217,222,vanru,va,an,nr,ru,v,a,n,r,u,,,0.7854790859855711,0.8814461189322174,1.0173892590682954,1.137465009931475,1.2093990130815655,0.0,0.0,vanru,pseudo,
223,s217,223,pykka,py,yk,kk,ka,p,y,k,k,a,,,1.1094047541264445,1.4214482391253114,1.725469958037138,1.8854913890827447,2.0135180929210037,0.0,0.0,pykka,pseudo,
224,s217,224,think,th,hi,in,nk,t,h,i,n,k,,,0.7054054890759289,0.8012862240429968,0.9373780980240554,1.0413040909916162,1.1373958480544388,0.0,0.0,think,highwf,
225,s217,225,pykka,py,yk,kk,ka,p,y,k,k,a,,,1.0453441049903631,1.2933149749878794,1.5253886098507792,1.6854087950196117,1.757383078802377,0.0,0.0,pykka,pseudo,
226,s217,226,cheer,ch,he,ee,er,c,h,e,e,r,,,0.6973524249624461,0.7773539780173451,0.9374383930116892,1.0654088789597154,1.2973531300667673,0.0,0.0,cheer,medwf,
227,s217,227,about,ab,bo,ou,ut,a,b,o,u,t,,,0.63745774095878,0.8373804700095206,0.9254922750405967,1.061497534159571,1.1334765050560236,0.0,0.0,about,highwf,
228,s217,228,haole,ha,ao,ol,le,h,a,o,l,e,,,0.8735074051655829,1.1295580801088363,1.2975152879953384,1.5294696290511638,1.6655298999976367,0.0,0.0,haole,lowwf,
229,s217,229,think,th,hi,in,nk,t,h,i,n,k,,,0.6209466271102428,0.6929667762015015,0.8210417190566659,0.9410046450793743,1.0530495829880238,0.0,0.0,think,highwf,
230,s217,230,kremp,kr,re,em,mp,k,r,e,m,o,,,0.8093191569205374,0.9293857070151716,1.0894248778931797,1.2173151900060475,1.3534297028090805,0.0,0.0,kremo,pseudo,
231,s217,231,vanru,va,an,nr,ru,v,a,n,r,u,,,0.757255497155711,0.9412542951758951,1.02920486102812,1.1731859361752868,1.2771802141796798,0.0,0.0,vanru,pseudo,
232,s217,232,vodka,vo,od,dk,ka,v,o,d,k,a,,,0.7613639130722731,0.9932951088994741,1.2092899929266423,1.4172768918797374,1.625406086910516,0.0,0.0,vodka,medwf,
233,s217,233,kremp,kr,re,em,mp,k,r,e,m,o,,,0.9090216290205717,0.9890860449522734,1.133118148893118,1.1971472708974034,1.3490925868973136,0.0,0.0,kremo,pseudo,
234,s217,234,think,th,hi,in,nk,t,h,i,n,k,,,0.6490352009423077,0.7289614561013877,0.8730748749803752,0.9929571899119765,1.089077431941405,0.0,0.0,think,highwf,
235,s217,235,theme,th,he,em,me,t,h,e,m,e,,,0.6771400298457593,0.7811737468000501,0.8931544090155512,0.9972314308397472,1.069254423957318,0.0,0.0,theme,medwf,
236,s217,236,zibja,zi,ib,bj,ja,z,i,b,k,a,,,1.1132262418977916,1.2492473439779133,1.4171459178905934,1.5931362379342318,1.8252730588428676,0.0,0.0,zibka,pseudo,
237,s217,237,theme,th,he,em,me,t,h,e,m,e,,,0.8132191149052233,0.8692224479746073,1.0372503900434822,1.1651391480118036,1.237145016901195,0.0,0.0,theme,medwf,
238,s217,238,champ,ch,ha,am,mp,c,h,a,m,p,,,0.7614717229735106,0.8495230940170586,0.945497727021575,1.033490692032501,1.1934168371371925,0.0,0.0,champ,medwf,
239,s217,239,haole,ha,ao,ol,le,h,a,l,o,e,,,0.8854164578951895,1.0854341799858958,1.221374758053571,1.44537812191993,1.5734227399807423,0.0,0.0,haloe,lowwf,
