,sID,Trial #,string,bi_1,bi_2,bi_3,bi_4,key_resp.keys.1,key_resp.keys.2,key_resp.keys.3,key_resp.keys.4,key_resp.keys.5,key_resp.keys.6,key_resp.keys.7,key_resp.rt.1,key_resp.rt.2,key_resp.rt.3,key_resp.rt.4,key_resp.rt.5,key_resp.rt.6,key_resp.rt.7,resp_string,WF Type,BF Type
0,s217,0,would,wo,ou,ul,ld,w,o,u,l,d,,,0.7233081510057673,0.827495924080722,0.9153929650783539,1.0512856940040365,1.0913960160687566,0.0,0.0,would,highwf,
1,s217,1,vodka,vo,od,dk,ka,v,o,d,k,a,,,1.1654493259266019,1.2854539579711854,1.4054515429306775,1.5254589969990775,1.5894516599364579,0.0,0.0,vodka,medwf,
2,s217,2,kremp,kr,re,em,mp,k,r,e,m,p,,,1.0335098030045629,1.1135156420059502,1.2014512410387397,1.249444892979227,1.3854303499683738,0.0,0.0,kremp,pseudo,
3,s217,3,theme,th,he,em,me,t,h,e,m,e,,,0.741363589069806,0.8374751140363514,0.8773378930054605,1.0293675060383976,1.093365447013639,0.0,0.0,theme,medwf,
4,s217,4,druze,dr,ru,uz,ze,d,r,u,z,e,,,0.7933364079799503,0.9855519640259445,1.1535001350566745,1.2414380440022796,1.3853406920097768,0.0,0.0,druze,lowwf,
5,s217,5,theme,th,he,em,me,t,h,e,m,e,,,0.6614344510016963,0.7654526359401643,0.8054608829552308,0.9334753479342908,0.9655786380171776,0.0,0.0,theme,medwf,
6,s217,6,about,ab,bo,ou,ut,a,b,o,u,t,,,0.609136991086416,0.7211945520248264,0.8331891010748222,0.9371827520662919,0.9531508450163528,0.0,0.0,about,highwf,
7,s217,7,tithe,ti,it,th,he,t,i,t,h,e,,,0.6851623370312154,0.7971242250641808,0.893068730016239,0.9491404669824988,1.013149640057236,0.0,0.0,tithe,lowwf,
8,s217,8,vanru,va,an,nr,ru,v,a,n,r,u,,,0.8493240459356457,0.9292203990044072,1.0493208189727738,1.1613161580171436,1.2573390089673921,0.0,0.0,vanru,pseudo,
9,s217,9,kremp,kr,re,em,mp,j,r,e,m,p,,,0.9893578550545499,1.3894278940279037,1.5093506560660899,1.6134492009878159,1.7413463490083814,0.0,0.0,jremp,pseudo,
10,s217,10,zibja,zi,ib,bj,ja,z,i,b,j,a,,,1.3132307979976758,1.497270553954877,1.6571531919762492,1.8332543389406055,1.9372512740083039,0.0,0.0,zibja,pseudo,
11,s217,11,druze,dr,ru,uz,ze,d,r,u,z,e,,,1.0131514320382848,1.1731924790656194,1.3090795910684392,1.4290890280390158,1.573080872069113,0.0,0.0,druze,lowwf,
12,s217,12,vodka,vo,od,dk,ka,v,o,d,k,a,,,0.8172190730692819,0.9133191939909011,1.0252958310302347,1.1053346110275015,1.1852185010211542,0.0,0.0,vodka,medwf,
13,s217,13,belly,be,el,ll,ly,b,e,l,l,y,,,0.7734227160690352,0.861407203017734,0.9733890310162678,1.117319721961394,1.285424769972451,0.0,0.0,belly,medwf,
14,s217,14,kremp,kr,re,em,mp,k,r,e,m,p,,,0.9454460000852123,1.0414997800253332,1.1455041259760037,1.1773697839817032,1.2894057140219957,0.0,0.0,kremp,pseudo,
15,s217,15,theme,th,he,em,me,t,h,e,m,e,,,0.7574722259305418,0.8694437859812751,0.9334546779282391,1.077349633909762,1.101349648903124,0.0,0.0,theme,medwf,
16,s217,16,puppy,pu,up,pp,py,p,u,p,p,y,,,0.6493338369764388,0.817222910001874,0.9453733039554209,1.0972805250203237,1.2253913360182196,0.0,0.0,puppy,medwf,
17,s217,17,champ,ch,ha,am,mp,c,h,a,m,p,,,0.7013691969914362,0.7894538419786841,0.8534679599106312,0.9574810259509832,1.0694956539664418,0.0,0.0,champ,medwf,
18,s217,18,vodka,vo,od,dk,ka,v,o,d,k,a,,,0.8009729250334203,0.873077683034353,0.9850637700874358,1.0810055990004912,1.1610277170548216,0.0,0.0,vodka,medwf,
19,s217,19,champ,ch,ha,am,mp,c,h,a,m,p,,,0.7332875189604238,0.8612311990000308,0.9092478149104863,1.0532647270010784,1.1491894259816036,0.0,0.0,champ,medwf,
20,s217,20,about,ab,bo,ou,ut,a,b,o,u,t,,,0.5932714169612154,0.7133051309501752,0.8172278159763664,0.9613400079542771,1.0172293180366978,0.0,0.0,about,highwf,
21,s217,21,therm,th,he,er,rm,t,h,e,r,m,,,0.5973295449512079,0.6930388560285792,0.7571147020207718,0.8531193309463561,0.9410805510124192,0.0,0.0,therm,lowwf,
22,s217,22,think,th,hi,in,nk,t,h,i,n,k,,,0.6810676219174638,0.7851520099211484,0.8571837019408122,1.0252577499486506,1.089178247959353,0.0,0.0,think,highwf,
23,s217,23,zibja,zi,ib,bj,ja,z,i,b,j,a,,,0.8612227339763194,0.9972039519343525,1.1331901779631153,1.3251643870025873,1.4612127470318228,0.0,0.0,zibja,pseudo,
24,s217,24,would,wo,ou,ul,ld,w,o,u,l,d,,,0.6332774849142879,0.7372399179730564,0.8253205969231203,0.9772146249888465,0.9852095770183951,0.0,0.0,would,highwf,
25,s217,25,faqir,fa,aq,qi,ir,f,a,q,i,r,,,0.8128993690479547,0.9008171400055289,1.1888958050403744,1.4849024229915813,1.5969084940152243,0.0,0.0,faqir,lowwf,
26,s217,26,edthe,ed,dt,th,he,e,d,t,h,e,,,0.8489932330558077,1.0410081211011857,1.1849160389974713,1.3049958450719714,1.3849294480169192,0.0,0.0,edthe,pseudo,
27,s217,27,vanru,va,an,nr,ru,v,a,n,r,u,,,0.6772978899534792,0.7493745259707794,0.9012973370263353,1.0133937819628045,1.157423097989522,0.0,0.0,vanru,pseudo,
28,s217,28,faqir,fa,aq,qi,ir,f,q,a,i,r,,,0.9612787070218474,1.4171871530124918,2.201160721015185,2.449252696009353,2.5612889209296554,0.0,0.0,fqair,lowwf,
29,s217,29,think,th,hi,in,nk,t,h,i,n,k,,,0.7569959609536454,0.9008734310045838,1.020971257938072,1.1569865370402113,1.2529816259630024,0.0,0.0,think,highwf,
30,s217,30,champ,ch,ha,am,mp,c,h,a,m,p,,,0.6414008759893477,0.7453994749812409,0.7853391179814935,0.9534113339614123,1.05740905192215,0.0,0.0,champ,medwf,
31,s217,31,cooed,co,oo,oe,ed,c,o,o,e,d,,,0.6611634750152007,0.7811656669946387,0.9492267080349848,1.0612817640649155,1.2371885660104454,0.0,0.0,cooed,lowwf,
32,s217,32,heond,he,eo,on,nd,h,e,o,n,d,,,0.9690808850573376,1.0570985859958455,1.1530302800238132,1.2490460349945351,1.3450658940710127,0.0,0.0,heond,pseudo,
33,s217,33,kremp,kr,re,em,mp,k,r,e,m,p,,,1.0210121679119766,1.133010959951207,1.237015749909915,1.292905295966193,1.4210456039290875,0.0,0.0,kremp,pseudo,
34,s217,34,cheer,ch,he,ee,er,c,h,e,e,r,,,0.7288543100003153,0.848950510029681,0.9369054019916803,1.1048443149775267,1.1849357730243355,0.0,0.0,cheer,medwf,
35,s217,35,cooed,co,oo,oe,ed,c,o,o,e,d,,,0.7011295090196654,0.8291373570682481,0.9811821259791031,1.0851775460178033,1.2612879340304062,0.0,0.0,cooed,lowwf,
36,s217,36,there,th,he,er,re,t,h,e,r,e,,,0.6330848800716922,0.7530468089971691,0.8250108869979158,0.8970463289879262,0.9769491570768878,0.0,0.0,there,highwf,
37,s217,37,cooed,co,oo,oe,ed,c,o,o,e,d,,,0.5809509009122849,0.7088970869081095,0.8449396529467776,0.9489676649682224,1.1089224428869784,0.0,0.0,cooed,lowwf,
38,s217,38,edthe,ed,dt,th,he,e,d,t,h,e,,,0.7931645539356396,1.0092394170351326,1.1532738809473813,1.249297690927051,1.3132362349424511,0.0,0.0,edthe,pseudo,
39,s217,39,faqir,fa,aq,qi,ir,f,a,q,i,r,,,0.6452574480790645,1.2050705050351098,1.4691738990368322,1.6531297550536692,1.7491625259863213,0.0,0.0,faqir,lowwf,
40,s217,40,vodka,vo,od,dk,ka,c,o,d,k,a,,,0.7051709899678826,0.7930498219793662,1.3532325689448044,1.449176447931677,1.529108808026649,0.0,0.0,codka,medwf,
41,s217,41,vanru,va,an,nr,ru,v,a,n,r,u,,,0.9413011870346963,1.045242237043567,1.2212400649441406,1.309214113978669,1.4372935489518568,0.0,0.0,vanru,pseudo,
42,s217,42,pykka,py,yk,kk,ka,p,y,k,k,a,,,0.7692220830358565,1.0732391369529068,1.4332369689363986,1.5692194619914517,1.6811433479888365,0.0,0.0,pykka,pseudo,
43,s217,43,zibja,zi,ib,bj,ja,z,i,b,j,a,,,1.2133756469702348,1.373362550046295,1.5413638059981167,1.7253813670249656,1.8532802229747176,0.0,0.0,zibja,pseudo,
44,s217,44,edthe,ed,dt,th,he,e,d,t,h,e,,,0.8810159210115671,1.0810053730383515,1.2490282909711823,1.3690641300054267,1.4250730669591576,0.0,0.0,edthe,pseudo,
45,s217,45,belly,be,el,ll,ly,b,e,l,l,t,y,,0.7968212569830939,0.9247535020112991,1.0207344189984724,1.1807868970790878,1.3808052180102095,1.3888019809965044,0.0,bellty,medwf,
46,s217,46,lucky,lu,uc,ck,ky,l,u,y,c,k,y,,0.8010919829830527,1.0252131540328264,1.033202340011485,1.4650820039678365,1.5851568969665095,1.793091373052448,0.0,luycky,highwf,
47,s217,47,think,th,hi,in,nk,t,h,i,n,k,,,0.7649051049957052,0.92490058101248,1.0449445360573009,1.2208810120355338,1.348928053979762,0.0,0.0,think,highwf,
48,s217,48,pykka,py,yk,kk,ka,p,y,k,k,a,,,0.7689304910600185,1.0489304800285026,1.3449942839797586,1.480869484017603,1.5928597480524331,0.0,0.0,pykka,pseudo,
49,s217,49,there,th,he,er,re,t,h,e,r,e,,,0.6768417039420456,0.8609554909635335,0.9328872460173443,1.0209218059899285,1.1409630209673196,0.0,0.0,there,highwf,
50,s217,50,buddy,bu,ud,dd,dy,b,u,d,d,y,,,0.7689709860133007,0.8969448719872162,1.0489595640683547,1.2088371920399368,1.304965544026345,0.0,0.0,buddy,highwf,
51,s217,51,cheer,ch,he,ee,er,c,h,e,e,r,,,0.7166601089993492,0.908699256950058,1.0126980709610507,1.1807231770362705,1.268761795014143,0.0,0.0,cheer,medwf,
52,s217,52,heond,he,eo,on,nd,h,e,o,n,d,,,0.8410010499646887,0.9529931719880551,1.0329646579921246,1.1289602719480172,1.232977045001462,0.0,0.0,heond,pseudo,
53,s217,53,buddy,bu,ud,dd,dy,b,u,d,d,y,,,0.8210673070279881,0.9810447669588029,1.1170004870509729,1.2691042970400304,1.3571047600125894,0.0,0.0,buddy,highwf,
54,s217,54,tithe,ti,it,th,he,t,i,t,h,e,,,0.9690513570094481,1.0890991219785064,1.2090088090626523,1.305067167035304,1.4009566970635206,0.0,0.0,tithe,lowwf,
55,s217,55,vodka,vo,od,dk,ka,v,o,d,k,a,,,0.7810732109937817,0.8930745429825038,1.0290656989673153,1.1491713690338656,1.2771011940203607,0.0,0.0,vodka,medwf,
56,s217,56,therm,th,he,er,rm,t,h,e,r,m,,,0.6808481620391831,0.816745423944667,0.9048522480297834,0.9849137699929997,1.0647587679559365,0.0,0.0,therm,lowwf,
57,s217,57,lucky,lu,uc,ck,ky,l,u,c,k,y,,,0.7248608859954402,0.9728802889585495,1.1408803949598223,1.2767541620414704,1.500760635943152,0.0,0.0,lucky,highwf,
58,s217,58,zibja,zi,ib,bj,ja,z,i,b,j,a,,,0.8807025399291888,1.0247245809296146,1.176652709953487,1.3766928559634835,1.5047676869435236,0.0,0.0,zibja,pseudo,
59,s217,59,cooed,co,oo,oe,ed,c,o,e,e,d,,,0.7567245559766889,0.8687490168958902,1.0207837029593065,1.1727776819607243,1.3487304849550128,0.0,0.0,coeed,lowwf,
60,s217,60,tithe,ti,it,th,he,t,i,t,h,e,,,0.7207393830176443,0.8568681370234117,0.9528611950809136,1.0647823750041425,1.128829826018773,0.0,0.0,tithe,lowwf,
61,s217,61,think,th,hi,in,nk,t,h,i,n,k,,,0.6927963540656492,0.8128610900603235,0.908764612977393,1.0528629350010306,1.1408282750053331,0.0,0.0,think,highwf,
62,s217,62,cheer,ch,he,ee,er,c,h,e,e,r,,,0.8407844679895788,0.9926516489358619,1.0727703759912401,1.2407713489374146,1.3207659700419754,0.0,0.0,cheer,medwf,
63,s217,63,belly,be,el,ll,ly,b,e,l,l,y,,,0.8446791400201619,0.9887265469878912,1.084672783035785,1.252721577999182,1.4606173139763996,0.0,0.0,belly,medwf,
64,s217,64,lucky,lu,uc,ck,ky,l,u,c,k,y,,,0.7606268000090495,1.0165411110501736,1.1686437480384484,1.2966448429506272,1.496664762031287,0.0,0.0,lucky,highwf,
65,s217,65,there,th,he,er,re,t,h,e,r,e,,,0.6849081990076229,0.7729387099388987,0.8529454249655828,0.9408308579586446,1.020823414903134,0.0,0.0,there,highwf,
66,s217,66,puppy,pu,up,pp,py,p,u,p,p,y,,,0.6410006149671972,0.8249103940324858,0.9609465979738161,1.1288655999815091,1.2890012440038845,0.0,0.0,puppy,medwf,
67,s217,67,heond,he,eo,on,nd,h,e,o,n,d,,,0.7329233390046284,0.8688924540765584,0.9489393980475143,1.0529206140199676,1.1409087320789695,0.0,0.0,heond,pseudo,
68,s217,68,druze,dr,ru,uz,ze,d,r,u,z,e,,,0.7368046109331772,0.9448661919450387,1.1127273619640619,1.2488497350132093,1.4568066329229623,0.0,0.0,druze,lowwf,
69,s217,69,cheer,ch,he,ee,er,c,h,e,e,r,,,0.6208020379999653,0.7408674610778689,0.8288592370226979,0.9968283399939537,1.0847462430829182,0.0,0.0,cheer,medwf,
70,s217,70,pykka,py,yk,kk,ka,p,y,k,k,a,s,,0.7050169690046459,0.9369982329662889,1.2330141749698669,1.3609256090130657,1.45704107102938,2.560966252000071,0.0,pykkas,pseudo,
71,s217,71,think,th,hi,in,nk,t,h,i,n,k,,,0.8765213839942589,0.9565225950209424,1.0606500250287354,1.196605553966947,1.2845794159220532,0.0,0.0,think,highwf,
72,s217,72,haole,ha,ao,ol,le,h,a,o,l,e,,,0.8486564970808104,0.9205795950256288,1.064630858018063,1.2727141140494496,1.3367905881023034,0.0,0.0,haole,lowwf,
73,s217,73,about,ab,bo,ou,ut,a,b,o,u,t,,,0.7006971020018682,0.8207019430119544,0.9488007080508396,1.1086930769961327,1.2288149780360982,0.0,0.0,about,highwf,
74,s217,74,puppy,pu,up,pp,py,p,u,p,p,y,,,0.6249369740253314,0.792852928978391,0.9369343110593036,1.1128634969936684,1.2969394890824333,0.0,0.0,puppy,medwf,
75,s217,75,tithe,ti,it,th,he,t,i,t,h,e,,,0.68446490901988,0.7645163489505649,0.8765339349629357,0.9325766799738631,1.0365833409596235,0.0,0.0,tithe,lowwf,
76,s217,76,therm,th,he,er,rm,t,h,e,r,m,,,0.6485478049144149,0.7845475999638438,0.8645197579171509,0.9205970539478585,1.0326084489934146,0.0,0.0,therm,lowwf,
77,s217,77,haole,ha,ao,ol,le,h,a,o,l,e,,,0.8599204740021378,0.9399142579641193,1.091854068916291,1.291854531969875,1.379962592967786,0.0,0.0,haole,lowwf,
78,s217,78,champ,ch,ha,am,mp,c,h,a,m,p,,,0.6243542280280963,0.7363879249896854,0.8483539799926803,0.9842554150382057,1.2163618740160018,0.0,0.0,champ,medwf,
79,s217,79,would,wo,ou,ul,ld,w,o,u,l,d,,,0.5968421469442546,0.7088697049766779,0.844850655994378,0.9888824539957568,1.0848102369345725,0.0,0.0,would,highwf,
80,s217,80,belly,be,el,ll,ly,b,e,l,l,y,,,0.6567640920402482,0.7688429900445044,0.8808472530217841,1.0408660750836134,1.22483014408499,0.0,0.0,belly,medwf,
81,s217,81,kremp,kr,re,em,mp,k,r,e,m,p,,,0.6685664709657431,0.7885415169876069,0.8845388109330088,0.9805838590255007,1.1005473069380969,0.0,0.0,kremp,pseudo,
82,s217,82,lucky,lu,uc,ck,ky,l,u,c,k,y,,,0.6325352960266173,0.8324968230444938,0.9764623320661485,1.080504547106102,1.280511137098074,0.0,0.0,lucky,highwf,
83,s217,83,champ,ch,ha,am,mp,c,h,a,m,p,,,0.8289534349460155,0.9569175919750705,1.0369838520418853,1.1730115410173312,1.324951110058464,0.0,0.0,champ,medwf,
84,s217,84,faqir,fa,aq,qi,ir,f,a,q,i,r,,,0.9927701810374856,1.280760115943849,1.592755300924182,1.8647567420266569,2.1287990330019966,0.0,0.0,faqir,lowwf,
85,s217,85,therm,th,he,er,rm,t,h,e,r,m,,,0.7879904570290819,0.9319744230015203,1.019978931057267,1.1160331200808287,1.2199694860028103,0.0,0.0,therm,lowwf,
86,s217,86,would,wo,ou,ul,ld,w,o,u,l,d,,,0.6805062819039449,0.8085561859188601,0.9365560919977725,1.0884978038957343,1.2004661929095164,0.0,0.0,would,highwf,
87,s217,87,therm,th,he,er,rm,t,h,e,r,m,,,0.7646778259659186,0.8926715619163588,0.9727730229496956,1.0766740839462727,1.1487105109263211,0.0,0.0,therm,lowwf,
88,s217,88,about,ab,bo,ou,ut,a,b,o,u,t,,,0.7125607640482485,0.864540591952391,0.9925490920431912,1.1446897799614817,1.2486585869919509,0.0,0.0,about,highwf,
89,s217,89,pykka,py,yk,kk,ka,p,y,k,k,a,,,0.6366513579851016,0.8845648870337754,1.1726007349789143,1.3166051460430026,1.4366033199476078,0.0,0.0,pykka,pseudo,
90,s217,90,haole,ha,ao,ol,le,h,a,o,l,e,,,0.7765357570024207,0.8805901629384607,1.0166106789838523,1.2005024659447372,1.2965887390309945,0.0,0.0,haole,lowwf,
91,s217,91,druze,dr,ru,uz,ze,d,r,u,z,e,,,0.6686858739703894,0.8766124160028994,1.076670303940773,1.1966711239656433,1.3966879989020526,0.0,0.0,druze,lowwf,
92,s217,92,cooed,co,oo,oe,ed,c,o,o,e,d,,,0.6965002720244229,0.8804362280061468,1.2324350769631565,1.46435175195802,1.688464778009802,0.0,0.0,cooed,lowwf,
93,s217,93,haole,ha,ao,ol,le,h,a,o,l,e,,,0.8367377379909158,0.964762637973763,1.068757476983592,1.2687853160314262,1.3488016390474513,0.0,0.0,haole,lowwf,
94,s217,94,about,ab,bo,ou,ut,a,b,o,u,t,,,0.5525183599675074,0.712479347945191,0.8484941759379581,1.0085618969751522,1.1444874479202554,0.0,0.0,about,highwf,
95,s217,95,tithe,ti,it,th,he,t,i,t,h,e,,,0.9488981280010194,1.084785282961093,1.1969033309724182,1.3168896359857172,1.4128318149596453,0.0,0.0,tithe,lowwf,
96,s217,96,buddy,bu,ud,dd,dy,b,u,d,d,y,,,0.8888525100192055,1.0568495279876515,1.1847273739986122,1.3687889599241316,1.432827936951071,0.0,0.0,buddy,highwf,
97,s217,97,zibja,zi,ib,bj,ja,z,i,b,j,a,,,1.212437682901509,1.3964647519169375,1.5643768298905343,1.7724294170038775,1.916491148993373,0.0,0.0,zibja,pseudo,
98,s217,98,vanru,va,an,nr,ru,v,a,n,r,u,,,0.7765612869989127,0.8566796269733459,0.9845627070171759,1.0966153719928116,1.1926529159536585,0.0,0.0,vanru,pseudo,
99,s217,99,lucky,lu,uc,ck,ky,l,u,c,k,y,,,0.6204555650474504,0.7964961590478197,0.9003837869968265,0.980414460063912,1.1644288550596684,0.0,0.0,lucky,highwf,
100,s217,100,there,th,he,er,re,t,h,e,r,e,,,0.760528028011322,0.8645084759918973,0.9286309470189735,1.0166075880406424,1.1045316669624299,0.0,0.0,there,highwf,
101,s217,101,heond,he,eo,on,nd,h,e,o,n,d,,,0.7325242260703817,0.8045281530357897,0.9085688299965113,1.0045289400732145,1.1325373830040917,0.0,0.0,heond,pseudo,
102,s217,102,druze,dr,ru,uz,ze,d,r,u,z,e,,,0.6402981569990516,0.8163924899417907,0.9602914060233161,1.1122983259847388,1.3203911470482126,0.0,0.0,druze,lowwf,
103,s217,103,buddy,bu,ud,dd,dy,b,u,d,d,y,,,0.7961626240285113,0.940055450075306,1.0521400860743597,1.2120542720658705,1.3161594810662791,0.0,0.0,buddy,highwf,
104,s217,104,pykka,py,yk,kk,ka,p,y,k,k,a,,,0.8001342669595033,0.9761358129326254,1.3361986830132082,1.4562505239155143,1.5841264019254595,0.0,0.0,pykka,pseudo,
105,s217,105,vanru,va,an,nr,ru,v,a,n,r,u,,,0.8840111440513283,0.9640446560224518,1.1081520719453692,1.2120106009533629,1.3320641899481416,0.0,0.0,vanru,pseudo,
106,s217,106,theme,th,he,em,me,t,h,e,m,e,,,0.7447087420150638,0.856704820995219,0.9446253220085055,1.0886072339490056,1.12867801298853,0.0,0.0,theme,medwf,
107,s217,107,belly,be,el,ll,ly,b,e,l,l,y,,,0.7968746869591996,0.9249041728908196,1.0448413440026343,1.204909773892723,1.3328660340048373,0.0,0.0,belly,medwf,
108,s217,108,theme,th,he,em,me,t,h,e,m,e,,,0.7766427260357887,0.9126355180051178,0.960655584000051,1.1287726979935542,1.1527504700934514,0.0,0.0,theme,medwf,
109,s217,109,edthe,ed,dt,th,he,e,d,t,h,e,,,0.7727732070488855,0.9567055581137538,1.1247063550399616,1.2607067390345037,1.3887400650419295,0.0,0.0,edthe,pseudo,
110,s217,110,faqir,fa,aq,qi,ir,f,a,q,i,r,,,0.8085359090473503,1.056589137064293,1.5686333699850366,1.7686190370004624,1.904651933000423,0.0,0.0,faqir,lowwf,
111,s217,111,puppy,pu,up,pp,py,p,u,p,p,y,,,0.7884682399453595,0.9564882420236245,1.0925552289700136,1.2925293979933485,1.4844636169727892,0.0,0.0,puppy,medwf,
112,s217,112,cheer,ch,he,ee,er,c,h,e,e,r,,,0.6562334470218047,0.8243216070113704,0.9122160979313776,1.088261083001271,1.1842041099444032,0.0,0.0,cheer,medwf,
113,s217,113,haole,ha,ao,ol,le,h,a,o,l,e,,,0.6765057109296322,0.7725626239553094,0.9645512329880148,1.1565769800217822,1.2845110290218145,0.0,0.0,haole,lowwf,
114,s217,114,would,wo,ou,ul,ld,w,o,u,l,d,,,0.592513021081686,0.7124887320678681,0.8325107680866495,0.976491422043182,1.0645185330649838,0.0,0.0,would,highwf,
115,s217,115,edthe,ed,dt,th,he,e,d,t,h,e,,,0.7004063309868798,0.9084246649872512,1.0924371109576896,1.2204216809477657,1.3324704919941723,0.0,0.0,edthe,pseudo,
116,s217,116,puppy,pu,up,pp,py,p,u,p,p,y,,,0.6644456870853901,0.8085413400549442,0.9525293500628322,1.12853940599598,1.2805090850451961,0.0,0.0,puppy,medwf,
117,s217,117,heond,he,eo,on,nd,h,e,o,n,d,,,0.8203225809847936,0.9082693610107526,0.988374512991868,1.0842603800119832,1.1963867859449238,0.0,0.0,heond,pseudo,
118,s217,118,there,th,he,er,re,t,h,e,r,e,,,0.7203853619284928,0.8643516800366342,0.9682905189692974,1.0804398809559643,1.1762994169257581,0.0,0.0,there,highwf,
119,s217,119,buddy,bu,ud,dd,dy,b,u,d,d,y,,,1.2686307469848543,1.500536234001629,1.6526052090339363,1.8205875570420176,1.9246615190058947,0.0,0.0,buddy,highwf,
120,s217,120,pykka,py,yk,kk,ka,p,y,k,k,a,,,0.8854251229204237,1.0694317210000008,1.3894323399290442,1.5095057409489527,1.5975396949797869,0.0,0.0,pykka,pseudo,
121,s217,121,edthe,ed,dt,th,he,e,d,t,h,e,,,0.6478109009331092,0.8238112679682672,0.9838543779915199,1.0958344609243795,1.1518449919531122,0.0,0.0,edthe,pseudo,
122,s217,122,vodka,vo,od,dk,ka,v,o,d,k,a,,,0.7073519069235772,0.8034290740033612,0.9314964800141752,1.0194816859439015,1.0914223139407113,0.0,0.0,vodka,medwf,
123,s217,123,think,th,hi,in,nk,t,h,i,n,k,,,0.6476746359840035,0.751764549058862,0.8317346720723435,0.959666189039126,1.0557260990608484,0.0,0.0,think,highwf,
124,s217,124,buddy,bu,ud,dd,dy,b,u,d,d,y,,,0.7314138649962842,0.8673602199414745,1.0034348209155723,1.1714845550013706,1.267373731941916,0.0,0.0,buddy,highwf,
125,s217,125,edthe,ed,dt,th,he,e,d,t,h,e,,,0.7516736610559747,0.9275793700944632,1.1116168650332838,1.2475161800393835,1.3595248990459368,0.0,0.0,edthe,pseudo,
126,s217,126,zibja,zi,ib,bj,ja,z,i,b,j,a,,,1.259197297040373,1.435289256973192,1.5632667579920962,1.7553145700367168,1.8913043680367991,0.0,0.0,zibja,pseudo,
127,s217,127,cooed,co,oo,oe,ed,c,o,o,e,d,,,0.7751505590276793,0.9511422200594097,1.1192621410591528,1.2471973780775443,1.4471920470241457,0.0,0.0,cooed,lowwf,
128,s217,128,champ,ch,ha,am,mp,c,h,a,m,p,,,0.7316454090178013,0.8595956990029663,0.9555968759814277,1.0917634390061721,1.2277849779929966,0.0,0.0,champ,medwf,
129,s217,129,about,ab,bo,ou,ut,a,b,o,u,t,,,0.6157463849522173,0.791769452043809,0.9356481930008158,1.1038026809692383,1.255774587043561,0.0,0.0,about,highwf,
130,s217,130,faqir,fa,aq,qi,ir,f,a,q,i,r,,,0.9638052139198408,1.14780083601363,1.4037950969068334,1.5796975309494883,1.7157669669250026,0.0,0.0,faqir,lowwf,
131,s217,131,puppy,pu,up,pp,py,p,u,p,p,y,,,0.6315427130321041,0.7916027279570699,0.9276847540168092,1.0954878800548613,1.2636172339553013,0.0,0.0,puppy,medwf,
132,s217,132,druze,dr,ru,uz,ze,d,r,u,z,e,,,0.8358259029919282,1.0437282170169055,1.2038528569974005,1.355798296048306,1.5398354560602456,0.0,0.0,druze,lowwf,
133,s217,133,theme,th,he,em,me,t,h,e,m,e,,,0.8393227560445666,0.999361664056778,1.079412946011871,1.2472774480702356,1.30328949901741,0.0,0.0,theme,medwf,
134,s217,134,haole,ha,ao,ol,le,h,a,o,l,e,,,0.9474231309723109,1.0515366289764643,1.2115419580368325,1.403598923003301,1.49153539002873,0.0,0.0,haole,lowwf,
135,s217,135,pykka,py,yk,kk,ka,p,y,k,k,a,,,0.7356655190233141,0.9595589940436184,1.3435833210824057,1.4875880600884557,1.5836580380564556,0.0,0.0,pykka,pseudo,
136,s217,136,haole,ha,ao,ol,le,h,a,o,l,e,,,1.0432660679798573,1.1473502009175718,1.3233865979127586,1.5153518849983811,1.6513311209855601,0.0,0.0,haole,lowwf,
137,s217,137,champ,ch,ha,am,mp,c,h,a,m,p,,,0.7916205899091437,0.9276448359014466,1.01561096298974,1.175512023968622,1.3435691519407555,0.0,0.0,champ,medwf,
138,s217,138,there,th,he,er,re,t,h,e,r,e,,,0.7232446951093152,0.8913150751031935,0.9952019850024953,1.1073135990882292,1.2032476760214195,0.0,0.0,there,highwf,
139,s217,139,vanru,va,an,nr,ru,v,a,n,r,u,,,0.9515813370235264,0.9836434470489621,1.15957515896298,1.279595777974464,1.407574234995991,0.0,0.0,vanru,pseudo,
140,s217,140,would,wo,ou,ul,ld,w,o,u,l,d,,,0.7950123520568013,0.9869977200869471,1.1229670490138233,1.2830191920511425,1.4189932240406051,0.0,0.0,would,highwf,
141,s217,141,there,th,he,er,re,t,h,e,r,e,,,0.9035720560932532,1.1276117770466954,1.223592357011512,1.34348870604299,1.4396031150827184,0.0,0.0,there,highwf,
142,s217,142,belly,be,el,ll,ly,b,e,l,l,y,,,0.8273586770519614,0.9633997540222481,1.0753191789845005,1.24331239098683,1.3874254090478644,0.0,0.0,belly,medwf,
143,s217,143,theme,th,he,em,me,t,h,e,m,e,,,0.7756780550116673,0.9118290990591049,0.9917955229757354,1.1357983479974791,1.1837935890071094,0.0,0.0,theme,medwf,
144,s217,144,think,th,hi,in,nk,t,h,i,n,k,,,0.7872363320784643,0.9072260820539668,1.0272462840657681,1.15523772907909,1.2671187720261514,0.0,0.0,think,highwf,
145,s217,145,cheer,ch,he,ee,er,c,h,e,e,r,,,0.7032814580015838,0.8313115739729255,0.9272740019951016,1.1032971249660477,1.199313230928965,0.0,0.0,cheer,medwf,
146,s217,146,buddy,bu,ud,dd,dy,b,u,d,d,y,,,0.9316061499994248,1.0915463019628078,1.2435674000298604,1.4035804209997877,1.4997652439633384,0.0,0.0,buddy,highwf,
147,s217,147,vodka,vo,od,dk,ka,v,o,d,k,a,,,0.814811774995178,0.9108400869881734,1.0468551689991727,1.1347784269601107,1.262792696012184,0.0,0.0,vodka,medwf,
148,s217,148,therm,th,he,er,rm,t,h,e,r,m,,,0.7546677029458806,0.9146661789854988,0.9947450099280104,1.098753202939406,1.2187470439821482,0.0,0.0,therm,lowwf,
149,s217,149,cooed,co,oo,oe,ed,c,o,o,e,d,,,0.6704095099121332,0.8465080190217122,1.0224948870018125,1.1424194480059668,1.3584135689307004,0.0,0.0,cooed,lowwf,
150,s217,150,theme,th,he,em,me,t,h,e,m,e,,,0.6749047300545499,0.8428137049777433,0.9229224850423634,1.0989061719737947,1.138904026011005,0.0,0.0,theme,medwf,
151,s217,151,think,th,hi,in,nk,t,h,i,n,k,,,0.7588249830296263,0.9108776530483738,1.0229211549740285,1.150807184050791,1.270862483070232,0.0,0.0,think,highwf,
152,s217,152,haole,ha,ao,ol,le,h,a,o,l,e,,,0.7146011600270867,0.8265263380017132,1.0026438320055604,1.2186435699695721,1.3466220500413328,0.0,0.0,haole,lowwf,
153,s217,153,cooed,co,oo,oe,ed,c,o,o,e,d,,,0.6945495039690286,0.8544820809038356,1.038581213913858,1.1825601629680023,1.390573153970763,0.0,0.0,cooed,lowwf,
154,s217,154,puppy,pu,up,pp,py,p,u,p,p,y,,,0.6429462999803945,0.8112645170185715,0.9389509690226987,1.1070457539753988,1.3149615610018373,0.0,0.0,puppy,medwf,
155,s217,155,kremp,kr,re,em,mp,k,r,e,m,p,,,1.0784269730793312,1.2304734920617193,1.3423821430187672,1.4864490660838783,1.6383965200511739,0.0,0.0,kremp,pseudo,
156,s217,156,vodka,vo,od,dk,ka,v,o,d,k,a,,,0.7383768010186031,0.8583940770477057,0.9863955080509186,1.0663913190364838,1.1864114589989185,0.0,0.0,vodka,medwf,
157,s217,157,heond,he,eo,on,nd,h,e,o,n,d,,,0.8947469380218536,1.0547174339881167,1.1668117879889905,1.2787966950563714,1.422787853050977,0.0,0.0,heond,pseudo,
158,s217,158,zibja,zi,ib,bj,ja,z,i,b,j,a,,,1.0027454800438136,1.122664661030285,1.2906595550011843,1.4667339690495282,1.6266514410963282,0.0,0.0,zibja,pseudo,
159,s217,159,vanru,va,an,nr,ru,v,a,n,r,u,,,0.8066140220034868,0.8786712019937113,1.006599202984944,1.1505929799750447,1.3028954609762877,0.0,0.0,vanru,pseudo,
160,s217,160,lucky,lu,uc,ck,ky,l,u,c,k,y,,,0.7866723509505391,0.9947430029278621,1.1546173389069736,1.2587078999495134,1.4667396619915962,0.0,0.0,lucky,highwf,
161,s217,161,therm,th,he,er,rm,t,h,e,r,m,,,0.798530058003962,0.9185202569933608,1.0144588469993323,1.1104429400293157,1.2224693789612502,0.0,0.0,therm,lowwf,
162,s217,162,buddy,bu,ud,dd,dy,b,u,d,d,y,,,0.842351260012947,0.9944727739784867,1.138456349959597,1.3064623910468072,1.37842310895212,0.0,0.0,buddy,highwf,
163,s217,163,druze,dr,ru,uz,ze,d,r,u,z,e,,,0.7828889359952882,1.00685217208229,1.1427742650266737,1.2868921470362693,1.4789135130122304,0.0,0.0,druze,lowwf,
164,s217,164,think,th,hi,in,nk,t,h,i,b,n,k,j,0.8346874940907583,0.9867667380021885,1.1146947710076347,1.2506891690427437,1.2506891690427437,1.3548198620555922,1.3627416740637273,thibnkj,highwf,
165,s217,165,pykka,py,yk,kk,ka,p,y,k,k,a,,,0.774872570997104,0.9748677239986137,1.310761125991121,1.430813122075051,1.5267376900883391,0.0,0.0,pykka,pseudo,
166,s217,166,belly,be,el,ll,ly,b,e,l,l,y,,,0.6188702989602461,0.7708898140117526,0.8347786909434944,1.0107823059661314,1.1308899499708787,0.0,0.0,belly,medwf,
167,s217,167,there,th,he,er,re,t,h,e,r,e,,,0.6467555549461395,0.7587663589511067,0.862738590920344,0.9668133689556271,1.0627182479947805,0.0,0.0,there,highwf,
168,s217,168,would,wo,ou,ul,ld,w,o,u,l,d,,,0.6028640760341659,0.7067568959901109,0.8028102400712669,0.9387489040382206,1.01076546497643,0.0,0.0,would,highwf,
169,s217,169,heond,he,eo,on,nd,h,e,o,n,d,,,0.7027074289508164,0.7666974859312177,0.8467011050088331,0.9186393619747832,1.0146920409752056,0.0,0.0,heond,pseudo,
170,s217,170,cheer,ch,he,ee,er,c,h,e,e,r,,,0.6023180059855804,0.7303444140125066,0.818246684037149,0.954365445068106,1.05024324497208,0.0,0.0,cheer,medwf,
171,s217,171,kremp,kr,re,em,mp,k,r,e,m,p,,,0.7585293640149757,0.8544705490348861,0.934361268999055,0.99846210796386,1.0944440610473976,0.0,0.0,kremp,pseudo,
172,s217,172,haole,ha,ao,ol,le,h,a,o,l,e,,,0.6265451998915523,0.7546609949786216,0.858573462930508,1.0666425409726799,1.2026145668933168,0.0,0.0,haole,lowwf,
173,s217,173,cooed,co,oo,oe,ed,c,o,o,e,d,,,0.5983798609813675,0.7342656890396029,0.894375795032829,1.0303519619628787,1.214328058063984,0.0,0.0,cooed,lowwf,
174,s217,174,there,th,he,er,re,t,h,e,r,e,,,0.6664882859913632,0.7623890159884468,0.8503800149774179,0.9464474299456924,1.050378026906401,0.0,0.0,there,highwf,
175,s217,175,zibja,zi,ib,bj,ja,z,i,b,j,a,,,0.910397140076384,1.022510119015351,1.1503921250114217,1.3503967000870034,1.494500651024282,0.0,0.0,zibja,pseudo,
176,s217,176,think,th,hi,in,nk,t,h,i,n,k,,,0.7465898570371792,0.9066913099959493,1.0505807100562379,1.354699919000268,1.4826966549735516,0.0,0.0,think,highwf,
177,s217,177,druze,dr,ru,uz,ze,d,r,u,z,e,,,0.6547444199677557,0.8787734309444204,1.0227662889519706,1.1586520569399,1.3587599729653448,0.0,0.0,druze,lowwf,
178,s217,178,theme,th,he,em,me,t,h,e,m,e,,,0.7384634229820222,0.8343539088964462,0.9704912429442629,1.1304668419761583,1.2024623539764434,0.0,0.0,theme,medwf,
179,s217,179,therm,th,he,er,rm,t,h,e,r,m,,,0.7586425170302391,0.8867114949971437,0.9747177560348064,1.086888508987613,1.2227657890180126,0.0,0.0,therm,lowwf,
180,s217,180,belly,be,el,ll,ly,b,e,l,l,y,,,0.7543582950020209,0.8903537479927763,0.9943354839924723,1.1542972299503163,1.362275129999034,0.0,0.0,belly,medwf,
181,s217,181,lucky,lu,uc,ck,ky,l,u,c,k,y,,,0.7027686710935086,0.918837761040777,1.094744176021777,1.2387837920105085,1.4627160610398278,0.0,0.0,lucky,highwf,
182,s217,182,pykka,py,yk,kk,ka,p,y,k,k,a,,,0.7302912910236046,0.9543077819980681,1.2663522600196302,1.402335399063304,1.530356572009623,0.0,0.0,pykka,pseudo,
183,s217,183,therm,th,he,er,rm,t,h,e,r,m,,,0.81457714503631,0.9344980330206454,1.070646206033416,1.1906132850563154,1.278658063034527,0.0,0.0,therm,lowwf,
184,s217,184,puppy,pu,up,pp,py,p,u,p,p,y,,,0.6502808770164847,0.8023945860331878,0.9463838849915192,1.1303732070373371,1.3064082270720974,0.0,0.0,puppy,medwf,
185,s217,185,tithe,ti,it,th,he,t,i,t,h,e,,,0.7905478921020404,0.9104664620244876,1.0144322561100125,1.1025095990626141,1.230535120004788,0.0,0.0,tithe,lowwf,
186,s217,186,cheer,ch,he,ee,er,c,h,e,e,r,,,0.6826084209606051,0.8585859859595075,0.970619636005722,1.1706223839428276,1.2586473079863936,0.0,0.0,cheer,medwf,
187,s217,187,kremp,kr,re,em,mp,k,r,e,m,p,,,0.686230989987962,0.8222840199014172,0.9501651269383729,1.0702846209751442,1.2862520889611915,0.0,0.0,kremp,pseudo,
188,s217,188,about,ab,bo,ou,ut,a,b,o,u,t,,,0.7303691720589995,0.8663651200477034,1.026267326087691,1.1783118119928986,1.3223894700640813,0.0,0.0,about,highwf,
189,s217,189,druze,dr,ru,uz,ze,d,r,u,z,e,,,0.7664283609483391,0.9584340109722689,1.0784241219516844,1.2704419359797612,1.494488550000824,0.0,0.0,druze,lowwf,
190,s217,190,about,ab,bo,ou,ut,a,b,o,u,t,,,0.6026049539214,0.7065984809305519,0.9305802850285545,1.0985946080181748,1.2344960370101035,0.0,0.0,about,highwf,
191,s217,191,cheer,ch,he,ee,er,c,h,e,e,r,,,0.7586271699983627,0.9185453499667346,1.0465950230136514,1.238678692956455,1.3186279149958864,0.0,0.0,cheer,medwf,
192,s217,192,edthe,ed,dt,th,he,e,d,t,h,e,,,0.6346592530608177,0.8506556060165167,1.0427303860196844,1.1547720730304718,1.2827614520210773,0.0,0.0,edthe,pseudo,
193,s217,193,vodka,vo,od,dk,ka,v,o,d,k,a,,,0.7346313680754974,0.8307381140766665,1.0227557950420305,1.1186595300678164,1.2227133359992877,0.0,0.0,vodka,medwf,
194,s217,194,cooed,co,oo,oe,ed,c,o,o,e,d,,,0.6661914760479704,0.8341048980364576,1.0182553949998692,1.1302422509761527,1.338237531017512,0.0,0.0,cooed,lowwf,
195,s217,195,lucky,lu,uc,ck,ky,l,u,c,k,y,,,0.654460181016475,0.854531646007672,0.9905332979978994,1.0864684480475262,1.3024806870380417,0.0,0.0,lucky,highwf,
196,s217,196,belly,be,el,ll,ly,b,e,l,l,y,,,0.6982333780033514,0.8422458240529522,0.9062476310646161,1.0581665760837495,1.1942278400529176,0.0,0.0,belly,medwf,
197,s217,197,zibja,zi,ib,bj,ja,z,i,b,j,a,,,0.9023262979462743,1.0142494379542768,1.1342379059642553,1.3102801010245457,1.422361047938466,0.0,0.0,zibja,pseudo,
198,s217,198,champ,ch,ha,am,mp,c,h,a,m,p,,,0.7541793109849095,0.8822262049652636,0.9542077980004251,1.08222178905271,1.2421469669789076,0.0,0.0,champ,medwf,
199,s217,199,edthe,ed,dt,th,he,e,d,t,h,e,,,0.6941771199926734,0.9021198870614171,1.0460382250603288,1.182142148958519,1.2701509869657457,0.0,0.0,edthe,pseudo,
200,s217,200,there,th,he,er,re,t,h,e,r,e,,,0.7622208740795031,0.9062261310173199,1.0022696320666,1.1302770430920646,1.2101577420253307,0.0,0.0,there,highwf,
201,s217,201,tithe,ti,it,th,he,t,i,t,h,e,,,0.6863314539659768,0.8143036419060081,0.9102728449506685,0.9903823649510741,1.0783565739402547,0.0,0.0,tithe,lowwf,
202,s217,202,would,wo,ou,ul,ld,w,o,u,l,d,,,0.8340893989661708,1.042088882997632,1.1621034470153973,1.3301442370284349,1.4421415199758485,0.0,0.0,would,highwf,
203,s217,203,heond,he,eo,on,nd,h,e,o,n,d,,,0.7984138060128316,0.9583946029888466,1.0304615970235318,1.158389060990885,1.2864180860342458,0.0,0.0,heond,pseudo,
204,s217,204,faqir,fa,aq,qi,ir,f,a,q,i,r,,,0.8582081090426072,1.0340726610738784,1.3062169040786102,1.4821731300326064,1.642161122057587,0.0,0.0,faqir,lowwf,
205,s217,205,puppy,pu,up,pp,py,p,u,p,p,y,,,0.7261268080910668,0.8781133940210566,1.0220589890377596,1.2140537400264293,1.3901645590085536,0.0,0.0,puppy,medwf,
206,s217,206,vodka,vo,od,dk,ka,v,o,d,k,a,,,0.8184633960481733,0.93046631407924,1.0904532499844208,1.186430478002876,1.3464294440345839,0.0,0.0,vodka,medwf,
207,s217,207,belly,be,el,ll,ly,b,e,l,l,y,,,0.8305716799804941,0.9985930169932544,1.1104970109881833,1.3185944319702685,1.694656340056099,0.0,0.0,belly,medwf,
208,s217,208,faqir,fa,aq,qi,ir,f,a,q,i,r,,,0.9622151700314134,1.0902766799554229,1.4022829430177808,1.6101566349389032,1.7302757180295885,0.0,0.0,faqir,lowwf,
209,s217,209,edthe,ed,dt,th,he,e,d,t,h,e,,,0.7504138499498367,0.9824610919458792,1.1985148759558797,1.3504126369953156,1.4945047110086307,0.0,0.0,edthe,pseudo,
210,s217,210,puppy,pu,up,pp,py,p,u,p,p,y,,,0.6024124500108883,0.7704389449208975,0.9143313749227673,1.0904397949343547,1.3143439419800416,0.0,0.0,puppy,medwf,
211,s217,211,zibja,zi,ib,bj,ja,z,i,b,j,a,,,0.9264229460386559,1.070682659978047,1.2705273809842765,1.470534685999155,1.6385348100448027,0.0,0.0,zibja,pseudo,
212,s217,212,vanru,va,an,nr,ru,v,a,n,r,u,,,0.8743469329783693,0.9463112949160859,1.1143183539388701,1.258392005925998,1.4023658588994294,0.0,0.0,vanru,pseudo,
213,s217,213,faqir,fa,aq,qi,ir,f,a,q,i,r,,,0.9021598249673843,0.9980789819965139,1.3340205400018021,1.5661238440079615,1.7340214049909264,0.0,0.0,faqir,lowwf,
214,s217,214,lucky,lu,uc,ck,ky,l,u,c,k,y,,,0.7702463110908866,0.9862590570701286,1.290245741023682,1.4341188570251688,1.6902456070529297,0.0,0.0,lucky,highwf,
215,s217,215,champ,ch,ha,am,mp,c,h,a,m,p,,,0.7820055159972981,0.8939321900252253,0.9820065160747617,1.1339037000434473,1.3259690700797364,0.0,0.0,champ,medwf,
216,s217,216,vanru,va,an,nr,ru,v,a,n,r,u,,,0.81027626094874,0.8743554620305076,1.0422797929495573,1.1863479850580916,1.3463003629585728,0.0,0.0,vanru,pseudo,
217,s217,217,therm,th,he,er,rm,t,h,e,r,m,,,0.9502594569930807,1.0863505270099267,1.222343988949433,1.3183419939596206,1.438286031014286,0.0,0.0,therm,lowwf,
218,s217,218,buddy,bu,ud,dd,dy,b,u,d,d,y,,,1.1304752150317654,1.306483303080313,1.5064368770690635,1.6744467220269144,1.7945161440875381,0.0,0.0,buddy,highwf,
219,s217,219,theme,th,he,em,me,t,h,e,m,e,,,0.8783909729681909,1.0303723119432107,1.1422737230313942,1.3103511169319972,1.4062755689956248,0.0,0.0,theme,medwf,
220,s217,220,would,wo,ou,ul,ld,w,o,u,l,d,,,0.6424280939390883,0.7785847400082275,0.914470421965234,1.0824900310253724,1.2343768139835447,0.0,0.0,would,highwf,
221,s217,221,faqir,fa,aq,qi,ir,f,a,q,i,r,,,0.7984088239027187,0.9423964630113915,1.174379137926735,1.3503381409682333,1.4784703929908574,0.0,0.0,faqir,lowwf,
222,s217,222,buddy,bu,ud,dd,dy,b,u,d,d,y,,,0.7140710840467364,0.8740938330302015,1.033972712000832,1.1941567100584507,1.2980146029731259,0.0,0.0,buddy,highwf,
223,s217,223,tithe,ti,it,th,he,t,i,t,h,e,,,0.837969655985944,0.9579875400522724,1.053936276002787,1.1580363609828055,1.2620114450110123,0.0,0.0,tithe,lowwf,
224,s217,224,pykka,py,yk,kk,ka,p,y,k,k,a,,,0.642143446020782,0.8341332769487053,1.1302423949819058,1.2582365069538355,1.378252964001149,0.0,0.0,pykka,pseudo,
225,s217,225,druze,dr,ru,uz,ze,d,r,u,z,e,,,0.7662554319249466,0.974290783982724,1.1261626930208877,1.3421705319778994,1.5341599989915267,0.0,0.0,druze,lowwf,
226,s217,226,would,wo,ou,ul,ld,w,o,u,l,d,,,0.6741021979833022,0.7860307940281928,0.9060354620451108,1.0660847109975293,1.2179780950536951,0.0,0.0,would,highwf,
227,s217,227,haole,ha,ao,ol,le,h,a,o,l,e,,,0.8381068240851164,0.918062222073786,1.1100001820595935,1.3020788420690224,1.4300814060261473,0.0,0.0,haole,lowwf,
228,s217,228,heond,he,eo,on,nd,h,e,o,n,d,,,0.8339790829923004,0.9541042828932405,1.0500527149997652,1.1940320699941367,1.3459892160026357,0.0,0.0,heond,pseudo,
229,s217,229,tithe,ti,it,th,he,t,i,t,h,e,,,0.973759480053559,1.12576402106788,1.2297726930119097,1.3417351740645245,1.4617001730948687,0.0,0.0,tithe,lowwf,
230,s217,230,about,ab,bo,ou,ut,a,b,o,u,t,,,0.8903142049675807,1.0022981819929555,1.1622881540097296,1.3063156589632854,1.4743168720742688,0.0,0.0,about,highwf,
231,s217,231,kremp,kr,re,em,mp,k,r,e,m,p,,,0.9023210180457681,1.0783029349986464,1.1903369060019031,1.3183836650568992,1.470323370071128,0.0,0.0,kremp,pseudo,
232,s217,232,tithe,ti,it,th,he,t,i,t,h,e,,,1.129834827966988,1.2579113829415292,1.3458273049909621,1.4418425100157037,1.5379159229341894,0.0,0.0,tithe,lowwf,
233,s217,233,vanru,va,an,nr,ru,v,a,n,r,u,,,0.7901011939393356,0.8620941740227863,1.006044046021998,1.1580935439560562,1.2940479960525408,0.0,0.0,vanru,pseudo,
234,s217,234,kremp,kr,re,em,mp,k,r,e,m,p,,,0.7381521590286866,0.8581417970126495,0.9541463640052825,1.0021202079951763,1.122103528934531,0.0,0.0,kremp,pseudo,
235,s217,235,cheer,ch,he,ee,er,c,h,e,e,r,,,0.6058393940329552,0.7498592740157619,0.8457654010271654,1.0218993549933657,1.1018680200213566,0.0,0.0,cheer,medwf,
236,s217,236,heond,he,eo,on,nd,h,e,o,n,d,,,0.7700760219013318,0.8821044119540602,0.9700671409955248,1.0740680859889835,1.2019882620079443,0.0,0.0,heond,pseudo,
237,s217,237,lucky,lu,uc,ck,ky,l,u,c,k,y,,,0.6702787489630282,0.894251941004768,1.0541940010152757,1.198232832015492,1.4304447859758511,0.0,0.0,lucky,highwf,
238,s217,238,about,ab,bo,ou,ut,a,b,o,u,t,,,0.6817114920122549,0.8017264810623601,1.0816506720148027,1.1937381740426645,1.3377229130128399,0.0,0.0,about,highwf,
239,s217,239,champ,ch,ha,am,mp,c,h,a,m,p,,,0.7741456950316206,0.8701220110524446,0.9741398540791124,1.1021044420776889,1.254125202074647,0.0,0.0,champ,medwf,
