,sID,Trial #,string,bi_1,bi_2,bi_3,bi_4,key_resp.keys.1,key_resp.keys.2,key_resp.keys.3,key_resp.keys.4,key_resp.keys.5,key_resp.keys.6,key_resp.rt.1,key_resp.rt.2,key_resp.rt.3,key_resp.rt.4,key_resp.rt.5,key_resp.rt.6,resp_string,WF Type,BF Type
0,s219,0,tithe,ti,it,th,he,t,i,t,h,e,,1.1689555160701275,1.360993676004,1.5370194660499692,1.7050648180302233,1.9290692820213735,0.0,tithe,lowwf,
1,s219,1,puppy,pu,up,pp,py,p,u,p,p,y,,1.1874267950188369,1.4113931440515444,1.6753794110845774,1.8433168340707198,2.203419503988698,0.0,puppy,medwf,
2,s219,2,buddy,bu,ud,dd,dy,b,u,d,d,y,,1.1111794860335067,1.3191852770978585,1.8551776270614937,2.015179672045633,2.1831238890299574,0.0,buddy,highwf,
3,s219,3,druze,dr,ru,uz,ze,d,r,u,z,e,,1.0754642400424927,1.3874805730301887,1.6273552069906145,2.0835113499779254,2.3394358919467777,0.0,druze,lowwf,
4,s219,4,theme,th,he,em,me,t,h,e,m,e,,1.007288335938938,1.1672608819790184,1.3193526869872585,1.5592577899806201,1.7193807259900495,0.0,theme,medwf,
5,s219,5,vodka,vo,od,dk,ka,v,o,s,k,e,,1.6992826919304207,1.8671540259383619,2.131217594956979,2.787302824901417,2.9712828199844807,0.0,voske,medwf,
6,s219,6,buddy,bu,ud,dd,dy,b,u,d,d,y,,1.5034972690045834,1.719393696053885,1.9673233210342005,2.1273180909920484,2.29546668601688,0.0,buddy,highwf,
7,s219,7,therm,th,he,er,rm,t,h,e,r,m,n,0.9874164120992646,1.1793876010924578,1.5153943810146302,1.7474153640214354,1.9954614250455052,1.9954614250455052,thermn,lowwf,
8,s219,8,faqir,fa,aq,qi,ir,f,a,q,i,,,1.2151900139870122,1.7192419919883832,2.0632362270262092,3.3112197970040143,0.0,0.0,faqi,lowwf,
9,s219,9,vodka,vo,od,dk,ka,v,o,d,k,a,,1.4115870329551399,1.6594847119413316,1.9155218589585274,2.179466761997901,2.579500790918246,0.0,vodka,medwf,
10,s219,10,would,wo,ou,ul,ld,w,o,u,l,d,,1.375354617019184,1.543188231997192,1.7913191900588572,2.047246066038497,2.255320372991264,0.0,would,highwf,
11,s219,11,tithe,ti,it,th,he,t,i,t,h,e,,0.9394893409917131,1.1635648250812665,1.3315070690587163,1.5075787450186908,1.7075429169926792,0.0,tithe,lowwf,
12,s219,12,cheer,ch,he,ee,er,c,h,e,e,r,,1.3111751120304689,1.5111023490317166,1.6872227599378675,1.8471642440417781,2.0231822970090434,0.0,cheer,medwf,
13,s219,13,lucky,lu,uc,ck,ky,l,u,c,k,y,,1.0432396399555728,1.3393066939897835,1.643243397003971,1.8033914929255843,2.019335779012181,0.0,lucky,highwf,
14,s219,14,champ,ch,ha,am,mp,c,h,a,m,p,p,0.9671871269820258,1.2232557369861752,1.4152893970021978,1.6152367279864848,1.8553028459427878,2.039312297012657,champp,medwf,
15,s219,15,cheer,ch,he,ee,er,c,h,e,e,r,,0.8993879149202257,1.0754237509099767,1.2432504229946062,1.4033856129972264,1.5713550109649077,0.0,cheer,medwf,
16,s219,16,vodka,vo,od,dk,ka,v,o,d,k,a,,1.2392701209755614,1.4953189169755206,1.8152796159265563,2.095259371912107,2.311256806948222,0.0,vodka,medwf,
17,s219,17,puppy,pu,up,pp,py,p,u,p,p,y,,1.011263792985119,1.2832205470185727,1.5232440159888938,1.6992375659756362,1.9231963540660217,0.0,puppy,medwf,
18,s219,18,cooed,co,oo,oe,ed,c,o,o,o,e,d,1.063167665968649,1.271070091985166,1.4551707960199565,1.615121588925831,1.8871696999995038,2.095217189984396,coooed,lowwf,
19,s219,19,tithe,ti,it,th,he,t,i,t,h,e,,1.1311627760296687,1.3312025170307606,1.4753069559810683,1.6912212169263512,1.915265421033837,0.0,tithe,lowwf,
20,s219,20,edthe,ed,dt,th,he,e,t,h,d,,,1.1991786130238324,1.4392012129537761,1.655082607991062,2.279133131960407,0.0,0.0,ethd,pseudo,
21,s219,21,haole,ha,ao,ol,le,h,a,o,l,e,,1.52334041998256,1.9552553739631549,2.2193895688978955,2.4592593979323283,2.587362859980203,0.0,haole,lowwf,
22,s219,22,druze,dr,ru,uz,ze,d,r,u,z,e,,1.0475891589885578,1.6555128840263933,1.871580746024847,2.3675105889560655,2.591620957944542,0.0,druze,lowwf,
23,s219,23,faqir,fa,aq,qi,ir,f,a,q,i,r,,1.259203632012941,1.683318865019828,1.979218248045072,2.339268052019179,2.547283648047596,0.0,faqir,lowwf,
24,s219,24,puppy,pu,up,pp,py,p,u,u,p,y,,1.0154560139635578,1.3034830018877983,1.447449644911103,1.6794168918859214,2.007403443916701,0.0,puupy,medwf,
25,s219,25,haole,ha,ao,ol,le,h,a,o,l,e,,1.2192900510272011,1.4511813450371847,2.1472535660723224,2.363348470069468,2.5152062790002674,0.0,haole,lowwf,
26,s219,26,there,th,he,er,re,t,h,e,r,e,,0.9511726830387488,1.1192507520318031,1.2632569500710815,1.4633088480914012,1.6632314500166103,0.0,there,highwf,
27,s219,27,think,th,hi,in,nk,t,h,i,n,k,,0.9152375939302146,1.0832406349945813,1.291240679915063,1.5152285859221593,1.71523070090916,0.0,think,highwf,
28,s219,28,vodka,vo,od,dk,ka,v,o,d,k,a,,1.431227347929962,1.7033589800121263,1.967180100036785,2.479209527024068,2.6632683819625527,0.0,vodka,medwf,
29,s219,29,pykka,py,yk,kk,ka,p,y,k,k,a,,1.4032835520338267,1.9311729229521006,2.63528177596163,2.7952252669492736,3.0992421800037846,0.0,pykka,pseudo,
30,s219,30,vanru,va,an,nr,ru,v,a,n,r,u,,1.2710655089467764,1.6471719850087538,1.8071770180249587,2.15104349097237,2.447165702935308,0.0,vanru,pseudo,
31,s219,31,about,ab,bo,ou,ut,a,b,o,u,t,,0.9550088320393115,1.1549989900086075,1.4030596010852605,1.635028529097326,1.8509956269990653,0.0,about,highwf,
32,s219,32,edthe,ed,dt,th,he,e,d,t,h,e,,1.3668397649889812,1.606889384915121,1.8468192209256813,2.030814946978353,2.198939992929809,0.0,edthe,pseudo,
33,s219,33,kremp,kr,re,em,mp,k,r,e,m,p,,1.4271394070237875,1.6032149130478501,1.8592777160229161,2.0511229230323806,2.3471895990660414,0.0,kremp,pseudo,
34,s219,34,cheer,ch,he,ee,er,c,h,e,e,r,,1.0313996319891885,1.2154097000602633,1.3913748560007662,1.5433370129903778,1.7673311560647562,0.0,cheer,medwf,
35,s219,35,there,th,he,er,re,t,h,e,r,e,,0.8354750520084053,0.9793107400182635,1.1312874580034986,1.3072685920633376,1.499370814068243,0.0,there,highwf,
36,s219,36,cooed,co,oo,oe,ed,c,o,o,e,d,,1.1432679640129209,1.3193632650654763,1.4873556270031258,1.6713014360284433,1.8473787090042606,0.0,cooed,lowwf,
37,s219,37,think,th,hi,in,nk,t,h,i,n,k,,0.8512457000324503,0.9553031210089102,1.147336630965583,1.363251080038026,1.5473169180331752,0.0,think,highwf,
38,s219,38,cooed,co,oo,oe,ed,c,o,o,e,d,,0.8630657478934154,1.079025687999092,1.255091333994642,1.4789883519988507,1.6630702359834686,0.0,cooed,lowwf,
39,s219,39,think,th,hi,in,nk,t,h,i,n,k,,0.8351592050166801,1.0111421510810032,1.2751671380829066,1.8430515750078484,2.0831354060210288,0.0,think,highwf,
40,s219,40,puppy,pu,up,pp,py,p,u,p,p,y,,1.0068295280216262,1.2547988760052249,1.5188117580255494,1.7109311110107228,1.9667143230326474,0.0,puppy,medwf,
41,s219,41,vanru,va,an,nr,ru,v,a,n,r,u,,1.1872570009436458,1.4511794949648902,1.6033334808889776,1.8272322479169816,2.0671919289743528,0.0,vanru,pseudo,
42,s219,42,champ,ch,ha,am,mp,c,h,a,m,p,,0.9750219569541514,1.1429510719608516,1.3430608549388126,1.542955158976838,1.7669919800246134,0.0,champ,medwf,
43,s219,43,think,th,hi,in,nk,t,h,i,n,k,,0.770323314005509,0.9382941549411044,1.1622835280140862,1.418290133937262,1.6822576340055093,0.0,think,highwf,
44,s219,44,tithe,ti,it,th,he,t,i,t,h,e,,0.9989951009629294,1.1990402019582689,1.375048529007472,1.5429189179558307,1.7509168969700113,0.0,tithe,lowwf,
45,s219,45,there,th,he,er,re,t,h,e,r,e,,0.8190189960878342,0.9789249810855836,1.130987017066218,1.315140365040861,1.4990673509892076,0.0,there,highwf,
46,s219,46,lucky,lu,uc,ck,ky,l,u,c,k,y,,1.1190316129941493,1.4630017649615183,1.9030456589534879,2.087063294951804,2.303031311952509,0.0,lucky,highwf,
47,s219,47,haole,ha,ao,ol,le,h,a,o,l,e,,1.3310121120885015,1.5551080810837448,1.9550639600493014,2.2191146250115708,2.395074597094208,0.0,haole,lowwf,
48,s219,48,zibja,zi,ib,bj,ja,z,i,b,j,a,,1.4868919550208375,1.686729972017929,1.9827214600518346,2.5747889099875465,3.2467781950253993,0.0,zibja,pseudo,
49,s219,49,druze,dr,ru,uz,ze,d,r,u,z,e,,1.147046598023735,1.3629875519545749,1.6830490139545873,2.178991499939002,2.435009693959728,0.0,druze,lowwf,
50,s219,50,kremp,kr,re,em,mp,k,r,e,m,p,,1.4629952099639922,1.639096420025453,1.8310345619684085,1.9991136519238353,2.199106919928454,0.0,kremp,pseudo,
51,s219,51,champ,ch,ha,am,mp,c,h,a,m,p,,1.1071772980503738,1.2831494499696419,1.4831427100580186,1.6590347309829667,1.9071522949961945,0.0,champ,medwf,
52,s219,52,would,wo,ou,ul,ld,w,o,u,l,d,,1.054999491898343,1.2389302619267255,1.478947284980677,1.7269263128982857,1.9269182569114491,0.0,would,highwf,
53,s219,53,theme,th,he,em,me,t,h,e,m,e,,0.9389092660276219,1.1307815850013867,1.36285539297387,2.1388514740392566,2.306898773065768,0.0,theme,medwf,
54,s219,54,therm,th,he,er,rm,t,h,e,r,m,,0.9511833949945867,1.0952166710048914,1.2472384449793026,1.4152313090162352,1.5832172079244629,0.0,therm,lowwf,
55,s219,55,faqir,fa,aq,qi,ir,f,a,q,i,r,,1.226830448023975,1.538955974043347,1.874944181065075,2.1389209020417184,2.3629341650521383,0.0,faqir,lowwf,
56,s219,56,kremp,kr,re,em,mp,k,r,e,m,p,,1.462971244007349,1.6230504480190575,1.8230069989804178,1.9909610210452229,2.190948602044955,0.0,kremp,pseudo,
57,s219,57,champ,ch,ha,am,mp,c,h,e,a,m,p,0.9549007070017979,1.106998709961772,1.2989883549744263,1.8588912429986522,2.1069001120049506,2.3149257749319077,cheamp,medwf,
58,s219,58,about,ab,bo,ou,ut,a,b,o,u,t,,0.910856431000866,1.0788161020027474,1.2948818180011585,1.5668601361103356,1.7267648400738835,0.0,about,highwf,
59,s219,59,edthe,ed,dt,th,he,a,d,t,h,e,,1.0031769500346854,1.8751985490089282,2.1872595390304923,2.331131390063092,2.4911619510967284,0.0,adthe,pseudo,
60,s219,60,theme,th,he,em,me,t,h,e,m,e,,0.8871967599261552,1.0231614880030975,1.1751186209730804,1.3590453549986705,1.4791138659929857,0.0,theme,medwf,
61,s219,61,buddy,bu,ud,dd,dy,b,u,d,d,y,,1.0430339659797028,1.2590469729620963,1.499135022982955,1.6670644789701328,1.9150765229715034,0.0,buddy,highwf,
62,s219,62,heond,he,eo,on,nd,h,e,o,n,d,,1.166899117990397,1.3910340900765732,1.72692885203287,1.983011623029597,2.519011553027667,0.0,heond,pseudo,
63,s219,63,zibja,zi,ib,bj,ja,z,i,b,j,a,,1.2269435279304162,1.442955294973217,2.6750516039319336,2.8669199019204825,3.147047306993045,0.0,zibja,pseudo,
64,s219,64,puppy,pu,up,pp,py,p,u,p,p,y,,0.9429383219685405,1.2149871899746358,1.479004375054501,1.6629458910319954,1.9991253099869937,0.0,puppy,medwf,
65,s219,65,vanru,va,an,nr,ru,v,a,n,r,u,,1.1698292180662975,1.4096626120153815,1.5697461920790374,1.817774177994579,2.0976823060773313,0.0,vanru,pseudo,
66,s219,66,champ,ch,ha,am,mp,c,h,a,m,p,,0.8621990140527487,1.04620659397915,1.2542803949909285,1.4542173199588433,1.6942981970496476,0.0,champ,medwf,
67,s219,67,would,wo,ou,ul,ld,w,o,u,l,d,,1.050216652918607,1.2582647310337052,1.4981830710312352,1.746149793965742,1.946165230940096,0.0,would,highwf,
68,s219,68,belly,be,el,ll,ly,b,e,l,l,y,,1.0381183020072058,1.7259980340022594,1.91810747992713,2.094052169006318,2.2461290629580617,0.0,belly,medwf,
69,s219,69,zibja,zi,ib,bj,ja,z,i,b,j,a,,1.4662281490163878,1.6743266129633412,1.9303651560330763,2.4421911910176277,2.618264641962014,0.0,zibja,pseudo,
70,s219,70,belly,be,el,ll,ly,b,e,l,l,y,,0.9581362080061808,1.2062214500037953,1.3662197209196165,1.5421055079204962,1.7021903810091317,0.0,belly,medwf,
71,s219,71,vanru,va,an,nr,ru,v,a,n,r,u,,1.010253053973429,1.2903194190002978,1.4583384520374238,1.7303528500488028,1.9783519770717248,0.0,vanru,pseudo,
72,s219,72,cheer,ch,he,ee,er,c,h,e,e,r,,0.8223772379569709,1.0223863539285958,1.2383651729905978,1.398294689017348,1.5742717229295522,0.0,cheer,medwf,
73,s219,73,faqir,fa,aq,qi,ir,f,a,q,i,r,,0.9620176060125232,1.3141012080013752,1.7380910880165175,2.3701491249958053,2.5460267330054194,0.0,faqir,lowwf,
74,s219,74,pykka,py,yk,kk,ka,p,y,k,k,e,,1.8943202919326723,2.382394977961667,2.6783642800292,2.830364290974103,3.0143259690376,0.0,pykke,pseudo,
75,s219,75,about,ab,bo,ou,ut,a,b,o,u,t,,0.8341225179610774,1.0261195049388334,1.3702526789857075,1.6181710349628702,1.8101243759738281,0.0,about,highwf,
76,s219,76,theme,th,he,em,me,t,h,e,m,e,,0.8621806190349162,1.0141041780589148,1.182178877061233,1.3980680030072108,1.558056332054548,0.0,theme,medwf,
77,s219,77,vanru,va,an,nr,ru,v,a,n,r,u,,1.218069117050618,1.5061795270303264,1.6901953719789162,1.96218116406817,2.1781630710465834,0.0,vanru,pseudo,
78,s219,78,heond,he,eo,on,nd,h,e,o,n,d,,1.086235155002214,1.3422252630116418,1.6622613540384918,1.9422236339887604,2.534150274004787,0.0,heond,pseudo,
79,s219,79,about,ab,bo,ou,ut,a,b,o,u,t,,0.9221043090801686,1.0900536470580846,1.3380591049790382,1.5780713080894202,1.809984899009578,0.0,about,highwf,
80,s219,80,faqir,fa,aq,qi,ir,f,a,q,i,r,,1.6860436039278284,2.045932002016343,2.317987203015946,2.645941435941495,2.8380414359271526,0.0,faqir,lowwf,
81,s219,81,pykka,py,yk,kk,ka,p,y,k,k,a,,1.2580174980685115,2.145942009985447,2.4259047920349985,2.593982435995713,2.777952774078585,0.0,pykka,pseudo,
82,s219,82,cheer,ch,he,ee,er,c,h,e,e,r,,0.8378250669920817,0.9977127689635381,1.1577790179289877,1.31773346895352,1.5018118990119547,0.0,cheer,medwf,
83,s219,83,buddy,bu,ud,dd,dy,b,u,d,d,y,,1.0021044099703431,1.1940558110363781,1.41008309496101,1.562080436036922,1.7541136860381812,0.0,buddy,highwf,
84,s219,84,belly,be,el,ll,ly,b,e,l,l,y,,0.9102457790868357,1.190375604084693,1.3903333470225334,1.5823373430175707,1.7503163480432704,0.0,belly,medwf,
85,s219,85,zibja,zi,ib,bj,ja,z,i,b,j,a,,1.3941375779686496,1.6180924220243469,2.6901737930020317,2.906192871974781,3.1141771000111476,0.0,zibja,pseudo,
86,s219,86,kremp,kr,re,em,mp,k,r,e,m,p,,1.2461321540176868,1.4141454960918054,1.6141314570559189,1.7981417190749198,2.0382143401075155,0.0,kremp,pseudo,
87,s219,87,edthe,ed,dt,th,he,e,d,t,h,e,,1.2903316889423877,1.9783962100045756,2.2504007760435343,2.4263259399449453,2.5863786169793457,0.0,edthe,pseudo,
88,s219,88,therm,th,he,er,rm,t,h,e,r,m,,0.9499513590708375,1.1098684900207445,1.2699748399900272,1.4540379890240729,1.6539743869798258,0.0,therm,lowwf,
89,s219,89,haole,ha,ao,ol,le,h,a,o,l,e,,1.0901158220367506,1.3781044309725985,1.7940506329759955,2.0180874440120533,2.2020553089678288,0.0,haole,lowwf,
90,s219,90,heond,he,eo,on,nd,h,e,o,n,d,,1.3261067250277847,1.574224930955097,1.782193877035752,2.0301937379408628,2.4222290499601513,0.0,heond,pseudo,
91,s219,91,about,ab,bo,ou,ut,a,b,o,u,t,,1.4821921429829672,1.6662067109718919,1.9222079740138724,2.1623349600704387,2.3781868449877948,0.0,about,highwf,
92,s219,92,there,th,he,er,re,t,h,e,r,e,,0.9661628620233387,1.1021395330317318,1.2542025810107589,1.422100853989832,1.622100239037536,0.0,there,highwf,
93,s219,93,druze,dr,ru,uz,ze,d,r,u,z,e,,1.0500191170722246,1.281984040979296,1.513982258969918,2.0500077049946412,2.3380236630328,0.0,druze,lowwf,
94,s219,94,pykka,py,yk,kk,ka,p,y,k,k,a,,1.1419556699693203,1.893853839021176,2.2299196219537407,2.4059163130586967,2.6379708379972726,0.0,pykka,pseudo,
95,s219,95,kremp,kr,re,em,mp,k,r,e,m,p,o,1.6176696280017495,1.8497389829717577,2.0657545139547437,2.2577431940007955,2.5138012159150094,2.521818597917445,krempo,pseudo,
96,s219,96,lucky,lu,uc,ck,ky,l,u,c,k,y,,1.037606569007039,1.4456242859596387,1.7415721080033109,1.9256388869835064,2.1575676719658077,0.0,lucky,highwf,
97,s219,97,buddy,bu,ud,dd,dy,b,u,d,d,y,,1.1212858739309013,1.3212789009558037,1.561252154991962,1.7212387999752536,1.9612519550137222,0.0,buddy,highwf,
98,s219,98,heond,he,eo,on,nd,h,e,o,n,d,,1.0213223909959197,1.26930850406643,1.469317794078961,1.7333249360090122,2.1413463060744107,0.0,heond,pseudo,
99,s219,99,haole,ha,ao,ol,le,h,a,o,l,e,,1.0892151519656181,1.3532519319560379,1.7291094310348853,1.9851986840367317,2.1930910509545356,0.0,haole,lowwf,
100,s219,100,belly,be,el,ll,ly,b,e,l,l,y,,0.909222227986902,1.1333135690074414,1.4053211939753965,1.5812283210689202,1.86129756399896,0.0,belly,medwf,
101,s219,101,cooed,co,oo,oe,ed,c,o,o,e,d,,1.137258199043572,1.3532848190516233,1.553290943033062,1.8652427929919213,2.089184717973694,0.0,cooed,lowwf,
102,s219,102,vodka,vo,od,dk,ka,v,o,d,k,a,,1.4291969540063292,1.7171881439862773,2.0533191489521414,2.3413134509464726,2.645220833015628,0.0,vodka,medwf,
103,s219,103,edthe,ed,dt,th,he,e,d,t,h,e,,1.1207512059481815,1.4807124369544908,1.7847970119910315,1.9286935939453542,2.064769687014632,0.0,edthe,pseudo,
104,s219,104,therm,th,he,er,rm,t,h,e,r,m,,0.8772722299909219,1.0133163479622453,1.1574008609168231,1.3333876569522545,1.5653813669923693,0.0,therm,lowwf,
105,s219,105,theme,th,he,em,me,t,h,e,m,e,,0.8493112040450796,0.961341513087973,1.1292260810732841,1.3693499281071126,1.5292699200799689,0.0,theme,medwf,
106,s219,106,zibja,zi,ib,bj,ja,z,i,b,j,a,,1.453325198031962,1.6212434429908171,1.861286852043122,2.1571749970316887,2.4932117550633848,0.0,zibja,pseudo,
107,s219,107,pykka,py,yk,kk,ka,p,y,k,k,a,,1.4495195089839399,2.2734284580219537,2.577408642973751,2.745507357059978,2.9454757990315557,0.0,pykka,pseudo,
108,s219,108,cooed,co,oo,oe,ed,c,o,o,e,d,,1.0932653319323435,1.277267591911368,1.437354929978028,1.733347455970943,1.949305618996732,0.0,cooed,lowwf,
109,s219,109,would,wo,ou,ul,ld,w,o,u,l,d,,1.0573279549134895,1.2172363509889692,1.4172569739166647,1.6893791049951687,1.9132616589777172,0.0,would,highwf,
110,s219,110,lucky,lu,uc,ck,ky,l,u,c,k,y,,1.3572418739786372,1.613283361075446,1.8533695270307362,2.0293117880355567,2.3172404459910467,0.0,lucky,highwf,
111,s219,111,therm,th,he,er,rm,t,h,e,r,m,,0.8331460489425808,0.9691512529971078,1.1371707879006863,1.329045480932109,1.401035716990009,0.0,therm,lowwf,
112,s219,112,tithe,ti,it,th,he,t,i,t,h,e,,0.8930846160510555,1.1010889729950577,1.2770714370999485,1.4451748750871047,1.6131871540565044,0.0,tithe,lowwf,
113,s219,113,there,th,he,er,re,t,h,e,r,e,,0.7690385699970648,0.9370186630403623,1.0970202180324122,1.320954033988528,1.496981799020432,0.0,there,highwf,
114,s219,114,think,th,hi,in,nk,t,h,i,n,k,,0.8292630759533495,1.0053284280002117,1.2212210709694773,1.549257487989962,1.9012087059672922,0.0,think,highwf,
115,s219,115,heond,he,eo,on,nd,h,e,o,n,d,,1.1612416610587388,1.513297644094564,1.7053355569951236,2.0572905390290543,2.2973157330416143,0.0,heond,pseudo,
116,s219,116,would,wo,ou,ul,ld,w,o,u,l,d,,1.2132717639906332,1.4291578739648685,1.71713153203018,2.0132768099429086,2.301146743935533,0.0,would,highwf,
117,s219,117,lucky,lu,uc,ck,ky,l,u,c,k,y,,1.2330198850249872,1.5929003129713237,1.976892570964992,2.200935921049677,2.536965898005292,0.0,lucky,highwf,
118,s219,118,belly,be,el,ll,ly,b,e,l,l,y,,1.1253173860022798,1.3892611779738218,1.5892627809662372,1.8291903119534254,2.069253745023161,0.0,belly,medwf,
119,s219,119,druze,dr,ru,uz,ze,d,r,u,z,e,,1.401313549024053,1.6573817449389026,1.8974493800196797,2.3293404009891674,2.6093590250238776,0.0,druze,lowwf,
120,s219,120,would,wo,ou,ul,ld,w,o,u,l,d,,1.289771776064299,1.4897298880387098,1.7057684540050104,1.9618661199929193,2.1058205700246617,0.0,would,highwf,
121,s219,121,champ,ch,ha,am,mp,c,h,a,m,p,,0.9975692009320483,1.1416531939757988,1.3975964830024168,1.565662748995237,1.8056470449082553,0.0,champ,medwf,
122,s219,122,heond,he,eo,on,nd,h,e,o,m,n,g,0.9933501039631665,1.193406083039008,1.3614926220616326,1.6173600989859551,2.1054859700379893,2.769450813997537,heomng,pseudo,
123,s219,123,vanru,va,an,nr,ru,v,a,n,r,u,,0.9413133459165692,1.2452597349183634,1.4452709989855066,1.605236801900901,1.8452269159024581,0.0,vanru,pseudo,
124,s219,124,lucky,lu,uc,ck,ky,l,u,c,k,y,,0.969563856953755,1.3135368879884481,1.5774799209320918,1.6975391010055318,1.9215220179175958,0.0,lucky,highwf,
125,s219,125,puppy,pu,up,pp,py,p,u,p,p,y,,0.9575532210292295,1.2374952629907057,1.493455296033062,1.685518981073983,1.9735038409708068,0.0,puppy,medwf,
126,s219,126,cheer,ch,he,ee,er,c,h,e,e,r,,1.01749184995424,1.2016068199882284,1.4015512709738687,1.5775379789993167,1.7536384479608387,0.0,cheer,medwf,
127,s219,127,vodka,vo,od,dk,ka,v,o,d,k,a,,1.9415371009381488,2.5494924220256507,2.8135052899597213,3.0294465499464422,3.205431221984327,0.0,vodka,medwf,
128,s219,128,about,ab,bo,ou,ut,a,b,o,u,t,,0.8894291600445285,1.0575677460292354,1.2735480039846152,1.5294273439794779,1.6815597990062088,0.0,about,highwf,
129,s219,129,haole,ha,ao,ol,le,h,a,o,l,e,,0.9733824200229719,1.2294149119406939,1.453509871964343,1.6933854739181697,1.8134686569683254,0.0,haole,lowwf,
130,s219,130,about,ab,bo,ou,ut,a,b,o,u,t,,1.1293766270391643,1.2894538070540875,1.537455186014995,1.7774165429873392,1.9534308459842578,0.0,about,highwf,
131,s219,131,edthe,ed,dt,th,he,e,d,t,h,e,,1.0213453070027754,1.2693503230111673,1.5013142209500074,1.6453676279634237,1.789315341040492,0.0,edthe,pseudo,
132,s219,132,about,ab,bo,ou,ut,a,b,o,u,t,,0.8574094829382375,1.0654291940154508,1.417321088956669,1.665448446990922,1.8734047160251066,0.0,about,highwf,
133,s219,133,cooed,co,oo,oe,ed,c,o,o,e,d,,0.8615699229994789,1.0695710360305384,1.2535263289464638,1.4535284389276057,1.6375905249733478,0.0,cooed,lowwf,
134,s219,134,champ,ch,ha,am,mp,c,h,a,m,p,,0.800151819945313,0.9842499109217897,1.2002044189721346,1.4242847269633785,1.6882209460018203,0.0,champ,medwf,
135,s219,135,there,th,he,er,re,t,h,e,r,e,,0.7412792179966345,0.8532928039785475,1.037286629085429,1.221330768079497,1.4052535030059516,0.0,there,highwf,
136,s219,136,therm,th,he,er,rm,t,h,e,r,m,,0.8172022519866005,0.9452839499572292,1.0893035639310256,1.2572546969167888,1.4412597080226988,0.0,therm,lowwf,
137,s219,137,haole,ha,ao,ol,le,h,a,o,l,e,,1.1090742950327694,1.3410513090202585,1.5891262310324237,1.8531790759880096,2.0371176509652287,0.0,haole,lowwf,
138,s219,138,puppy,pu,up,pp,py,p,u,p,p,t,,1.0253443859983236,1.2973308049840853,1.5773240430280566,1.7613634549779817,2.0092591689899564,0.0,puppt,medwf,
139,s219,139,think,th,hi,in,nk,t,h,i,n,k,,0.7414940990274772,0.893382880021818,1.093387219007127,1.333359666983597,1.509355050045997,0.0,think,highwf,
140,s219,140,zibja,zi,ib,bj,ja,z,i,b,j,a,,1.4173550580162555,1.6334766210056841,2.1615075479494408,2.473486114991829,2.721447183052078,0.0,zibja,pseudo,
141,s219,141,haole,ha,ao,ol,le,h,a,o,l,e,,1.0456254839664325,1.2695502690039575,1.4536406400147825,1.7095074669923633,1.8616119209909812,0.0,haole,lowwf,
142,s219,142,vodka,vo,od,dk,ka,v,o,d,k,a,,1.4735480609815568,2.073556325980462,2.6735041429055855,2.865500963991508,3.025653127930127,0.0,vodka,medwf,
143,s219,143,therm,th,he,er,rm,t,h,e,r,m,,0.8532378430245444,1.0132568309782073,1.1731642299564555,1.3652779499534518,1.5571767209330574,0.0,therm,lowwf,
144,s219,144,belly,be,el,ll,ly,b,e,l,l,y,,0.8812743229791522,1.1213296740315855,1.3213302720105276,1.4892800939269364,1.6493400679901242,0.0,belly,medwf,
145,s219,145,puppy,pu,up,pp,py,p,u,p,p,y,,0.9335261709056795,1.213490073918365,1.4854695789981633,1.6774028049549088,1.9255533429095522,0.0,puppy,medwf,
146,s219,146,tithe,ti,it,th,he,t,i,t,h,e,,0.7212552769342437,1.0572051709750667,1.3051973360124975,1.4892457099631429,1.6811430020025,0.0,tithe,lowwf,
147,s219,147,heond,he,eo,on,nd,h,e,o,n,d,,0.9893615649780259,1.22141353902407,1.4294215999543667,1.7414154580328614,1.9974669700022787,0.0,heond,pseudo,
148,s219,148,lucky,lu,uc,ck,ky,l,u,c,k,y,,0.8091687880223617,1.0892180529190227,1.6010979099664837,1.8251769029302523,2.217081540962681,0.0,lucky,highwf,
149,s219,149,edthe,ed,dt,th,he,e,d,t,h,e,,0.8770883869146928,1.10111099795904,1.3492257999023423,1.5170965319266543,1.645199259975925,0.0,edthe,pseudo,
150,s219,150,theme,th,he,em,me,t,h,e,m,e,,0.7052488289773464,0.8571862929966301,0.9931238399585709,1.2492431689752266,1.3852289220085368,0.0,theme,medwf,
151,s219,151,champ,ch,ha,am,mp,c,h,a,m,p,,0.8772004069760442,1.03732234693598,1.2372978850034997,1.4692853149026632,2.1812527899164706,0.0,champ,medwf,
152,s219,152,zibja,zi,ib,bj,ja,z,i,b,j,a,,1.5292216941015795,1.7132652980508283,2.9612964590778574,3.1452671251026914,3.3452336500631645,0.0,zibja,pseudo,
153,s219,153,theme,th,he,em,me,t,h,e,m,e,,0.725460760993883,0.8614474560599774,1.0373906639870256,1.2213766650529578,1.36536331102252,0.0,theme,medwf,
154,s219,154,heond,he,eo,on,nd,h,e,o,n,d,,1.177294880966656,1.4734219609526917,1.7694143559783697,2.0653862999752164,2.6094262480037287,0.0,heond,pseudo,
155,s219,155,faqir,fa,aq,qi,ir,f,a,q,i,r,,1.309423703001812,1.5493379589170218,2.037391688907519,2.2693778349785134,2.6213843409204856,0.0,faqir,lowwf,
156,s219,156,cooed,co,oo,oe,ed,c,o,o,e,d,,1.0330974280368537,1.2650768080493435,1.489146847045049,1.7130573689937592,1.9210625509731472,0.0,cooed,lowwf,
157,s219,157,tithe,ti,it,th,he,t,i,t,h,e,,0.8930823960108683,1.1331954029155895,1.3010815269080922,1.5331908059306443,1.7010833359090611,0.0,tithe,lowwf,
158,s219,158,vodka,vo,od,dk,ka,v,o,d,k,a,,1.0653839339502156,1.345341379987076,1.657383710029535,1.9292976210126653,2.1373677699593827,0.0,vodka,medwf,
159,s219,159,cheer,ch,he,ee,er,c,h,e,e,r,,1.0210982679855078,1.221104569034651,1.4931117839878425,1.661187093006447,1.8931320799747482,0.0,cheer,medwf,
160,s219,160,champ,ch,ha,am,mp,c,h,a,m,p,,0.8492646079976112,1.1372053900267929,1.3852469039848074,1.6092183629516512,1.889179305988364,0.0,champ,medwf,
161,s219,161,vanru,va,an,nr,ru,v,a,n,r,u,,1.2290813639992848,1.52508289902471,1.701063034008257,1.997124674031511,2.3010800720658153,0.0,vanru,pseudo,
162,s219,162,faqir,fa,aq,qi,ir,f,a,q,i,r,,1.281117220991291,1.6810698970220983,1.9930689160246402,2.233176931971684,2.4571839859709144,0.0,faqir,lowwf,
163,s219,163,theme,th,he,em,me,t,h,e,m,e,,0.877136975992471,1.0532751879654825,1.2212653328897431,1.4692727889632806,1.6372211879352108,0.0,theme,medwf,
164,s219,164,zibja,zi,ib,bj,ja,z,i,b,j,a,,1.5931229080306366,1.865201611071825,2.5452150190249085,2.8252410710556433,3.02524358604569,0.0,zibja,pseudo,
165,s219,165,faqir,fa,aq,qi,ir,f,a,q,i,r,,0.8852047548862174,1.2211651699617505,2.077119720983319,2.317197651951574,2.645147894974798,0.0,faqir,lowwf,
166,s219,166,about,ab,bo,ou,ut,a,b,o,u,t,,0.8012071250705048,1.0092363740550354,1.3132979760412127,1.6572838129941374,1.969229155103676,0.0,about,highwf,
167,s219,167,would,wo,ou,ul,ld,w,o,u,l,d,,0.9412752310745418,1.3172311980742961,1.5812155900057405,1.8932107740547508,2.1493098830105737,0.0,would,highwf,
168,s219,168,theme,th,he,em,me,t,h,e,m,e,,0.9052461850224063,1.0812462429748848,1.3132455949671566,1.5372599189868197,1.705137134063989,0.0,theme,medwf,
169,s219,169,there,th,he,er,re,t,h,e,r,e,,0.7971882519777864,0.9331177900312468,1.1251816239673644,1.3170798900537193,1.5170779479667544,0.0,there,highwf,
170,s219,170,kremp,kr,re,em,mp,k,r,e,m,p,,1.465209070011042,1.681115770014003,1.881150271045044,2.033211398986168,2.28915365296416,0.0,kremp,pseudo,
171,s219,171,would,wo,ou,ul,ld,w,o,u,l,d,,0.7809778979280964,0.9410900169750676,1.5009732539765537,2.100969209917821,2.3649781169369817,0.0,would,highwf,
172,s219,172,kremp,kr,re,em,mp,k,r,e,m,p,,1.209136956022121,1.4651989390840754,1.6732129460433498,1.833162384107709,2.1131697091041133,0.0,kremp,pseudo,
173,s219,173,belly,be,el,ll,ly,b,e,l,l,y,,1.0131265789968893,1.2691677189432085,1.4851684919558465,1.669145833933726,1.869104748009704,0.0,belly,medwf,
174,s219,174,vodka,vo,od,dk,ka,v,o,d,k,a,,1.0168088929494843,1.304798534954898,1.6808552800212055,1.912876536953263,2.1208240719279274,0.0,vodka,medwf,
175,s219,175,cooed,co,oo,oe,ed,c,o,o,e,d,,0.7969912759726867,1.0209534000605345,1.2210264650639147,1.3889764429768547,1.589016026002355,0.0,cooed,lowwf,
176,s219,176,lucky,lu,uc,ck,ky,l,u,c,k,y,,0.9448995110578835,1.2969276120420545,1.616802956094034,1.7928177980938926,2.032929396023974,0.0,lucky,highwf,
177,s219,177,pykka,py,yk,kk,ka,p,y,k,k,a,,1.1170279060024768,1.7731641819700599,2.0851001699920744,2.2531490999972448,2.445138668990694,0.0,pykka,pseudo,
178,s219,178,think,th,hi,in,nk,t,h,i,n,k,,0.912962231086567,1.1049770300742239,1.3449877890525386,1.5850225239992142,1.7929102430352941,0.0,think,highwf,
179,s219,179,kremp,kr,re,em,mp,k,r,e,m,p,,1.1491609509103,1.365208326955326,1.5492090679472312,1.685087322955951,1.91708716400899,0.0,kremp,pseudo,
180,s219,180,druze,dr,ru,uz,ze,d,r,u,z,e,,0.9291298829484731,1.1612081159837544,1.7771560669643804,2.3770824779057875,2.7051199179841205,0.0,druze,lowwf,
181,s219,181,puppy,pu,up,pp,py,p,u,p,p,y,,1.2212391240755096,1.5651482900138944,2.0771031340118498,2.261216076090932,2.4852245070505887,0.0,puppy,medwf,
182,s219,182,heond,he,eo,on,nd,h,e,o,n,d,,1.0009086260106415,1.280967804021202,1.4729208989301696,1.7289183819666505,1.9529816770227626,0.0,heond,pseudo,
183,s219,183,there,th,he,er,re,t,h,e,r,e,,0.7890155400382355,0.9250036550220102,1.0929341779556125,1.2769348330330104,1.436961845960468,0.0,there,highwf,
184,s219,184,zibja,zi,ib,bj,ja,z,i,b,j,a,,1.3363896810915321,1.5683819450205192,2.832384333014488,3.040336720063351,3.2323864090722054,0.0,zibja,pseudo,
185,s219,185,faqir,fa,aq,qi,ir,f,a,q,i,r,,0.9651486281072721,1.2930371219990775,1.5571226680185646,1.8051686370745301,2.005042855045758,0.0,faqir,lowwf,
186,s219,186,buddy,bu,ud,dd,dy,b,u,d,d,y,,1.033024204079993,1.2490507130278274,1.608936241012998,1.776911101071164,2.016920590074733,0.0,buddy,highwf,
187,s219,187,druze,dr,ru,uz,ze,d,r,u,z,e,,1.196967558003962,1.4609377740416676,1.7168693330604583,2.1008512200787663,2.3889303610194474,0.0,druze,lowwf,
188,s219,188,edthe,ed,dt,th,he,e,d,t,h,e,,1.2728794410359114,1.520809230976738,1.800805354025215,1.9689003600506112,2.0968946400098503,0.0,edthe,pseudo,
189,s219,189,vanru,va,an,nr,ru,v,a,n,r,u,,1.24467738205567,1.5806303849676624,1.756596231018193,2.0046720990212634,2.284657806972973,0.0,vanru,pseudo,
190,s219,190,think,th,hi,in,nk,t,h,i,n,k,,0.8409971229266375,0.9769258139422163,1.2089345189742744,1.4250252549536526,1.6410206309519708,0.0,think,highwf,
191,s219,191,buddy,bu,ud,dd,dy,b,u,d,d,y,,0.9728182349354029,1.164859267999418,1.5729326750151813,1.7328873359365389,1.9489303859882057,0.0,buddy,highwf,
192,s219,192,pykka,py,yk,kk,ka,p,y,k,k,a,,1.2329529980197549,1.6648481040028855,1.9689450069563463,2.120937795029022,2.3449280249187723,0.0,pykka,pseudo,
193,s219,193,heond,he,eo,on,nd,h,e,o,n,d,,1.149118004948832,1.4451329009607434,1.6210460889851674,2.117099688970484,2.59714313398581,0.0,heond,pseudo,
194,s219,194,therm,th,he,er,rm,t,h,e,r,m,,0.9433081999886781,1.1032411239575595,1.3112396739888936,1.5032533089397475,1.7272193899843842,0.0,therm,lowwf,
195,s219,195,champ,ch,ha,am,mp,c,h,a,m,p,,1.0212351400405169,1.1892323230858892,1.429178545018658,1.6211199760437012,1.9332332300255075,0.0,champ,medwf,
196,s219,196,druze,dr,ru,uz,ze,d,r,u,z,e,,1.04067784990184,1.264710558927618,1.4647083699237555,2.0166625439887866,2.3047853329917416,0.0,druze,lowwf,
197,s219,197,haole,ha,ao,ol,le,h,a,o,l,e,,1.2128777370089665,1.3727921679383144,1.588798642042093,1.8368704159511253,2.0208152330014855,0.0,haole,lowwf,
198,s219,198,belly,be,el,ll,ly,b,e,l,l,y,,0.7526370589621365,0.9206289669964463,1.1126237839926034,1.2886795559898019,1.512641443987377,0.0,belly,medwf,
199,s219,199,tithe,ti,it,th,he,t,i,t,h,e,,0.6370472919661552,0.8769054999575019,1.164906866964884,1.3169385249493644,1.4689872999442741,0.0,tithe,lowwf,
200,s219,200,think,th,hi,in,nk,t,h,i,n,k,,0.7688175300136209,0.9128070479491726,1.0888450759230182,1.2808365250239149,1.4568533189594746,0.0,think,highwf,
201,s219,201,therm,th,he,er,rm,t,h,e,r,m,,0.6688491029199213,0.8289031389867887,0.9889215969014913,1.1568329769652337,1.3489216319285333,0.0,therm,lowwf,
202,s219,202,cooed,co,oo,oe,ed,c,o,o,e,d,,0.8647713949903846,1.0488441369961947,1.2168109500780702,1.36881378502585,1.5448191890027374,0.0,cooed,lowwf,
203,s219,203,belly,be,el,ll,ly,b,e,l,l,y,,0.8768508509965613,1.0849326689494774,1.2048321909969673,1.372891295934096,1.4928379770135507,0.0,belly,medwf,
204,s219,204,cheer,ch,he,ee,er,c,h,e,e,r,,0.7848061029799283,0.9128147299634293,1.0887712269322947,1.232874225010164,1.3848779279505834,0.0,cheer,medwf,
205,s219,205,would,wo,ou,ul,ld,w,o,u,l,d,,0.8850187479984015,1.0290499120019376,1.2609717280138284,1.5409293730044737,1.7089569269446656,0.0,would,highwf,
206,s219,206,lucky,lu,uc,ck,ky,l,u,c,k,y,,0.9528745749266818,1.3049183459952474,1.552920370013453,1.736902298987843,1.9768109519500285,0.0,lucky,highwf,
207,s219,207,there,th,he,er,re,t,h,e,r,e,,0.8609879859723151,0.9810422759037465,1.1649624119745567,1.349066040944308,1.5249431629199535,0.0,there,highwf,
208,s219,208,tithe,ti,it,th,he,t,i,t,h,e,,0.7289094029692933,0.9290162010584027,1.1129303330089897,1.264922020956874,1.4249708619900048,0.0,tithe,lowwf,
209,s219,209,buddy,bu,ud,dd,dy,b,u,d,d,y,,1.4688895019935444,1.6848307310137898,1.9648249479942024,2.116842685965821,2.284831644035876,0.0,buddy,highwf,
210,s219,210,cheer,ch,he,ee,er,c,h,e,e,r,,0.8889588919701055,1.0489620110020041,1.2088509990135208,1.3689167770789936,1.5449479820672423,0.0,cheer,medwf,
211,s219,211,would,wo,ou,ul,ld,w,o,u,l,d,,0.8449176610447466,1.0289186530280858,1.2768449949799106,1.5409516680520028,1.7569357430329546,0.0,would,highwf,
212,s219,212,there,th,he,er,re,t,h,e,r,e,,0.816711938008666,0.9527106590103358,1.1208052689908072,1.312643563025631,1.5046317300293595,0.0,there,highwf,
213,s219,213,lucky,lu,uc,ck,ky,l,u,c,k,y,,0.9167186319828033,1.220773720066063,1.5487575270235538,1.732780585065484,1.972730559995398,0.0,lucky,highwf,
214,s219,214,think,th,hi,in,nk,t,h,i,n,k,,0.7047929429681972,0.8567692949436605,1.072783136041835,1.3047807730035856,1.5126888699596748,0.0,think,highwf,
215,s219,215,therm,th,he,er,rm,t,h,e,r,m,,0.7004903880879283,0.8445466459961608,0.9645349960774183,1.1404792320681736,1.3004879640648142,0.0,therm,lowwf,
216,s219,216,pykka,py,yk,kk,ka,p,y,k,k,a,,1.2967344449134544,1.816762588918209,2.1126731869298965,2.3046666169539094,2.6727858369704336,0.0,pykka,pseudo,
217,s219,217,puppy,pu,up,pp,py,p,u,p,p,y,,1.0766653689788654,1.39677092700731,1.6447608430171385,1.8447597810300067,2.2287233249517158,0.0,puppy,medwf,
218,s219,218,edthe,ed,dt,th,he,e,d,t,h,e,,1.4568696760106832,1.9449229730525985,2.304918497102335,2.512806987040676,2.800791957997717,0.0,edthe,pseudo,
219,s219,219,vanru,va,an,nr,ru,v,a,n,r,u,,1.6447838318999857,1.8527323899324983,2.004677406977862,2.236798696918413,2.4926592980045825,0.0,vanru,pseudo,
220,s219,220,cooed,co,oo,oe,ed,c,o,o,e,d,,0.9127628720598295,1.3847456990042701,1.6007208600640297,1.7927317810244858,2.0327983839670196,0.0,cooed,lowwf,
221,s219,221,tithe,ti,it,th,he,t,i,t,h,e,,1.2530012410134077,1.3648952710209414,1.5409464419353753,1.7008840559283271,1.8769018639577553,0.0,tithe,lowwf,
222,s219,222,kremp,kr,re,em,mp,k,r,e,m,p,,1.2328639589250088,1.4488725699484348,1.648824617965147,1.7927477449411526,2.008873071987182,0.0,kremp,pseudo,
223,s219,223,faqir,fa,aq,qi,ir,f,a,q,i,r,,0.9406959400512278,1.4446637369692326,1.6925605949945748,1.980652551050298,2.236688120989129,0.0,faqir,lowwf,
224,s219,224,edthe,ed,dt,th,he,e,d,t,h,e,,0.984506004024297,1.2404901189729571,1.4644065720494837,1.6244306800654158,1.7044093810254708,0.0,edthe,pseudo,
225,s219,225,druze,dr,ru,uz,ze,d,r,u,z,e,,0.9887375149410218,1.220724145998247,1.6286965699400753,2.020790841896087,2.284657947951928,0.0,druze,lowwf,
226,s219,226,buddy,bu,ud,dd,dy,b,u,d,d,y,,0.8647675489773974,1.0727645539445803,1.3208957320312038,1.4968492550542578,1.8889022660441697,0.0,buddy,highwf,
227,s219,227,kremp,kr,re,em,mp,k,r,e,m,p,,1.484627124038525,1.6605761100072414,1.8766518899938092,2.036742590018548,2.2686751669971272,0.0,kremp,pseudo,
228,s219,228,cheer,ch,he,ee,er,c,h,e,e,r,,0.888562201987952,1.0805997719289735,1.2405819509876892,1.408646133961156,1.5925379559630528,0.0,cheer,medwf,
229,s219,229,vanru,va,an,nr,ru,v,a,n,r,u,,1.140454477048479,1.5405362870078534,1.7725400869967416,1.9804882849566638,2.2204676599940285,0.0,vanru,pseudo,
230,s219,230,druze,dr,ru,uz,ze,d,r,u,z,e,,0.904556889901869,1.1444782998878509,1.352576222969219,1.8085532429395244,2.0805323539534584,0.0,druze,lowwf,
231,s219,231,belly,be,el,ll,ly,b,e,l,y,,,0.9407548549352214,1.2287617350229993,1.6527394379954785,2.084674798999913,0.0,0.0,bely,medwf,
232,s219,232,pykka,py,yk,kk,ka,p,y,k,k,a,,1.1127419689437374,1.5527990559348837,1.7927533709444106,1.9528224699897692,2.128809798974544,0.0,pykka,pseudo,
233,s219,233,vodka,vo,od,dk,ka,v,o,d,k,a,,1.0207949168980122,1.2926300049293786,1.7567617138847709,1.9646455129841343,2.164694479899481,0.0,vodka,medwf,
234,s219,234,haole,ha,ao,ol,le,h,a,o,l,e,,0.9767081020399928,1.176703201024793,1.3688141260063276,1.648779081995599,2.128841469064355,0.0,haole,lowwf,
235,s219,235,buddy,bu,ud,dd,dy,b,u,d,d,y,,0.9647925419267267,1.188748671906069,1.4448753009783104,1.5887814209563658,1.812745142960921,0.0,buddy,highwf,
236,s219,236,about,ab,bo,ou,ut,a,b,o,u,t,,0.9367386259837076,1.0646281249355525,1.2807127599371597,1.4967278509866446,1.7047272060299292,0.0,about,highwf,
237,s219,237,theme,th,he,em,me,t,h,e,m,e,,0.7565059158951044,0.9325697849271819,1.0845084208995104,1.5326030879514292,1.7246275179786608,0.0,theme,medwf,
238,s219,238,pykka,py,yk,kk,ka,p,y,k,k,a,,1.0246435949811712,1.4246465250616893,1.7526578680844977,1.9526495140744373,2.288696621078998,0.0,pykka,pseudo,
239,s219,239,zibja,zi,ib,bj,ja,z,i,b,j,a,,1.4045927530387416,1.6686161200050265,2.292516659013927,2.6286316530313343,2.892555244034156,0.0,zibja,pseudo,
