,sID,Trial #,string,bi_1,bi_2,bi_3,bi_4,key_resp.keys.1,key_resp.keys.2,key_resp.keys.3,key_resp.keys.4,key_resp.keys.5,key_resp.keys.6,key_resp.rt.1,key_resp.rt.2,key_resp.rt.3,key_resp.rt.4,key_resp.rt.5,key_resp.rt.6,resp_string,WF Type,BF Type
0,s261,0,zibja,zi,ib,bj,ja,z,i,b,j,a,,1.08093260001624,1.20902730000671,1.6489129000110552,1.8568768000113778,1.9210210000164807,0.0,zibja,pseudo,
1,s261,1,edthe,ed,dt,th,he,e,d,t,h,e,,0.845160000026226,1.0691482000402175,1.3091727000428364,1.381128900044132,1.5331219000509009,0.0,edthe,pseudo,
2,s261,2,would,wo,ou,ul,ld,w,o,u,l,d,,0.7851422000094317,0.8652938000159338,1.0250858999788761,1.3052691000048071,1.4410910999868065,0.0,would,highwf,
3,s261,3,tithe,ti,it,th,he,t,i,t,h,e,,0.7490404999698512,0.8611291999695823,1.0131503999582492,1.0849888999946415,1.2372857999871485,0.0,tithe,lowwf,
4,s261,4,vanru,va,an,nr,ru,v,a,n,r,u,,0.8011199000175111,0.8811530999955721,1.1050121000153013,1.3692507999949157,1.457109600014519,0.0,vanru,pseudo,
5,s261,5,cheer,ch,he,ee,er,c,h,e,e,r,,0.7329929000115953,0.8129639000399038,0.9650785000412725,1.1330564999952912,1.2689970000064932,0.0,cheer,medwf,
6,s261,6,about,ab,bo,ou,ut,a,b,o,u,t,,0.6009417999885045,0.7771600999985822,1.0649324000114575,1.5369375000009313,1.601170199981425,0.0,about,highwf,
7,s261,7,heond,he,eo,on,nd,h,e,o,n,d,,0.772914299974218,0.8928900000173599,1.0688849000143819,1.3169859999907203,1.5169543999945745,0.0,heond,pseudo,
8,s261,8,cheer,ch,he,ee,er,c,h,e,e,r,,0.6009293999522924,0.6729519999935292,0.8809343999600969,1.0409954999922775,1.128917099966202,0.0,cheer,medwf,
9,s261,9,would,wo,ou,ul,ld,w,o,u,l,d,,0.6448906000005081,0.7490423999843188,0.87700209999457,1.1569948000251316,1.2528639000374824,0.0,would,highwf,
10,s261,10,edthe,ed,dt,th,he,e,d,t,h,e,,0.6648483999888413,0.8808481000014581,1.0889120000065304,1.1689571000169963,1.3368494000169449,0.0,edthe,pseudo,
11,s261,11,heond,he,eo,on,nd,h,e,o,n,d,,0.8607736999983899,0.956897999974899,1.1248621999984607,1.3487747000181116,1.4928854000172578,0.0,heond,pseudo,
12,s261,12,puppy,pu,up,pp,py,p,u,p,p,y,,0.8169794999994338,0.9688549999846146,1.184896300022956,1.3288542000227608,1.552769600006286,0.0,puppy,medwf,
13,s261,13,think,th,hi,in,nk,t,h,i,n,k,,0.8926122999982908,0.9407210000208579,1.1247205000254326,1.3167297000181861,1.4767046000342816,0.0,think,highwf,
14,s261,14,tithe,ti,it,th,he,t,i,t,h,e,,0.704868400003761,0.808660700044129,0.9367885000538081,0.9847758000250906,1.1126801000209525,0.0,tithe,lowwf,
15,s261,15,zibja,zi,ib,bj,ja,z,i,b,j,a,,0.7406457000179216,0.8286962999845855,1.0847441999940202,1.3007419999921694,1.3727538000093773,0.0,zibja,pseudo,
16,s261,16,puppy,pu,up,pp,py,p,u,p,p,y,,0.7926288999733515,0.9447064999840222,1.1047306999680586,1.2167257000110112,1.4326352999778464,0.0,puppy,medwf,
17,s261,17,heond,he,eo,on,nd,h,e,o,n,d,,1.0525793000124395,1.132817099976819,1.2927665999741293,1.5328093999996781,1.6766759000020102,0.0,heond,pseudo,
18,s261,18,vodka,vo,od,dk,ka,v,o,d,k,a,,0.8245471999980509,0.9765807999647222,1.136517399980221,1.560546799970325,1.6806429999996908,0.0,vodka,medwf,
19,s261,19,about,ab,bo,ou,ut,a,b,o,u,t,,0.6205107999849133,0.6845057000173256,0.8766152000171132,1.0205997999873944,1.1084898000117391,0.0,about,highwf,
20,s261,20,cheer,ch,he,ee,er,v,c,h,e,e,r,0.6484686000039801,0.6565676999744028,0.9605713000055403,1.1764617000008002,1.344457200029865,1.4565714999916963,vcheer,medwf,
21,s261,21,faqir,fa,aq,qi,ir,f,a,q,i,r,,0.9564457999658771,1.036553499987349,1.3085578000172973,1.4204133999883197,1.5485358000150882,0.0,faqir,lowwf,
22,s261,22,belly,be,el,ll,ly,b,e,l,l,y,,0.6883968000183813,0.8084309999831021,0.9845034999889322,1.136524300032761,1.2644991999841295,0.0,belly,medwf,
23,s261,23,there,th,he,er,re,t,h,e,r,e,,0.6363731999881566,0.7008235999965109,0.8843641999992542,0.9883485999889672,1.0683294999762438,0.0,there,highwf,
24,s261,24,faqir,fa,aq,qi,ir,f,a,q,i,r,,0.8643236999632791,0.9364247999619693,1.2802743999636732,1.3763466999516822,1.6082947999821045,0.0,faqir,lowwf,
25,s261,25,theme,th,he,em,me,t,h,e,m,e,,0.6923782999510877,0.7644242999958806,0.9004643999505788,1.1563792999950238,1.1964009999646805,0.0,theme,medwf,
26,s261,26,puppy,pu,up,pp,py,p,u,p,p,y,,0.984275599999819,1.1283633999992162,1.2883244999684393,1.4563874999876134,1.6403736000065692,0.0,puppy,medwf,
27,s261,27,haole,ha,ao,ol,le,h,a,o,l,e,,0.7562546000117436,0.8842043000040576,1.0443373000016436,1.2842265000217594,1.3883516000350937,0.0,haole,lowwf,
28,s261,28,vodka,vo,od,dk,ka,v,o,d,k,a,,0.832197499985341,0.9442197000025772,1.1122646000003442,1.2963186000124551,1.416230299975723,0.0,vodka,medwf,
29,s261,29,kremp,kr,re,em,mp,k,r,e,m,p,,1.0442061999929138,1.1562855999800377,1.2281850999570452,1.3402914999751374,1.5082780999946408,0.0,kremp,pseudo,
30,s261,30,would,wo,ou,ul,ld,w,o,u,l,d,,0.6481247999472544,0.7281180999707431,0.8723050999687985,1.192108699993696,1.3842810999485664,0.0,would,highwf,
31,s261,31,there,th,he,er,re,t,h,e,r,e,,0.6361484000226483,0.7001963000511751,0.892098700045608,0.9563188000465743,1.0681063000229187,0.0,there,highwf,
32,s261,32,therm,th,he,er,rm,t,h,e,r,m,,0.8081170999794267,0.8720864999922924,1.056250599969644,1.1601959000108764,1.224205099977553,0.0,therm,lowwf,
33,s261,33,pykka,py,yk,kk,ka,p,u,y,k,k,a,0.7481252000434324,0.9161951999994926,0.9242082000127994,1.4200589000247419,1.5560393000487238,1.6601732000126503,puykka,pseudo,
34,s261,34,vanru,va,an,nr,ru,v,a,n,r,u,,0.8317718000034802,0.903755999985151,1.0237793999840505,1.2159894999931566,1.3359053999884054,0.0,vanru,pseudo,
35,s261,35,think,th,hi,in,nk,t,h,i,n,k,,0.6521250999649055,0.7320028999820352,0.9001424000016414,1.059996299969498,1.1800774000003003,0.0,think,highwf,
36,s261,36,therm,th,he,er,rm,t,h,e,r,m,,0.6322440999792889,0.7041047999518923,0.8960186999756843,0.999945999996271,1.1360666999826208,0.0,therm,lowwf,
37,s261,37,kremp,kr,re,em,mp,k,r,e,m,p,,0.9159346999949776,1.003867799998261,1.083927700005006,1.195933300012257,1.403860500024166,0.0,kremp,pseudo,
38,s261,38,vodka,vo,od,dk,ka,v,o,d,k,a,,0.8318770999903791,0.967973799968604,1.1280853999778628,1.2879814999760129,1.4479669999564067,0.0,vodka,medwf,
39,s261,39,therm,th,he,er,rm,t,h,e,r,m,,0.6839006000082009,0.7558230999857187,0.9479799999971874,1.0357845000107773,1.0999167999834754,0.0,therm,lowwf,
40,s261,40,heond,he,eo,on,nd,h,e,o,n,d,,0.7919582999893464,0.927964000031352,1.1119573000469245,1.3677710000192747,1.4878028000239283,0.0,heond,pseudo,
41,s261,41,cooed,co,oo,oe,ed,c,o,o,e,d,,0.7717550999950618,0.9798549999832176,1.1477334999945015,1.4037155999685638,1.5398822000133805,0.0,cooed,lowwf,
42,s261,42,vanru,va,an,nr,ru,v,a,n,r,u,,0.7437354000285268,0.8157112000044435,0.903845300024841,1.0718533000326715,1.1997820000397041,0.0,vanru,pseudo,
43,s261,43,would,wo,ou,ul,ld,w,o,u,l,d,,0.651848700013943,0.7238047000137158,0.8196218000375666,1.0437619000440463,1.1477794999955222,0.0,would,highwf,
44,s261,44,buddy,bu,ud,dd,dy,b,u,d,d,y,,0.6955978000187315,0.9436242000083439,1.0877579000080004,1.223755000042729,1.3277561000431888,0.0,buddy,highwf,
45,s261,45,lucky,lu,uc,ck,ky,l,u,c,k,y,,0.7235925999702886,1.0277220999705605,1.179611700004898,1.2915623000008054,1.4995560999959707,0.0,lucky,highwf,
46,s261,46,kremp,kr,re,em,mp,k,r,e,m,n,p,0.9517867999966256,1.047673900029622,1.1276539000100456,1.2716933999909088,1.343564199982211,1.6317174999858253,kremnp,pseudo,
47,s261,47,puppy,pu,up,pp,py,p,u,p,p,y,,0.8115423999843188,0.9076614999794401,1.0916678999783471,1.2276508000213653,1.4355638999841176,0.0,puppy,medwf,
48,s261,48,pykka,py,yk,kk,ka,p,y,k,k,a,,0.8635452999733388,1.0397006999701262,1.3196438999730162,1.4556454999838024,1.551709099963773,0.0,pykka,pseudo,
49,s261,49,cheer,ch,he,ee,er,c,h,e,e,r,,0.6755050999927334,0.7554626000346616,0.9316021000267938,1.06744409998646,1.1715734000317752,0.0,cheer,medwf,
50,s261,50,haole,ha,ao,ol,le,h,a,o,l,e,,0.6954403999843635,0.8235482000163756,0.9516287000151351,1.1434509999817237,1.2154332000063732,0.0,haole,lowwf,
51,s261,51,buddy,bu,ud,dd,dy,b,u,d,d,y,,0.7314439000329003,0.9395369000267237,1.0594796999939717,1.1555033000186086,1.251581399992574,0.0,buddy,highwf,
52,s261,52,theme,th,he,em,me,t,h,e,m,e,,0.6154106999747455,0.679469499969855,0.8956575999618508,1.0235306999529712,1.1115356999798678,0.0,theme,medwf,
53,s261,53,there,th,he,er,re,t,h,e,r,e,,0.6273359000333585,0.7074630000279285,0.8434344000415877,0.9234379000263289,1.0353945000097156,0.0,there,highwf,
54,s261,54,vodka,vo,od,dk,ka,v,o,d,k,a,,0.7513141999952495,0.8713320000097156,1.1112829000339843,1.247408399998676,1.3594484999775887,0.0,vodka,medwf,
55,s261,55,edthe,ed,dt,th,he,e,d,t,h,e,,0.7794432999799028,0.9554568000021391,1.267327599984128,1.315434299991466,1.451340799976606,0.0,edthe,pseudo,
56,s261,56,think,th,hi,in,nk,t,h,i,n,k,,0.6714495000196621,0.7353717000223696,0.9112601000233553,1.0554045000462793,1.1753401000169106,0.0,think,highwf,
57,s261,57,puppy,pu,up,pp,py,p,u,p,p,y,,0.7392290999996476,0.8911992000066675,1.0591794999781996,1.2273221000214107,1.3872876999666914,0.0,puppy,medwf,
58,s261,58,zibja,zi,ib,bj,ja,z,i,b,j,a,,0.9432043000124395,1.0392096000141464,1.2313077000435442,1.4393154000281356,1.5353679000400007,0.0,zibja,pseudo,
59,s261,59,champ,ch,ha,am,mp,c,h,a,m,p,,0.7151661000098102,0.7711706000263803,0.9792594999889843,1.0192779999924824,1.2672566000255756,0.0,champ,medwf,
60,s261,60,theme,th,he,em,me,t,h,e,m,e,,0.6871010000468232,0.7431501999963075,0.9192170000169426,1.0712151000043377,1.1432265000184998,0.0,theme,medwf,
61,s261,61,druze,dr,ru,uz,ze,d,r,u,z,e,,0.7070515000377782,0.8910604000557214,1.0510506000136957,1.1711242000455968,1.387190300039947,0.0,druze,lowwf,
62,s261,62,zibja,zi,ib,bj,ja,z,i,b,j,a,,0.8630246000248007,0.9430380000267178,1.343032900011167,1.599025800009258,1.6631580000394024,0.0,zibja,pseudo,
63,s261,63,heond,he,eo,on,nd,h,e,o,n,d,,0.6750413999543525,0.7469812999479473,0.9230206999927759,1.0750679999473505,1.1550806000013836,0.0,heond,pseudo,
64,s261,64,lucky,lu,uc,ck,ky,l,u,c,k,y,,0.7109500000369735,0.8950515000033192,1.0390463000512682,1.1349377000005916,1.3110668000299484,0.0,lucky,highwf,
65,s261,65,vanru,va,an,nr,ru,v,a,n,r,u,,0.8189565999782644,0.8909333000192419,0.9791639000177383,1.1870785999926738,1.2669653000193648,0.0,vanru,pseudo,
66,s261,66,tithe,ti,it,th,he,t,i,t,h,e,,0.7111403000308201,0.8149850000045262,0.926943400001619,0.9909884000080638,1.1268058000132442,0.0,tithe,lowwf,
67,s261,67,belly,be,el,ll,ly,b,e,l,l,y,,0.6908180000027642,0.8028279999853112,0.946922299975995,1.1068311000126414,1.370799399970565,0.0,belly,medwf,
68,s261,68,think,th,hi,in,nk,t,h,i,n,k,,0.6628261000150815,0.7187996000284329,0.8787879000301473,1.0469108000397682,1.1909333000076003,0.0,think,highwf,
69,s261,69,vanru,va,an,nr,ru,v,a,n,r,u,,0.7307741999975406,0.8187964999815449,0.8988715999876149,1.090780500031542,1.1787888000253588,0.0,vanru,pseudo,
70,s261,70,druze,dr,ru,uz,ze,d,r,u,z,e,,0.6547916000126861,0.862862000009045,1.006798600021284,1.1428969000116922,1.4948073999839835,0.0,druze,lowwf,
71,s261,71,there,th,he,er,re,t,h,e,r,e,,0.6586956999963149,0.7307876999839209,0.8511839000275359,0.9066597999772057,1.0267988999839872,0.0,there,highwf,
72,s261,72,champ,ch,ha,am,mp,c,h,a,m,p,,0.7906806000391953,0.8628117000334896,0.9828639000188559,1.0707868000026792,1.214799600013066,0.0,champ,medwf,
73,s261,73,belly,be,el,ll,ly,b,e,l,l,y,,0.7466458000126295,0.8107219000230543,0.9626319000381045,1.0987091999850236,1.1947144999867305,0.0,belly,medwf,
74,s261,74,therm,th,he,er,rm,t,h,e,r,m,,0.6306257999967784,0.694649999961257,0.8547509999480098,0.9187267999514006,0.9986708999495022,0.0,therm,lowwf,
75,s261,75,buddy,bu,ud,dd,dy,b,u,d,d,y,,0.7065910000237636,0.9065814000205137,1.0106616000412032,1.1546362000517547,1.2267005000030622,0.0,buddy,highwf,
76,s261,76,kremp,kr,re,em,mp,k,r,e,m,p,,0.9905428999918513,1.0948147000162862,1.1906467000371777,1.2946441000094637,1.806530700006988,0.0,kremp,pseudo,
77,s261,77,cooed,co,oo,oe,ed,c,o,o,e,d,,0.7304960999754258,0.8745532999746501,1.0265972000197507,1.1704952999716625,1.3624825999722816,0.0,cooed,lowwf,
78,s261,78,champ,ch,ha,am,mp,c,h,a,m,p,,0.6864742999896407,0.758601000008639,0.9746113999863155,1.0384828000096604,1.190608200035058,0.0,champ,medwf,
79,s261,79,belly,be,el,ll,ly,b,e,l,l,y,,0.714434000023175,0.8184239999973215,0.9945280000101775,1.1546645000344142,1.2665968000073917,0.0,belly,medwf,
80,s261,80,vodka,vo,od,dk,ka,v,o,d,k,a,,0.8384105999721214,1.0545041000004858,1.2224965000059456,1.3665458000032231,1.47039400000358,0.0,vodka,medwf,
81,s261,81,edthe,ed,dt,th,he,e,d,t,h,e,,0.794427499989979,1.018417099956423,1.2103623999864794,1.266483099956531,1.4104842999950051,0.0,edthe,pseudo,
82,s261,82,champ,ch,ha,am,mp,c,h,a,m,p,,0.6305155999725685,0.6944285000208765,0.8304540999815799,0.9023194999899715,1.0704268999979831,0.0,champ,medwf,
83,s261,83,about,ab,bo,ou,ut,a,b,o,u,t,,0.6502571000019088,0.730397199979052,0.898408200009726,1.0582612000289373,1.1704882000340149,0.0,about,highwf,
84,s261,84,pykka,py,yk,kk,ka,p,y,k,k,a,,0.6786811000201851,0.8703688000096008,1.1263078000047244,1.2701970000052825,1.3503106000134721,0.0,pykka,pseudo,
85,s261,85,about,ab,bo,ou,ut,a,b,o,u,t,,0.5782379999873228,0.6422273999778554,0.8902187999919988,0.9702161999884993,1.1701920999912545,0.0,about,highwf,
86,s261,86,faqir,fa,aq,qi,ir,f,a,q,i,r,,0.758209599996917,0.8223921000026166,1.1261960999690928,1.2623278999817558,1.3503625000012107,0.0,faqir,lowwf,
87,s261,87,druze,dr,ru,uz,ze,d,r,u,z,e,,0.5861393999657594,0.7942603999981657,0.9462449999991804,1.0502965999767184,1.2262601999682374,0.0,druze,lowwf,
88,s261,88,kremp,kr,re,em,mp,k,r,e,m,p,,0.9421582000213675,1.006130399997346,1.070228099997621,1.1341886000009254,1.3182589000207372,0.0,kremp,pseudo,
89,s261,89,champ,ch,ha,am,mp,c,h,a,m,p,,0.6901053999899887,0.7700945999822579,0.9142075999989174,1.002147999999579,1.1861013999441639,0.0,champ,medwf,
90,s261,90,would,wo,ou,ul,ld,w,o,u,l,d,,0.6220734999515116,0.6780271999887191,0.814182499947492,1.0221970999846235,1.1183054999564774,0.0,would,highwf,
91,s261,91,pykka,py,yk,kk,ka,p,y,k,k,a,,0.7060379000031389,0.8260328999604098,1.1061271000071429,1.2505124000017531,1.3220242999959737,0.0,pykka,pseudo,
92,s261,92,therm,th,he,er,rm,t,h,e,r,m,,0.7342013000161387,0.7820028000278398,0.9661896000034176,1.062156900006812,1.1021229000180028,0.0,therm,lowwf,
93,s261,93,edthe,ed,dt,th,he,e,d,t,h,e,,0.697968199965544,0.8979574999539182,1.1139783000107855,1.1700718000065535,1.2818654999719001,0.0,edthe,pseudo,
94,s261,94,think,th,hi,in,nk,t,h,i,n,k,,0.6459021000191569,0.7260706000379287,0.87803130003158,1.0300095999846235,1.1580045000300743,0.0,think,highwf,
95,s261,95,zibja,zi,ib,bj,ja,z,i,b,j,a,,0.8818860999890603,0.9540071999654174,1.1860387999913655,1.3299477999680676,1.3859792999573983,0.0,zibja,pseudo,
96,s261,96,druze,dr,ru,uz,ze,d,r,u,z,e,,0.6699919999809936,0.9098326999810524,1.0057760999770835,1.2617596000200137,1.5979771999991499,0.0,druze,lowwf,
97,s261,97,about,ab,bo,ou,ut,a,b,o,u,t,,0.6819520000135526,0.7937594000250101,0.9218984000035562,1.0897773000178859,1.2017702999874018,0.0,about,highwf,
98,s261,98,lucky,lu,uc,ck,ky,l,u,c,k,y,,0.685787700000219,0.9099711999879219,1.0618311999714933,1.1658832000102848,1.437783200002741,0.0,lucky,highwf,
99,s261,99,pykka,py,yk,kk,ka,p,y,k,k,a,,0.8977361999568529,1.1697251999867149,1.5297327999724075,1.6578145999810658,1.801685299957171,0.0,pykka,pseudo,
100,s261,100,cooed,co,oo,oe,ed,c,o,o,e,d,,0.8136744999792427,0.9817635999643244,1.1336922000045888,1.2217826999840327,1.3817869999911636,0.0,cooed,lowwf,
101,s261,101,druze,dr,ru,uz,ze,d,r,u,z,e,,0.7296536000212654,0.9457696000463329,1.0577616000082344,1.2177622000453994,1.4176363000296988,0.0,druze,lowwf,
102,s261,102,cooed,co,oo,oe,ed,c,o,o,e,d,,0.6856151000247337,0.7977374999900348,0.9496508999727666,1.0136182999704033,1.2057188000180759,0.0,cooed,lowwf,
103,s261,103,theme,th,he,em,me,t,h,e,m,e,,0.7216185000143014,0.7696725000278093,0.9376806999789551,1.0336391999735497,1.1377270999946631,0.0,theme,medwf,
104,s261,104,haole,ha,ao,ol,le,h,e,o,l,e,,0.7415348999784328,0.8775300999986939,1.0855126000242308,1.2775277000037022,1.3415309999836609,0.0,heole,lowwf,
105,s261,105,buddy,bu,ud,dd,dy,b,u,d,d,y,,0.6895211000228301,0.9294729999965057,1.0174911000067368,1.161597200029064,1.2338125000242144,0.0,buddy,highwf,
106,s261,106,faqir,fa,aq,qi,ir,f,a,q,i,r,,0.8214596000034362,0.8934755999944173,1.1734493999974802,1.261565900000278,1.4135688000242226,0.0,faqir,lowwf,
107,s261,107,lucky,lu,uc,ck,ky,l,u,c,k,y,,0.7534457000438124,0.9775165000464767,1.1055057000485249,1.2094285000348464,1.417434700008016,0.0,lucky,highwf,
108,s261,108,belly,be,el,ll,ly,b,e,l,l,y,,0.6534245999646373,0.7816683999844827,0.9575082999654114,1.149528099980671,1.2294188999803737,0.0,belly,medwf,
109,s261,109,cheer,ch,he,ee,er,c,h,e,e,r,,0.6733787999837659,0.7455028000404127,0.8814695000182837,1.0415181000134908,1.153319300035946,0.0,cheer,medwf,
110,s261,110,haole,ha,ao,ol,le,h,a,o,l,e,,0.7493572999956086,0.8856556999962777,1.0534652000060305,1.325473000004422,1.4133183000376448,0.0,haole,lowwf,
111,s261,111,tithe,ti,it,th,he,t,i,t,h,e,,0.6572899000020698,0.7452847000095062,0.8413359000114724,0.8974146000109613,1.009382700023707,0.0,tithe,lowwf,
112,s261,112,cooed,co,oo,oe,ed,c,o,o,e,d,,0.877263700007461,1.053260400018189,1.213405899994541,1.2932582999928854,1.517202599963639,0.0,cooed,lowwf,
113,s261,113,theme,th,he,em,me,t,h,e,m,e,,0.657216600026004,0.705265500000678,0.9293227000162005,1.0333159000147134,1.1291573000489734,0.0,theme,medwf,
114,s261,114,there,th,he,er,re,t,h,e,r,e,,0.6131727999891154,0.6933069999795407,0.8293005999876186,0.9092986999894492,1.0211768999579363,0.0,there,highwf,
115,s261,115,buddy,bu,ud,dd,dy,b,u,d,d,y,,0.6891632999759167,0.8970933000091463,0.9771935999742709,1.1291193999932148,1.3292616999824531,0.0,buddy,highwf,
116,s261,116,faqir,fa,aq,qi,ir,f,a,q,i,r,,0.8051224000519142,0.869096000038553,1.1570935000199825,1.3092232000199147,1.4291901999968104,0.0,faqir,lowwf,
117,s261,117,haole,ha,ao,ol,le,h,a,o,l,e,,0.761089300038293,0.8490832000388764,1.017504999996163,1.257073600019794,1.3771662000217475,0.0,haole,lowwf,
118,s261,118,tithe,ti,it,th,he,t,i,t,h,e,,0.7250681000296026,0.7811950999894179,0.9091651000198908,0.9650557999848388,1.0770786000066437,0.0,tithe,lowwf,
119,s261,119,lucky,lu,uc,ck,ky,l,u,c,k,y,,0.6731842999579385,0.8811138999881223,0.984925500000827,1.1530724999611266,1.296994199976325,0.0,lucky,highwf,
120,s261,120,lucky,lu,uc,ck,ky,l,u,c,k,y,,0.8262524000019766,1.0343109000241384,1.122252099972684,1.2422507000155747,1.3943098000017926,0.0,lucky,highwf,
121,s261,121,think,th,hi,in,nk,t,h,i,n,k,,0.6301991000073031,0.6942020999849774,0.8702884999802336,1.0143160999868996,1.1423728999798186,0.0,think,highwf,
122,s261,122,there,th,he,er,re,t,h,e,r,e,,0.5863092999788933,0.6341610999661498,0.8341796999447979,0.9141518999822438,1.0181013999972492,0.0,there,highwf,
123,s261,123,buddy,bu,ud,dd,dy,b,u,d,d,y,,0.6941542999702506,0.870134099968709,0.9982681999681517,1.150273399951402,1.238248499983456,0.0,buddy,highwf,
124,s261,124,pykka,py,yk,kk,ka,p,y,k,k,a,,0.7221140000037849,0.938211600005161,1.178225299983751,1.3221907999832183,1.4020998000050895,0.0,pykka,pseudo,
125,s261,125,about,ab,bo,ou,ut,a,b,o,u,t,,0.6139909999910742,0.6861813000286929,0.8380958000198007,1.0541827999986708,1.1740359999821521,0.0,about,highwf,
126,s261,126,tithe,ti,it,th,he,t,i,t,h,e,,0.6260270000202581,0.7220212999964133,0.8261383000062779,0.8821306999889202,0.9781203999882564,0.0,tithe,lowwf,
127,s261,127,vanru,va,an,nr,ru,v,a,n,r,u,,0.7500310000032187,0.8380566999549046,0.9021184999728575,1.0699889999814332,1.1421262999647297,0.0,vanru,pseudo,
128,s261,128,vodka,vo,od,dk,ka,v,o,d,k,a,,0.7619365000282414,0.8579332000226714,1.0580475000315346,1.2500091000110842,1.345984400017187,0.0,vodka,medwf,
129,s261,129,champ,ch,ha,am,mp,c,h,a,m,p,,0.9339654000359587,1.005931599996984,1.197921100014355,1.2859756000107154,1.4699249000404961,0.0,champ,medwf,
130,s261,130,buddy,bu,ud,dd,dy,b,u,d,d,y,,0.6258164999890141,0.8258480000076815,0.8659526000265032,1.049907999986317,1.105796999996528,0.0,buddy,highwf,
131,s261,131,cooed,co,oo,oe,ed,c,o,o,e,d,,0.5578503000433557,0.7098814000491984,0.8537893000175245,0.9018789000110701,1.0859280000440776,0.0,cooed,lowwf,
132,s261,132,lucky,lu,uc,ck,ky,l,u,c,k,y,,0.5778302000253461,0.7618502000113949,0.8342280000215396,1.0098464000038803,1.1457860000082292,0.0,lucky,highwf,
133,s261,133,therm,th,he,er,rm,t,h,e,r,m,,0.5978274999652058,0.6618399999570101,0.8379376999801025,0.9019355999771506,0.9579366999678314,0.0,therm,lowwf,
134,s261,134,faqir,fa,aq,qi,ir,f,a,q,i,,,0.7297771000303328,0.8418748999829404,1.4737489999970421,1.6658525000093505,0.0,0.0,faqi,lowwf,
135,s261,135,vanru,va,an,nr,ru,v,a,n,r,u,,0.909699699957855,0.9817036999738775,1.0458319999743253,1.189801400003489,1.3259225999936461,0.0,vanru,pseudo,
136,s261,136,kremp,kr,re,em,mp,k,r,e,m,p,,0.8656120999949053,0.9216582999797538,1.0016510999994352,1.0335804999922402,1.225674399989657,0.0,kremp,pseudo,
137,s261,137,lucky,lu,uc,ck,ky,l,u,c,k,y,,0.5976272000116296,0.8057873999932781,0.917575899977237,1.0455955999786966,1.2135955999838188,0.0,lucky,highwf,
138,s261,138,cheer,ch,he,ee,er,c,h,e,e,r,,0.601636299979873,0.6737017999985255,0.7855597999878228,0.9536880999803543,1.057590499985963,0.0,cheer,medwf,
139,s261,139,vodka,vo,od,dk,ka,c,o,d,k,a,,0.8375972000067122,0.9335989999817684,1.0775814999942668,1.2776817999547347,1.3817282000090927,0.0,codka,medwf,
140,s261,140,theme,th,he,em,me,t,h,e,m,e,,0.5935648000449874,0.6495483000180684,0.8416293000336736,0.9456243000458926,1.0255524000385776,0.0,theme,medwf,
141,s261,141,belly,be,el,ll,ly,b,e,l,l,y,,0.6295249999966472,0.7414800999686122,0.8855247999890707,1.0456006999593228,1.1657665999955498,0.0,belly,medwf,
142,s261,142,faqir,fa,aq,qi,ir,f,a,q,i,r,,0.7534521000343375,0.82560000004014,1.1134954000008292,1.2254264000221156,1.33742550003808,0.0,faqir,lowwf,
143,s261,143,there,th,he,er,re,t,h,e,r,e,,0.6534968999912962,0.7173870999831706,0.8695117000024766,0.9173706999863498,1.0374226999701932,0.0,there,highwf,
144,s261,144,tithe,ti,it,th,he,t,i,t,h,e,,0.8652826000470668,0.969384900003206,1.0571938000502996,1.1532593000447378,1.2655800000065938,0.0,tithe,lowwf,
145,s261,145,theme,th,he,em,me,t,h,e,m,e,,0.629404999956023,0.6773946999455802,0.8132827999652363,0.9573016999638639,1.0373184999916703,0.0,theme,medwf,
146,s261,146,haole,ha,ao,ol,le,h,a,o,l,e,,0.7293969999882393,0.8094214000157081,0.9692672999808565,1.1853332000318915,1.2412737000267953,0.0,haole,lowwf,
147,s261,147,vanru,va,an,nr,ru,v,a,n,r,u,,0.6933124999632128,0.7733843000023626,0.8451869999989867,1.0133664999739267,1.125518299988471,0.0,vanru,pseudo,
148,s261,148,pykka,py,yk,kk,ka,p,y,k,k,a,,0.9692346999654546,1.0973333999863826,1.2413300999905914,1.4013521999586374,1.4573354999884032,0.0,pykka,pseudo,
149,s261,149,faqir,fa,aq,qi,ir,f,a,q,i,r,,0.8291508000111207,0.8852671000058763,1.149185899994336,1.1732928000274114,1.3652286999858916,0.0,faqir,lowwf,
150,s261,150,belly,be,el,ll,ly,b,e,l,l,y,,0.6491609999793582,0.7771989000029862,0.8972512999898754,1.097199300013017,1.161396000010427,0.0,belly,medwf,
151,s261,151,puppy,pu,up,pp,py,p,u,p,p,y,,0.8211011000094004,0.9331449000164866,1.1092396000167355,1.2612158000119962,1.3812019000179134,0.0,puppy,medwf,
152,s261,152,would,wo,ou,ul,ld,w,o,u,l,d,,0.7130861000041477,0.7690791999921203,1.0092038000002503,1.3450693000340834,1.4651493999990635,0.0,would,highwf,
153,s261,153,heond,he,eo,on,nd,h,e,o,n,d,,0.6610453000175767,0.7730421000160277,0.8610696999821812,1.1010218000155874,1.197043499967549,0.0,heond,pseudo,
154,s261,154,puppy,pu,up,pp,py,p,u,p,p,y,,0.6730071000056341,0.7931175000267103,0.9369963000062853,1.0889814000111073,1.2330540000111796,0.0,puppy,medwf,
155,s261,155,zibja,zi,ib,bj,ja,z,i,b,j,a,,1.013008699985221,1.0770063000381924,1.293110400030855,1.437123799987603,1.4929981000022963,0.0,zibja,pseudo,
156,s261,156,buddy,bu,ud,dd,dy,b,u,d,d,y,,0.6729176000226289,0.8649731000186875,0.9770902000018395,1.1290436999988742,1.1691143999923952,0.0,buddy,highwf,
157,s261,157,kremp,kr,re,em,mp,k,r,e,m,p,,0.7569934999919496,0.8528851000010036,0.9408779999939725,0.9650051000062376,1.1730192999821156,0.0,kremp,pseudo,
158,s261,158,edthe,ed,dt,th,he,e,d,t,h,e,,0.6968556999927387,0.9128817999735475,1.176959500007797,1.232861900003627,1.3527939000050537,0.0,edthe,pseudo,
159,s261,159,zibja,zi,ib,bj,ja,z,i,b,j,a,,0.740824899985455,0.8129601000109687,1.3968402000027709,1.588928599958308,1.6529292999766767,0.0,zibja,pseudo,
160,s261,160,therm,th,he,er,rm,t,h,e,r,m,,0.6087028000038117,0.6647545000305399,0.832702599989716,0.9368269999977201,0.9927925000083633,0.0,therm,lowwf,
161,s261,161,puppy,pu,up,pp,py,p,u,p,p,,,0.7169878000277095,0.8289244000334293,1.0127004000241868,1.15667840000242,0.0,0.0,pupp,medwf,
162,s261,162,cooed,co,oo,oe,ed,c,o,o,e,d,,0.8967619999893941,1.0408205999992788,1.1768491999828257,1.2170203999849036,1.400829199992586,0.0,cooed,lowwf,
163,s261,163,would,wo,ou,ul,ld,w,o,u,l,d,,0.6686894999584183,0.716678700002376,0.9487710999674164,1.172700099996291,1.2847920999629423,0.0,would,highwf,
164,s261,164,pykka,py,yk,kk,ka,p,y,k,k,a,,0.6647136000101455,0.8806744999601506,1.0967588999774307,1.2407873999909498,1.352771500009112,0.0,pykka,pseudo,
165,s261,165,kremp,kr,re,em,mp,k,r,e,m,p,,0.8285202000406571,0.9166243000072427,0.9887217000359669,1.0046985000371933,1.1967199000064284,0.0,kremp,pseudo,
166,s261,166,theme,th,he,em,me,t,h,e,m,e,,0.5845613999990746,0.6406680000363849,0.7846427999902517,0.8886727000353858,1.0008721000049263,0.0,theme,medwf,
167,s261,167,there,th,he,er,re,t,h,r,e,r,e,0.6525663000065833,0.6926702000200748,0.9485696000047028,1.0367060000426136,1.1405556999961846,1.2445395000395365,threre,highwf,
168,s261,168,champ,ch,ha,am,mp,c,h,a,m,p,,0.6324907999951392,0.6965988999581896,0.8565183999598958,0.920607999956701,1.0484790999908,0.0,champ,medwf,
169,s261,169,druze,dr,ru,uz,ze,d,r,u,z,e,,0.7084560000221245,0.8845714000053704,1.0284783000242896,1.1325466000125743,1.316518600040581,0.0,druze,lowwf,
170,s261,170,think,th,hi,in,nk,t,h,i,n,k,,0.6323945999611169,0.6884189000120386,0.8485040999948978,1.0244745999807492,1.1444998999941163,0.0,think,highwf,
171,s261,171,vanru,va,an,nr,ru,v,a,n,r,u,,0.6766575999790803,0.7723656999878585,0.8363601999590173,0.9884608999709599,1.084343699971214,0.0,vanru,pseudo,
172,s261,172,edthe,ed,dt,th,he,e,d,t,h,e,,0.6723354000132531,0.8404139999765903,1.0082739000208676,1.0483345999964513,1.1844429000047967,0.0,edthe,pseudo,
173,s261,173,haole,ha,ao,ol,le,h,a,o,l,e,,0.7644033000105992,0.8685749999713153,1.0204430000158027,1.260427700006403,1.3404527999809943,0.0,haole,lowwf,
174,s261,174,champ,ch,ha,am,mp,c,h,a,m,p,,0.6802463000058196,0.7684290999895893,0.9203684999956749,1.0002484999713488,1.168209699972067,0.0,champ,medwf,
175,s261,175,about,ab,bo,ou,ut,a,b,o,u,t,,0.684291499957908,0.7402753999922425,0.9083913000067696,1.0524035000125878,1.172375899972394,0.0,about,highwf,
176,s261,176,vodka,vo,od,dk,ka,v,o,d,k,a,,0.8481969999847934,0.9842836000025272,1.1282195000094362,1.2322942999890074,1.3682740000076592,0.0,vodka,medwf,
177,s261,177,tithe,ti,it,th,he,t,i,t,h,e,,0.8121688000392169,0.8841935000382364,0.9881309000193141,1.0361269999993965,1.1401427000528201,0.0,tithe,lowwf,
178,s261,178,champ,ch,ha,am,mp,c,h,a,m,p,,0.640114400011953,0.728237800009083,0.8960930000175722,0.9520970999728888,1.13625320000574,0.0,champ,medwf,
179,s261,179,belly,be,el,ll,ly,b,e,l,l,y,,0.6760320999892429,0.7640720999916084,0.8840541000245139,1.0440840999945067,1.1562460000277497,0.0,belly,medwf,
180,s261,180,about,ab,bo,ou,ut,a,b,o,u,t,,0.6640423000208102,0.736034200002905,0.8881596999708563,1.04003279999597,1.152137600001879,0.0,about,highwf,
181,s261,181,vodka,vo,od,dk,ka,v,o,d,k,a,,0.8199767000041902,0.948115199978929,1.195953999995254,1.276131099963095,1.3881015999941155,0.0,vodka,medwf,
182,s261,182,faqir,fa,aq,qi,ir,f,a,q,i,r,,1.0558948999969289,1.127882300002966,1.4159116999944672,1.5118855999899097,1.656008199963253,0.0,faqir,lowwf,
183,s261,183,cooed,co,oo,oe,ed,c,o,o,e,d,,0.7079447999713011,0.9079037999617867,1.0519828000105917,1.0842209999682382,1.2999442999716848,0.0,cooed,lowwf,
184,s261,184,pykka,py,yk,kk,ka,p,y,k,k,a,,0.7198441000073217,0.943868400005158,1.232027799997013,1.3760052000288852,1.4879990000044927,0.0,pykka,pseudo,
185,s261,185,zibja,zi,ib,bj,ja,z,i,b,j,a,,0.939862999948673,1.035871199972462,1.275970899965614,1.42797319998499,1.5079315999755636,0.0,zibja,pseudo,
186,s261,186,think,th,hi,in,nk,t,h,i,n,k,,0.6639404000015929,0.719856699986849,0.9039100999943912,1.151967899990268,1.2718368000350893,0.0,think,highwf,
187,s261,187,druze,dr,ru,uz,ze,d,r,u,z,e,,0.8197983000427485,1.0358674000017345,1.1479110000072978,1.2841368000372313,1.5957734000403434,0.0,druze,lowwf,
188,s261,188,lucky,lu,uc,ck,ky,l,u,c,k,y,,0.6798016999964602,0.8877462000236847,1.007737800013274,1.1278670000028796,1.2878662999719381,0.0,lucky,highwf,
189,s261,189,belly,be,el,ll,ly,b,e,l,l,y,,0.6757449000142515,0.8038507000310346,0.8842497000005096,1.0518249000306241,1.1398395000142045,0.0,belly,medwf,
190,s261,190,therm,th,he,er,rm,t,h,e,r,m,,0.575717400002759,0.6316648999927565,0.791705500043463,0.8156974000157788,0.9037400000379421,0.0,therm,lowwf,
191,s261,191,there,th,he,er,re,t,h,e,r,e,,0.6436421000398695,0.7077554000425152,0.8677787000196986,0.9477411000407301,1.0676292000571266,0.0,there,highwf,
192,s261,192,edthe,ed,dt,th,he,e,d,t,h,e,,0.7517235000268556,0.9437025000224821,1.1115881000296213,1.159623500017915,1.3036810000194237,0.0,edthe,pseudo,
193,s261,193,would,wo,ou,ul,ld,w,o,u,l,d,,0.7315112000214867,0.7955385000095703,1.0036634000134654,1.2435708999983035,1.2995174000388943,0.0,would,highwf,
194,s261,194,belly,be,el,ll,ly,b,e,l,l,y,,0.6876227000029758,0.7995980000123382,0.9276503000291996,1.087691500026267,1.1756631000316702,0.0,belly,medwf,
195,s261,195,puppy,pu,up,pp,py,p,u,p,p,y,,0.6755223000072874,0.7956829000031576,0.9556293000350706,1.1075137000298128,1.2036227000062354,0.0,puppy,medwf,
196,s261,196,buddy,bu,ud,dd,dy,b,u,d,d,y,,0.6635141000151634,0.8556061999988742,0.9836579000111669,1.1194451000192203,1.1915687000146136,0.0,buddy,highwf,
197,s261,197,druze,dr,ru,uz,ze,d,r,u,z,e,,0.77139549999265,0.9953847000142559,1.059394100040663,1.24345509998966,1.4595241000060923,0.0,druze,lowwf,
198,s261,198,cheer,ch,he,ee,er,c,h,e,e,r,,0.6554120000218973,0.759417699999176,0.9195180999813601,1.0713918000110425,1.1835749999736436,0.0,cheer,medwf,
199,s261,199,haole,ha,ao,ol,le,h,a,o,l,e,,0.7153875000076368,0.8594551999703981,0.9554410999990068,1.195458600006532,1.2754275999614038,0.0,haole,lowwf,
200,s261,200,kremp,kr,re,em,mp,k,r,e,m,p,,0.9352773999562487,1.0312822999549098,1.1113493999582715,1.1672485999879427,1.3673406000016257,0.0,kremp,pseudo,
201,s261,201,think,th,hi,in,nk,t,h,i,n,k,,0.6513056000112556,0.7073028000304475,0.8912715000333264,1.0194069999852218,1.1554198000230826,0.0,think,highwf,
202,s261,202,kremp,kr,re,em,mp,k,r,e,m,p,,0.7352190999663435,0.871311099966988,0.9591969000175595,1.0793183000059798,1.2393709999741986,0.0,kremp,pseudo,
203,s261,203,heond,he,eo,on,nd,h,e,o,n,d,,0.7391862000222318,0.8432898999890313,0.9632189000258222,1.1553169999970123,1.2674776000203565,0.0,heond,pseudo,
204,s261,204,edthe,ed,dt,th,he,e,d,t,h,e,,0.655129799968563,0.8551908999797888,1.0553570999763906,1.1032438999973238,1.2232174999662675,0.0,edthe,pseudo,
205,s261,205,therm,th,he,er,rm,t,h,e,r,m,,0.7391389000113122,0.8111139999818988,0.9552834999631159,1.0510897999629378,1.1313576999818906,0.0,therm,lowwf,
206,s261,206,vanru,va,an,nr,ru,v,a,n,r,u,,0.7511123000294901,0.839183900039643,0.9111266999971122,1.0790825000149198,1.1751233999966644,0.0,vanru,pseudo,
207,s261,207,zibja,zi,ib,bj,ja,z,i,b,j,a,,0.9630468999966979,1.0669912000303157,1.275016100029461,1.4511548000155017,1.5151368000078946,0.0,zibja,pseudo,
208,s261,208,haole,ha,ao,ol,le,h,e,o,e,,,0.7509841999853961,0.8709984999732114,1.006978799996432,1.2551032999763265,0.0,0.0,heoe,lowwf,
209,s261,209,theme,th,he,em,me,t,h,e,m,e,,0.650899300002493,0.7229912999900989,0.9149969999562018,1.0028772999648936,1.1071912999614142,0.0,theme,medwf,
210,s261,210,think,th,hi,in,nk,t,h,i,n,k,,0.6149375999812037,0.6789171000127681,0.86292919999687,1.0149419999797828,1.1669046999886632,0.0,think,highwf,
211,s261,211,therm,th,he,er,rm,t,h,e,r,m,,0.5709035999607295,0.6429471999872476,0.7708471999503672,0.8508989999536425,0.9229835999431089,0.0,therm,lowwf,
212,s261,212,would,wo,ou,ul,ld,w,o,u,l,d,,0.6708849999704398,0.7508791000000201,0.8869933999958448,1.143069399986416,1.278855599986855,0.0,would,highwf,
213,s261,213,about,ab,bo,ou,ut,a,b,o,u,t,,0.7468188999919221,0.8028801999753341,0.9469012999907136,1.0910173999727704,1.218767799960915,0.0,about,highwf,
214,s261,214,cooed,co,oo,oe,ed,c,o,o,e,d,,0.7747598999994807,0.9348677999805659,1.0868920999928378,1.134720699978061,1.3427375999744982,0.0,cooed,lowwf,
215,s261,215,puppy,pu,up,pp,py,p,u,p,p,y,,0.7307434999966063,0.850790299999062,1.0027094999677502,1.1707076999591663,1.2907143000047654,0.0,puppy,medwf,
216,s261,216,about,ab,bo,ou,ut,a,b,o,u,t,,0.6547603999497369,0.7427447999943979,0.886844199965708,1.0387912999722175,1.1747149999719113,0.0,about,highwf,
217,s261,217,cooed,co,oo,oe,ed,c,o,o,e,d,,0.6427229999681003,0.8506930999574251,1.0110299999942072,1.0507822999497876,1.2588804999832064,0.0,cooed,lowwf,
218,s261,218,there,th,he,er,re,t,h,e,r,e,,0.6065885999705642,0.7027173999813385,0.8467197999707423,0.9026407999917865,1.0065695000230335,0.0,there,highwf,
219,s261,219,would,wo,ou,ul,ld,w,o,o,u,l,d,0.738569799985271,0.9226978999795392,1.0266809999593534,1.3225547999609262,1.6825825999840163,1.8106818999513052,woould,highwf,
220,s261,220,cheer,ch,he,ee,er,c,h,e,e,r,,0.6465790999936871,0.7667162999860011,0.9024987000157125,1.062682899995707,1.1985515999840572,0.0,cheer,medwf,
221,s261,221,haole,ha,ao,ol,le,h,a,o,l,e,,0.6585596000077203,0.7465470000170171,0.850700200011488,1.0745699000544846,1.1385237000067718,0.0,haole,lowwf,
222,s261,222,zibja,zi,ib,bj,ja,z,i,b,j,a,,0.894501400005538,1.0144822000293061,1.2624977000523359,1.4785685000242665,1.5504814000451006,0.0,zibja,pseudo,
223,s261,223,druze,dr,ru,uz,ze,d,r,u,z,e,,0.6824955000192858,0.8905286000226624,1.0024510999792255,1.1385835999972187,1.3306793000083417,0.0,druze,lowwf,
224,s261,224,heond,he,eo,on,nd,h,e,o,n,d,,0.6546602000016719,0.7744376999908127,0.9183817000011913,1.086562699987553,1.1747943999944255,0.0,heond,pseudo,
225,s261,225,vodka,vo,od,dk,ka,v,o,d,k,a,,1.042363899992779,1.1303423999925144,1.370467100001406,1.4584774999530055,1.6103748999885283,0.0,vodka,medwf,
226,s261,226,theme,th,he,em,me,t,h,e,m,e,,0.6943266000016592,0.7505256999866106,0.9182815999956802,1.0146352999727242,1.1104325000196695,0.0,theme,medwf,
227,s261,227,cheer,ch,he,ee,er,c,h,e,e,r,,0.8344624000019394,0.9223976000212133,1.0502786000142805,1.178268100018613,1.3543858000193723,0.0,cheer,medwf,
228,s261,228,pykka,py,yk,kk,ka,p,k,k,a,,,0.8702556000207551,1.4542878000065684,1.5902266000048257,1.7023457000032067,0.0,0.0,pkka,pseudo,
229,s261,229,tithe,ti,it,th,he,t,i,t,h,e,,0.7062115999870002,0.8182033999473788,0.8984891999862157,0.9781851999578066,1.0901523999636993,0.0,tithe,lowwf,
230,s261,230,faqir,fa,aq,qi,ir,f,a,q,i,r,,0.782186999975238,0.8222951000207104,1.1182426000013947,1.1741501999786124,1.3021786999888718,0.0,faqir,lowwf,
231,s261,231,lucky,lu,uc,ck,ky,l,u,c,k,y,,0.778148700017482,1.002109399996698,1.1302907000062987,1.2342498999787495,1.458105199970305,0.0,lucky,highwf,
232,s261,232,druze,dr,ru,uz,ze,d,r,u,z,e,,0.6380999999819323,0.8781991999712773,0.9422039999626577,1.1501990999677218,1.3260871999664232,0.0,druze,lowwf,
233,s261,233,tithe,ti,it,th,he,t,i,t,h,e,,0.6581199000356719,0.7381968999980018,0.8501836000359617,0.9142531999968924,1.02623560000211,0.0,tithe,lowwf,
234,s261,234,buddy,bu,ud,dd,dy,b,u,d,d,y,,0.6540760000352748,0.8460645000450313,0.9421069000381976,1.1020605000085197,1.1101098000071943,0.0,buddy,highwf,
235,s261,235,champ,ch,ha,am,mp,c,h,a,m,p,,0.7460469999932684,0.8340050000115298,0.9460745999822393,1.0741043000016361,1.2420897000120021,0.0,champ,medwf,
236,s261,236,edthe,ed,dt,th,he,e,d,h,t,e,,0.7339603999862447,0.9340276999864727,1.0300487999920733,1.158063500013668,1.3420687000034377,0.0,edhte,pseudo,
237,s261,237,heond,he,eo,on,nd,h,e,o,n,d,,0.7059051999822259,0.7859989000135101,0.93802980001783,1.1298917999956757,1.22600229998352,0.0,heond,pseudo,
238,s261,238,cheer,ch,he,ee,er,c,h,e,e,r,,0.669876599975396,0.7578565999865532,0.8858485000091605,1.045963499986101,1.1659981000120752,0.0,cheer,medwf,
239,s261,239,heond,he,eo,on,nd,h,e,o,n,d,,0.6578289000317454,0.7378183000255376,0.9298328000004403,1.113932600012049,1.201786500052549,0.0,heond,pseudo,
