,sID,Trial #,string,bi_1,bi_2,bi_3,bi_4,key_resp.keys.1,key_resp.keys.2,key_resp.keys.3,key_resp.keys.4,key_resp.keys.5,key_resp.keys.6,key_resp.rt.1,key_resp.rt.2,key_resp.rt.3,key_resp.rt.4,key_resp.rt.5,key_resp.rt.6,resp_string,WF Type,BF Type
0,s262,0,haole,ha,ao,ol,le,h,a,o,l,e,,1.1745160000000396,1.310678899999857,1.502486699999963,1.7024260999999115,1.7744619999998577,0.0,haole,lowwf,
1,s262,1,edthe,ed,dt,th,he,e,d,t,h,e,,0.9872064000001046,1.139181199999939,1.3471440999999231,1.4591525999999249,1.5631676999998945,0.0,edthe,pseudo,
2,s262,2,would,wo,ou,ul,ld,w,o,u,l,d,,0.8231757000000925,1.055151300000034,1.1191488000001755,1.3431717000000845,1.431160600000112,0.0,would,highwf,
3,s262,3,heond,he,eo,on,nd,h,e,o,n,d,,1.4990688000000318,1.6512445000000753,1.7711134999999558,1.8674009999999726,1.9871090999999979,0.0,heond,pseudo,
4,s262,4,druze,dr,ru,uz,ze,d,r,u,z,e,,0.6471228999998857,0.8392809999998008,0.959090999999944,1.1271002999999382,1.271092899999985,0.0,druze,lowwf,
5,s262,5,kremp,kr,re,em,mp,k,r,e,m,p,,1.1543699000001197,1.2823016000002099,1.346365300000116,1.458355900000015,1.658381800000143,0.0,kremp,pseudo,
6,s262,6,tithe,ti,it,th,he,t,i,t,h,e,,0.735060699999849,0.8551354999999603,0.9830764999999246,1.079067699999996,1.1991408999999749,0.0,tithe,lowwf,
7,s262,7,haole,ha,ao,ol,le,h,a,o,l,e,,0.8750287000000299,0.9550194000000829,1.1471289999999499,1.3310578999999052,1.387032500000032,0.0,haole,lowwf,
8,s262,8,would,wo,ou,ul,ld,w,o,u,l,d,,0.5429500000000189,0.7350229999999556,0.7829755000000205,1.0310730999999578,1.0950851000000057,0.0,would,highwf,
9,s262,9,puppy,pu,up,pp,py,p,u,p,p,y,,0.8352092000000084,1.0910185000000183,1.2589792000001125,1.38709259999996,1.5950333000000683,0.0,puppy,medwf,
10,s262,10,pykka,py,yk,kk,ka,p,y,l,k,,,1.1351366999999755,1.390972500000089,2.2230160000001433,2.7749749000001884,0.0,0.0,pylk,pseudo,
11,s262,11,buddy,bu,ud,dd,dy,b,u,d,d,y,,0.762979100000166,0.9149159000000964,1.0670076999999765,1.2029473000000053,1.2908962000001338,0.0,buddy,highwf,
12,s262,12,theme,th,he,em,me,t,h,e,m,e,,0.6550078000000212,0.7831032999999934,0.9109946999999465,1.007002600000078,1.0952657000000272,0.0,theme,medwf,
13,s262,13,buddy,bu,ud,dd,dy,b,u,d,d,y,,0.698932700000114,0.851023400000031,1.0028522000000066,1.1469046000001981,1.2189029000001028,0.0,buddy,highwf,
14,s262,14,would,wo,ou,ul,ld,w,o,u,l,d,,0.6549329999998008,0.8550387999998748,0.9351686999998492,1.182973999999831,1.294958299999962,0.0,would,highwf,
15,s262,15,pykka,py,yk,kk,ka,p,y,k,k,a,,1.0349201999999877,1.3068855999999869,1.8589238000001842,2.0270750000001954,2.514901400000099,0.0,pykka,pseudo,
16,s262,16,zibja,zi,ib,bj,ja,z,i,b,j,a,,1.1109175999999934,1.2629784999999174,1.4789513999999144,1.6869054999999662,1.77490019999982,0.0,zibja,pseudo,
17,s262,17,theme,th,he,em,me,t,h,e,m,e,,0.5789113999999245,0.6991108999998232,0.8349237999998422,0.9470057999999426,1.0268800999999712,0.0,theme,medwf,
18,s262,18,druze,dr,ru,uz,ze,d,r,u,z,e,,0.7588685999999143,0.9348565000000235,1.0628394999998818,1.1828302999999778,1.3350235999998858,0.0,druze,lowwf,
19,s262,19,tithe,ti,it,th,he,t,i,t,h,e,,0.6828579000000445,0.9708067999999912,1.1150579000000107,1.2349047000000155,1.3228057999999692,0.0,tithe,lowwf,
20,s262,20,therm,th,he,er,rm,t,h,e,r,m,,0.8708349000000908,0.9908030999999937,1.0388920999998845,1.1188085999999657,1.334760899999992,0.0,therm,lowwf,
21,s262,21,zibja,zi,ib,bj,ja,z,i,b,j,a,,0.6348301999998966,0.770889200000056,0.9548451999999088,1.1468394999999418,1.227009100000032,0.0,zibja,pseudo,
22,s262,22,cheer,ch,he,ee,er,c,h,e,e,r,,0.5428460000000541,0.7268327000001591,0.7909309000001485,0.958938900000021,1.0628203000001122,0.0,cheer,medwf,
23,s262,23,there,th,he,er,re,t,h,e,r,e,,0.5868272000000161,0.7150222000000213,0.786931500000037,0.8587604000001647,0.9549099000000751,0.0,there,highwf,
24,s262,24,therm,th,he,er,rm,t,h,e,r,m,,0.6307901999998649,0.8467512999998235,0.9027102000000014,0.9828739999998106,1.2469552000000022,0.0,therm,lowwf,
25,s262,25,theme,th,he,em,me,t,h,e,m,e,,0.530791200000067,0.6267688000000362,0.7388733000000229,0.867013199999974,0.9067585000000236,0.0,theme,medwf,
26,s262,26,would,wo,ou,ul,ld,w,o,u,l,d,,0.6627104000001509,0.8787119000000985,0.9348337000001266,1.182706600000074,1.2947024000000056,0.0,would,highwf,
27,s262,27,kremp,kr,re,em,mp,k,r,e,m,p,,0.7547374999999192,0.8587423999999828,0.9468179000000418,1.0586905000000115,1.1788033000000269,0.0,kremp,pseudo,
28,s262,28,think,th,hi,in,nk,t,h,i,n,k,,0.6946781000001465,0.7828635000000759,0.8549198000000615,0.9986689000002116,1.0947405000001709,0.0,think,highwf,
29,s262,29,puppy,pu,up,pp,py,p,u,p,p,y,,0.8426961000000119,1.0746796000000813,1.2667791999999736,1.4028505999999652,1.61071179999999,0.0,puppy,medwf,
30,s262,30,lucky,lu,uc,ck,ky,l,u,c,k,y,,0.7026855999999952,0.9186568000000079,1.062815799999953,1.1426065000000563,1.318726100000049,0.0,lucky,highwf,
31,s262,31,haole,ha,ao,ol,le,h,a,o,l,e,,0.6746725999998944,0.8508830000000671,0.9466623000000709,1.122605799999974,1.218865600000072,0.0,haole,lowwf,
32,s262,32,think,th,hi,in,nk,t,h,i,n,k,f,0.694640500000105,0.790628100000049,0.8786089000000175,0.9906367000000955,1.1026435999999649,1.3588039000001118,thinkf,highwf,
33,s262,33,puppy,pu,up,pp,py,p,u,p,p,y,,0.7786516999999549,0.9946304999998574,1.1387591999998676,1.282617000000073,1.4027476999999635,0.0,puppy,medwf,
34,s262,34,lucky,lu,uc,ck,ky,l,u,c,k,y,,0.6386339999999109,0.8705976000001101,1.0306021999999757,1.1105867999999646,1.3106282000001102,0.0,lucky,highwf,
35,s262,35,think,th,hi,in,nk,t,h,i,n,k,f,0.5785941000001458,0.6585943000000043,0.738564100000076,0.8746852000001581,0.9786859000000732,1.1945717000000968,thinkf,highwf,
36,s262,36,faqir,fa,aq,qi,ir,f,a,q,u,i,r,0.9185835000000679,1.5587511999999606,1.790590100000145,1.9265990999999758,2.766617799999949,2.774460500000032,faquir,lowwf,
37,s262,37,belly,be,el,ll,ly,b,e,l,l,y,,0.6346619000000828,0.7626528999999209,0.8505635999999868,0.9946153999999297,1.1226802999999563,0.0,belly,medwf,
38,s262,38,heond,he,eo,on,nd,h,e,o,n,d,,0.5985603999999967,0.7025650000000496,0.830643499999951,0.9265728000000308,1.0545666999998957,0.0,heond,pseudo,
39,s262,39,about,ab,bo,ou,ut,a,b,o,u,t,,0.4986134000000675,0.7066148999999768,0.8185565999999653,0.9145963000000847,1.026581300000089,0.0,about,highwf,
40,s262,40,cheer,ch,he,ee,er,c,h,e,e,r,,0.5905046000000311,0.7346107999999276,0.8706463999999414,1.0064956999999595,1.102562300000045,0.0,cheer,medwf,
41,s262,41,champ,ch,ha,am,mp,c,h,a,m,p,,0.5625267999998869,0.6745250999999826,0.7784833999999137,0.9145136999998158,1.0585186999999223,0.0,champ,medwf,
42,s262,42,therm,th,he,er,rm,t,h,e,r,m,,0.766478300000017,0.8787130000000616,0.9746483999999782,1.0385933000000023,1.2784986000001481,0.0,therm,lowwf,
43,s262,43,heond,he,eo,on,nd,h,e,o,n,d,,0.5944690000001174,0.7223745000001145,0.8264517000000069,0.9065120000000206,1.042434200000116,0.0,heond,pseudo,
44,s262,44,think,th,hi,in,nk,t,h,i,n,k,,0.6384771000000455,0.7423734999999851,0.8304981000001135,0.9425619000001006,1.0465613999999732,0.0,think,highwf,
45,s262,45,lucky,lu,uc,ck,ky,l,u,c,k,y,,0.6505630000001474,0.8425901000000522,0.9704515000000811,1.0504825000000437,1.234386699999959,0.0,lucky,highwf,
46,s262,46,buddy,bu,ud,dd,dy,b,u,d,d,y,,0.6544182999998611,0.774378299999853,0.9264037999998891,1.0544029000000137,1.2464061000000584,0.0,buddy,highwf,
47,s262,47,vanru,va,an,nr,ru,v,a,n,r,u,,0.7304242000000158,0.8984206999998605,0.9863947999999709,1.1304058999999143,1.242513899999949,0.0,vanru,pseudo,
48,s262,48,about,ab,bo,ou,ut,a,b,o,u,t,,0.5344577000000754,0.7343757999999525,0.8383891000000858,0.9103701999999885,1.0304932999999892,0.0,about,highwf,
49,s262,49,champ,ch,ha,am,mp,c,h,a,m,p,,0.5383822999999666,0.6505503999999291,0.7543433999999252,0.89038759999994,0.9863623999999618,0.0,champ,medwf,
50,s262,50,lucky,lu,uc,ck,ky,l,u,c,k,y,,0.5903524999998808,0.7903790000000299,0.9023678000000928,0.9983978000000207,1.1583565999999337,0.0,lucky,highwf,
51,s262,51,would,wo,ou,ul,ld,w,o,u,l,d,,0.5303687999999056,0.682352599999831,0.7305266999999276,1.002375499999971,1.1143460999999206,0.0,would,highwf,
52,s262,52,belly,be,el,ll,ly,b,e,l,l,y,,0.622312299999976,0.8142855999999483,0.8623520999999528,0.9982883999998649,1.0942790999999943,0.0,belly,medwf,
53,s262,53,heond,he,eo,on,nd,h,e,o,n,d,,0.586312899999939,0.6743283999999221,0.7943316000000777,0.8903026999998929,0.9943602999999257,0.0,heond,pseudo,
54,s262,54,cooed,co,oo,oe,ed,c,o,o,e,d,,0.6062455999999656,0.7103501999999935,0.8463371000000279,0.9342206999999689,1.014230600000019,0.0,cooed,lowwf,
55,s262,55,zibja,zi,ib,bj,ja,z,i,b,j,a,,0.6264535000000251,0.7623115999999754,1.0184421999999813,1.1942822999999407,1.3142588999999134,0.0,zibja,pseudo,
56,s262,56,there,th,he,er,re,t,h,e,r,e,,0.6222351999999773,0.7583646999999019,0.8382146999999804,0.89432869999996,0.990213199999971,0.0,there,highwf,
57,s262,57,cheer,ch,he,ee,er,c,h,e,e,r,,0.5302537000000029,0.6662959000000228,0.7783412000001135,0.914271699999972,1.010311700000102,0.0,cheer,medwf,
58,s262,58,haole,ha,ao,ol,le,h,a,o,l,e,,0.710244700000203,0.8143475000001672,0.9102139999999963,1.0781789000000117,1.1503500000001168,0.0,haole,lowwf,
59,s262,59,belly,be,el,ll,ly,b,e,l,l,y,,0.5623964000001251,0.7062518000000182,0.7782401000001755,0.9221961000000647,1.0342826000000969,0.0,belly,medwf,
60,s262,60,champ,ch,ha,am,mp,c,h,a,m,p,,0.6221983000000364,0.7581896000001507,0.8541612000001351,0.9902426000001014,1.0942786000000524,0.0,champ,medwf,
61,s262,61,zibja,zi,ib,bj,ja,z,i,b,j,a,,0.6023298000000068,0.7302392000001419,0.8983118000001014,1.0101624000001266,1.114067200000136,0.0,zibja,pseudo,
62,s262,62,belly,be,el,ll,ly,b,e,l,l,y,,0.6134282999998959,0.7893468999998277,0.8774251999998341,1.0293709999998555,1.1413824999999633,0.0,belly,medwf,
63,s262,63,pykka,py,yk,kk,ka,p,y,k,k,a,,1.0901221999999962,1.266073100000085,1.4421032000000196,1.5860712999999578,1.6421354999999949,0.0,pykka,pseudo,
64,s262,64,faqir,fa,aq,qi,ir,f,a,q,i,r,,0.6940790999999535,0.8300787999999102,1.118054599999823,1.2141028999999435,1.3820678999998108,0.0,faqir,lowwf,
65,s262,65,edthe,ed,dt,th,he,e,d,t,h,e,,0.7940065000000232,0.9780887000001712,1.2019274000001587,1.3140981000001375,1.4179513000001407,0.0,edthe,pseudo,
66,s262,66,vanru,va,an,nr,ru,v,a,n,r,u,,0.6700263000000177,0.7660210000001371,0.9024673999999777,1.0540066000000934,1.1980003000001034,0.0,vanru,pseudo,
67,s262,67,haole,ha,ao,ol,le,h,a,o,l,e,,0.6099252000001343,0.7059213,0.8340806000001066,1.0019555999999739,1.0659496999999192,0.0,haole,lowwf,
68,s262,68,vanru,va,an,nr,ru,v,a,n,r,u,,0.6780146000000968,0.8299874000001637,0.9179966000001514,1.181988100000126,1.31799860000001,0.0,vanru,pseudo,
69,s262,69,kremp,kr,re,em,mp,k,r,e,m,p,,0.6738875999999436,0.7940227999999934,0.889898599999924,0.9623260000000755,1.1220003999999335,0.0,kremp,pseudo,
70,s262,70,pykka,py,yk,kk,ka,p,y,k,k,a,,0.7339650000001257,0.9979501000000255,1.1339686000001166,1.269918299999972,1.357917499999985,0.0,pykka,pseudo,
71,s262,71,therm,th,he,er,rm,t,h,e,r,m,,0.5778909999999087,0.7060235999999804,0.7858879999998862,0.8499234000000797,1.0258768999999575,0.0,therm,lowwf,
72,s262,72,vanru,va,an,nr,ru,v,a,n,r,u,,0.6300959000000148,0.7499450000000252,0.8621120999998766,0.9818569999999909,1.0940479999999297,0.0,vanru,pseudo,
73,s262,73,champ,ch,ha,am,mp,c,h,a,m,p,,0.5218846999998732,0.6419699999999011,0.7458024000000023,0.9138374999999996,0.9938924999999017,0.0,champ,medwf,
74,s262,74,vodka,vo,od,dk,ka,o,v,o,d,k,a,0.7258774000001722,1.3818658000000141,1.5018549999999777,1.6218519999999899,1.7179347000001144,1.813950900000009,ovodka,medwf,
75,s262,75,about,ab,bo,ou,ut,a,b,o,u,t,,0.786025299999892,0.969877600000018,1.0817763999998533,1.1537726999999904,1.2577656999999363,0.0,about,highwf,
76,s262,76,tithe,ti,it,th,he,t,i,t,h,e,,0.6218057999999473,0.7578742999999122,0.845759199999975,0.97372079999991,1.0616460999999617,0.0,tithe,lowwf,
77,s262,77,cooed,co,oo,oe,ed,c,o,o,e,d,,0.6258406000001742,0.7699898000000758,0.905787700000019,1.0099047000001065,1.0978064000000813,0.0,cooed,lowwf,
78,s262,78,tithe,ti,it,th,he,t,i,t,h,e,,0.5257484999999633,0.6537848000000395,0.749680600000147,0.8619026000001213,0.9337480000001506,0.0,tithe,lowwf,
79,s262,79,theme,th,he,em,me,t,h,e,m,e,,0.6417223999999351,0.7537121999998817,0.8737149999999474,0.9696978999998009,1.041715899999872,0.0,theme,medwf,
80,s262,80,tithe,ti,it,th,he,t,i,t,h,e,,0.6138816000000133,0.7976822999999058,0.9176681999999801,1.037684200000058,1.1496494999998959,0.0,tithe,lowwf,
81,s262,81,think,th,hi,in,nk,t,h,i,n,k,,0.6657098000000587,0.7777075000001332,0.849747200000138,0.9776756000001114,1.089856200000213,0.0,think,highwf,
82,s262,82,puppy,pu,up,pp,py,p,u,p,p,y,,0.6776989999998477,0.973701599999913,1.1896884999998747,1.3256834999999683,1.4216432999999142,0.0,puppy,medwf,
83,s262,83,vodka,vo,od,dk,ka,v,o,d,k,a,,0.665669699999853,0.7616725999998835,0.8656553000000713,0.9936018999999305,1.0975886999999602,0.0,vodka,medwf,
84,s262,84,edthe,ed,dt,th,he,e,d,t,h,e,,0.6055913999998666,0.8375811999999314,1.0536041999998815,1.1415461999999934,1.221576099999993,0.0,edthe,pseudo,
85,s262,85,lucky,lu,uc,ck,ky,l,u,c,k,y,,0.6017087000000174,0.865572800000109,1.0416575000001558,1.1535438000000795,1.3535515000000942,0.0,lucky,highwf,
86,s262,86,there,th,he,er,re,t,h,e,r,e,,0.6295506000001296,0.7575781000000461,0.8537003999999797,0.901526800000056,0.9976333000001887,0.0,there,highwf,
87,s262,87,buddy,bu,ud,dd,dy,b,u,d,d,y,,0.6338733000000047,0.7455271999999695,0.8896511000000373,1.0255311000000802,1.2415322000001652,0.0,buddy,highwf,
88,s262,88,kremp,kr,re,em,mp,k,r,e,m,p,,0.9175081999999293,1.0375173999998424,1.1414760000000115,1.2054650999998557,1.3338047999998253,0.0,kremp,pseudo,
89,s262,89,faqir,fa,aq,qi,ir,f,q,q,i,r,,0.5774641999998948,0.8339336999999887,1.6336929999999938,2.0814726999999493,2.145504800000026,0.0,fqqir,lowwf,
90,s262,90,cheer,ch,he,ee,er,c,h,e,e,r,,0.7334104999999909,0.8454490999999962,0.9335704999998597,1.0693427999999585,1.1335483000000295,0.0,cheer,medwf,
91,s262,91,kremp,kr,re,em,mp,k,r,e,m,p,,0.8654169999999795,0.969453299999941,1.0415737000000718,1.137400800000023,1.2494335999999748,0.0,kremp,pseudo,
92,s262,92,vodka,vo,od,dk,ka,v,o,d,k,a,,0.7573964000000615,0.8455710999999155,0.9495475999999599,1.069500699999935,1.1334928999999647,0.0,vodka,medwf,
93,s262,93,buddy,bu,ud,dd,dy,b,u,d,d,y,,0.5933794999998554,0.761486399999967,0.8735663999998451,1.0175391999998737,1.2253731999999218,0.0,buddy,highwf,
94,s262,94,belly,be,el,ll,ly,b,e,l,l,y,,0.5893278000000919,0.7333062000000155,0.8693052000000989,1.0054308000001129,1.0938513999999486,0.0,belly,medwf,
95,s262,95,theme,th,he,em,me,t,h,e,m,e,,0.6012862000000041,0.7372751000000335,0.8412713000000167,0.9373038000001088,1.0173357000001033,0.0,theme,medwf,
96,s262,96,pykka,py,yk,kk,ka,p,y,k,k,a,,0.6533359000000019,0.9093686000001071,1.0615219000001161,1.1813816000001225,1.2293125000001055,0.0,pykka,pseudo,
97,s262,97,zibja,zi,ib,bj,ja,z,i,b,j,a,,0.6972628999999415,0.8492378999999346,2.2414208999998664,2.3452178000000004,2.473209099999849,0.0,zibja,pseudo,
98,s262,98,cooed,co,oo,oe,ed,c,o,o,e,d,,0.7492475000001377,0.9012743000000683,1.029307400000107,1.1653412000000571,1.2294317000000774,0.0,cooed,lowwf,
99,s262,99,about,ab,bo,ou,ut,a,b,o,u,t,,0.569223200000124,0.7931735000001936,0.8973209000000679,0.9372861000001649,1.0571896000001288,0.0,about,highwf,
100,s262,100,druze,dr,ru,uz,ze,d,r,u,z,e,,0.6772032999999738,0.8691959000000224,0.9572983999998996,1.0851427000000058,1.2371610999998666,0.0,druze,lowwf,
101,s262,101,there,th,he,er,re,t,h,e,r,e,,0.6091787000000295,0.7051177000000735,0.8010684999999285,0.8410922999999002,0.9372591999999713,0.0,there,highwf,
102,s262,102,faqir,fa,aq,qi,ir,f,a,q,i,r,,0.6211617999999817,0.7811203999999634,1.0611367000001337,1.2051241000001482,1.333115300000145,0.0,faqir,lowwf,
103,s262,103,edthe,ed,dt,th,he,e,d,t,h,e,,0.5930950000001758,0.7531161000001703,0.9610499000000345,1.0652014000002055,1.1610646000001452,0.0,edthe,pseudo,
104,s262,104,therm,th,he,er,rm,t,h,e,r,m,,0.5730708000000959,0.6931160000001455,0.7892006000001857,0.8371257000001151,1.013068100000055,0.0,therm,lowwf,
105,s262,105,cheer,ch,he,ee,er,c,h,e,e,r,,0.6650509999999485,0.8010191999999279,0.8970334000000548,1.0491326999999728,1.145051199999898,0.0,cheer,medwf,
106,s262,106,faqir,fa,aq,qi,ir,f,a,q,i,r,,0.5730822999998963,0.7329279000000497,0.9730466999999408,1.1169721999999638,1.245073199999979,0.0,faqir,lowwf,
107,s262,107,about,ab,bo,ou,ut,a,b,o,u,t,,0.5529493999999886,0.768960399999969,0.8569423000001279,0.9290293000001384,1.040956000000051,0.0,about,highwf,
108,s262,108,vodka,vo,od,dk,ka,v,o,d,k,a,,0.612726500000008,0.7246850000001359,0.812676300000021,0.924755100000084,0.9968685999999707,0.0,vodka,medwf,
109,s262,109,there,th,he,er,re,t,h,e,r,e,,0.601004200000034,0.7289777000000868,0.7850488999999925,0.8570230999998785,0.9529896999999892,0.0,there,highwf,
110,s262,110,cooed,co,oo,oe,ed,c,o,o,e,d,,0.5329675999998926,0.6530914999998458,0.7808612999999696,0.8929869999999482,0.9649795000000267,0.0,cooed,lowwf,
111,s262,111,druze,dr,ru,uz,ze,d,r,u,z,e,,0.6088968000001387,0.8008489999999711,0.9048369000001912,1.0408458000001701,1.2088982000000215,0.0,druze,lowwf,
112,s262,112,edthe,ed,dt,th,he,e,d,t,h,e,,0.5968476000000464,0.7809638999999606,0.9648587000001498,1.0930845000000318,1.1568858000000546,0.0,edthe,pseudo,
113,s262,113,vodka,vo,od,dk,ka,v,o,d,k,a,,0.6887810999999147,0.7849457999998322,0.8967773999997917,1.0089932999999291,1.0968566999999894,0.0,vodka,medwf,
114,s262,114,cooed,co,oo,oe,ed,c,o,o,e,d,,0.596804099999872,0.7007306000000426,0.8288741999999729,0.9247523999999885,0.9888363000000027,0.0,cooed,lowwf,
115,s262,115,champ,ch,ha,am,mp,c,h,a,m,p,,0.5207713000002059,0.6490297000000282,0.736898900000142,0.8727420000000166,0.9767959000000701,0.0,champ,medwf,
116,s262,116,druze,dr,ru,uz,ze,d,r,u,z,e,,0.5727217999999539,0.7566710999999486,0.8686766000000716,0.9886957000001075,1.1567469000001438,0.0,druze,lowwf,
117,s262,117,vanru,va,an,nr,ru,v,a,n,r,u,,0.616606499999989,0.728721299999961,0.8246649000000161,1.0086407999999665,1.12065419999999,0.0,vanru,pseudo,
118,s262,118,heond,he,eo,on,nd,h,e,o,n,d,,0.6126490999999987,0.6926574999999957,0.8127557999998771,0.9006267999998272,0.9888048999998773,0.0,heond,pseudo,
119,s262,119,puppy,pu,up,pp,py,p,u,p,p,y,,0.6406707999999526,1.1766402999999173,1.3926486999998815,1.5207277999998041,1.6406486999999288,0.0,puppy,medwf,
120,s262,120,kremp,kr,re,em,mp,k,r,e,m,p,,0.9838156999999228,1.0800363000000743,1.1598423999998886,1.231772299999875,1.327929999999924,0.0,kremp,pseudo,
121,s262,121,there,th,he,er,re,t,h,e,r,e,,0.5802289000000656,0.7083748999998534,0.7960626999999931,0.844128499999897,0.940149799999972,0.0,there,highwf,
122,s262,122,cooed,co,oo,oe,ed,c,o,o,e,d,,0.5284483999998884,0.6724168999999165,0.8003305999998247,0.896350099999836,0.9844522999999299,0.0,cooed,lowwf,
123,s262,123,buddy,bu,ud,dd,dy,b,u,d,d,y,,0.5719900999999936,0.7080196000001706,0.8360397000001285,0.980156500000021,1.204003000000057,0.0,buddy,highwf,
124,s262,124,theme,th,he,em,me,t,h,e,m,e,,0.6083184999999958,0.7043575000000146,0.8243035000000418,0.928293100000019,0.9842854999999417,0.0,theme,medwf,
125,s262,125,zibja,zi,ib,bj,ja,z,i,g,j,a,,0.8841055000000324,1.036093899999969,1.172200200000134,1.3161982000001444,1.4360974999999598,0.0,zigja,pseudo,
126,s262,126,cheer,ch,he,ee,er,c,h,e,e,r,,0.6642345000000205,0.8082240000001093,0.9042318000001615,1.0483002000000852,1.1282161999999971,0.0,cheer,medwf,
127,s262,127,tithe,ti,it,th,he,t,i,t,h,e,,0.7242433999999776,0.8362033000000793,0.9162456000001384,1.0523807000001852,1.1481838000001972,0.0,tithe,lowwf,
128,s262,128,would,wo,ou,ul,ld,w,o,u,l,d,,0.6561933999996654,0.8082890999999108,0.8642732999996952,1.112335599999824,1.2002786999996715,0.0,would,highwf,
129,s262,129,therm,th,he,er,rm,t,h,e,r,m,,0.5881293000002188,0.7002102000001287,0.7961841999999706,0.8522941999999603,0.9963161000000582,0.0,therm,lowwf,
130,s262,130,vodka,vo,od,dk,ka,v,o,d,k,a,,0.7121428999998898,0.7841887999998107,0.9280979000000116,1.040266900000006,1.0882022000000688,0.0,vodka,medwf,
131,s262,131,think,th,hi,in,nk,t,h,i,n,k,,0.6201144000001477,0.7241279999998369,0.7960892000000968,0.9322013999999399,1.0361250999999356,0.0,think,highwf,
132,s262,132,buddy,bu,ud,dd,dy,b,u,d,d,y,,0.5601897000001372,0.6801108999998178,0.8082174999999552,0.9282340999998269,1.152126699999826,0.0,buddy,highwf,
133,s262,133,cheer,ch,he,ee,er,c,h,e,e,r,,0.6840188999999555,0.803994800000055,0.9082776000000194,1.0519444999999905,1.1321451999997407,0.0,cheer,medwf,
134,s262,134,therm,th,he,er,rm,t,h,e,r,m,,0.568072900000061,0.7040175000001909,0.768056400000205,0.832092300000113,0.9999668999998903,0.0,therm,lowwf,
135,s262,135,puppy,pu,up,pp,py,p,u,p,p,y,,0.6920018999999229,0.8999822999999196,1.0600798000000395,1.204084800000146,1.4359721000000718,0.0,puppy,medwf,
136,s262,136,there,th,he,er,re,t,h,e,r,e,,0.6639311000003545,0.7839610000000903,0.8639517000001433,0.9279660000001968,1.007919800000309,0.0,there,highwf,
137,s262,137,heond,he,eo,on,nd,h,e,o,n,d,,0.6600466999998389,0.7719720999998572,0.8601211000000148,0.9479579999997441,1.0523580999997648,0.0,heond,pseudo,
138,s262,138,cheer,ch,he,ee,er,c,h,e,e,r,,0.6078591000000415,0.7199196999999913,0.8477775000001202,0.9758347000001777,1.0398706999999376,0.0,cheer,medwf,
139,s262,139,there,th,he,er,re,t,h,e,r,e,,0.6678694000001997,0.7878593000000365,0.8758407000000261,0.9158977000001869,1.0118271999999706,0.0,there,highwf,
140,s262,140,theme,th,he,em,me,t,h,e,m,e,,0.5998807000000852,0.687985099999878,0.8239087000001746,0.9198935999997957,0.9838165000001027,0.0,theme,medwf,
141,s262,141,tithe,ti,it,th,he,t,i,t,h,e,,0.6917567000000417,0.8197135999998864,0.9079376999998203,1.0197534999997515,1.1077195999996547,0.0,tithe,lowwf,
142,s262,142,vodka,vo,od,dk,ka,v,o,d,k,a,,0.647899999999936,0.7437957999995888,0.863619799999924,0.9676571999998487,1.0316854999996394,0.0,vodka,medwf,
143,s262,143,think,th,hi,in,nk,t,h,i,n,k,,0.6357004000001325,0.7317004999999881,0.8037285999998858,0.9322747999999592,1.0358221000001322,0.0,think,highwf,
144,s262,144,kremp,kr,re,em,mp,k,r,e,m,p,,0.6077021999999488,0.7518740000000435,0.8397460999999566,0.8797912999998516,0.9838299999996707,0.0,kremp,pseudo,
145,s262,145,pykka,py,yk,kk,ka,p,y,k,k,a,,0.6517721999998685,0.859599899999921,1.019644900000003,1.1476128999997854,1.219610399999965,0.0,pykka,pseudo,
146,s262,146,puppy,pu,up,pp,py,p,u,p,p,y,,0.7036731000002874,0.8955310000001191,1.055541500000345,1.191631099999995,1.2635033000001386,0.0,puppy,medwf,
147,s262,147,druze,dr,ru,uz,ze,d,r,u,z,e,,0.5796024000001125,0.7636041999999179,0.8756971000002522,0.9875810000003185,1.131604100000004,0.0,druze,lowwf,
148,s262,148,zibja,zi,ib,bj,ja,z,i,g,j,a,,0.6235940999999912,0.783726800000295,0.8955578999998579,1.503581700000268,1.5755729000002248,0.0,zigja,pseudo,
149,s262,149,about,ab,bo,ou,ut,a,b,o,u,t,,0.6435246999999436,0.8355284999997821,0.9318341999996846,0.9796096000000034,1.091531600000053,0.0,about,highwf,
150,s262,150,vanru,va,an,nr,ru,v,a,n,r,u,,0.6154935999998088,0.7435946999999032,0.807450499999959,0.9596025999999256,1.0714232999998785,0.0,vanru,pseudo,
151,s262,151,therm,th,he,er,rm,t,h,e,r,m,,0.5634477999997216,0.6837474999997539,0.7634330999999293,0.8354113000000325,0.9474374999999782,0.0,therm,lowwf,
152,s262,152,buddy,bu,ud,dd,dy,b,u,d,d,y,,0.5594015000001491,0.7195364000003792,0.7993893000002572,0.9354542000000947,1.1434105000003,0.0,buddy,highwf,
153,s262,153,tithe,ti,it,th,he,t,i,t,h,e,,0.6753867999996146,0.7874887999996645,0.8513746999997238,0.9713164999998298,1.0594171999996433,0.0,tithe,lowwf,
154,s262,154,belly,be,el,ll,ly,b,e,l,l,y,,0.5993634999999813,0.7353143999998792,0.8314606999997523,0.9673502999999073,1.0395353999997496,0.0,belly,medwf,
155,s262,155,lucky,lu,uc,ck,ky,l,u,c,k,y,,0.5313393999999789,0.7394095999998171,0.907310999999936,0.9953565999999228,1.2193198999998458,0.0,lucky,highwf,
156,s262,156,haole,ha,ao,ol,le,h,a,o,l,e,,0.8632599999996273,0.9832625999997617,1.1433554000000186,1.3273020999999972,1.4072565999999824,0.0,haole,lowwf,
157,s262,157,would,wo,ou,ul,ld,w,o,u,l,d,,0.6352566000000479,0.7475518999999622,0.827252199999748,1.035270699999728,1.1392820999999458,0.0,would,highwf,
158,s262,158,about,ab,bo,ou,ut,a,b,o,u,t,,0.5272343999999975,0.7832106000000749,0.8712236999999732,0.9351584000000912,1.0792607000003045,0.0,about,highwf,
159,s262,159,think,th,hi,in,nk,t,h,i,n,k,,0.5632919999998194,0.6514671999998427,0.7393921999996564,0.859245799999826,0.9472257999996145,0.0,think,highwf,
160,s262,160,champ,ch,ha,am,mp,c,h,a,m,p,o,0.5591248999999152,0.6632196000000476,0.7594151000002967,0.8711269000000357,1.0231677000001582,1.0313919999998689,champo,medwf,
161,s262,161,vanru,va,an,nr,ru,v,a,n,r,u,,0.7071104000001469,1.1391272000000754,1.259120300000177,1.5711032000003797,1.659217400000216,0.0,vanru,pseudo,
162,s262,162,druze,dr,ru,uz,ze,d,r,u,z,e,,0.6949381999997968,0.8628924999998162,0.9748946999998225,1.0948880999999346,1.222887499999615,0.0,druze,lowwf,
163,s262,163,zibja,zi,ib,bj,ja,z,i,b,j,a,,0.6750710000001163,0.8431230000001051,1.051083700000163,1.2030343000001267,1.2910682000001543,0.0,zibja,pseudo,
164,s262,164,buddy,bu,ud,dd,dy,b,u,d,d,y,,0.5831246000002466,0.7191510000002381,0.8310083000001214,0.9671699999998964,1.5030337000002874,0.0,buddy,highwf,
165,s262,165,haole,ha,ao,ol,le,h,a,o,l,e,,0.6189242000000377,0.7149424999997791,0.8349344999996902,0.9789422999997441,1.0590523999999277,0.0,haole,lowwf,
166,s262,166,faqir,fa,aq,qi,ir,f,a,q,i,r,,0.6069723000000522,0.7669809999997597,0.9911114000001362,1.1190065999999206,1.2709279000000606,0.0,faqir,lowwf,
167,s262,167,vodka,vo,od,dk,ka,v,o,d,k,a,,0.6349936999999954,0.7230085999999574,0.8349345000001449,0.9468839999999545,1.0188889999999446,0.0,vodka,medwf,
168,s262,168,faqir,fa,aq,qi,ir,f,a,q,i,r,,0.566917900000135,0.7749244999999974,0.9989510000000337,1.1428839000000153,1.2629996999999094,0.0,faqir,lowwf,
169,s262,169,pykka,py,yk,kk,ka,p,y,k,k,a,,0.8109963000001699,1.002897700000176,1.170835000000352,1.3069493000002694,1.3628438000000642,0.0,pykka,pseudo,
170,s262,170,lucky,lu,uc,ck,ky,l,u,c,k,y,,0.6788394000000153,0.8868170999999165,1.0068387999999686,1.1188434000000598,1.2949910000002092,0.0,lucky,highwf,
171,s262,171,faqir,fa,aq,qi,ir,f,a,q,i,r,,0.5708040999998047,0.70680799999991,0.9307483999996293,1.0747604999996838,1.2107638999996198,0.0,faqir,lowwf,
172,s262,172,edthe,ed,dt,th,he,e,d,t,h,e,,0.6467742999998336,0.8228242000000137,1.0227067999999235,1.1106850999999551,1.1907947999998214,0.0,edthe,pseudo,
173,s262,173,champ,ch,ha,am,mp,c,h,a,m,p,,0.5389098000000558,0.690685300000041,0.7947810000000572,0.9386834000001727,1.0507221000002573,0.0,champ,medwf,
174,s262,174,puppy,pu,up,pp,py,p,u,p,p,y,,0.6468641000001298,0.8626758000000336,1.0146647000001394,1.1507787000000462,1.2547199999999066,0.0,puppy,medwf,
175,s262,175,cooed,co,oo,oe,ed,c,o,o,e,d,,0.6826277999998638,0.7788058999999521,0.9225986000001285,1.0026985999998033,1.0827510999997685,0.0,cooed,lowwf,
176,s262,176,zibja,zi,ib,bj,ja,z,i,b,j,a,,0.7186040000001412,0.8545695000002524,0.9906779000002643,1.1186897000002318,1.2226227000001018,0.0,zibja,pseudo,
177,s262,177,edthe,ed,dt,th,he,e,d,t,h,e,,0.5386061999997764,0.6825730999998996,0.9066695999999865,1.0266572000000451,1.0745450999997956,0.0,edthe,pseudo,
178,s262,178,kremp,kr,re,em,mp,k,r,e,m,p,,0.6943562999999813,0.8303842999998778,0.9184748000002401,0.9584844999999405,1.070406400000138,0.0,kremp,pseudo,
179,s262,179,there,th,he,er,re,t,h,e,r,e,,0.5786878999997498,0.6985301999998228,0.7627010999999584,0.8184474999998201,0.9145297000000028,0.0,there,highwf,
180,s262,180,lucky,lu,uc,ck,ky,l,u,c,k,y,,0.7665640000000167,0.9904711999997744,1.1665926000000582,1.2705729999997857,1.4545795999997608,0.0,lucky,highwf,
181,s262,181,tithe,ti,it,th,he,t,i,t,h,e,,0.5383722999999918,0.6423838000000615,0.7465436000002228,0.8506779000003917,0.9465404000002309,0.0,tithe,lowwf,
182,s262,182,druze,dr,ru,uz,ze,d,r,u,z,e,,0.5744552999999541,0.7744642000002386,0.8785477000001265,1.0144654999999148,1.1666018999999324,0.0,druze,lowwf,
183,s262,183,belly,be,el,ll,ly,b,e,l,l,y,,0.6583871000002546,0.8024857000000338,0.8745782999999392,1.0103431000002274,1.0662999999999556,0.0,belly,medwf,
184,s262,184,haole,ha,ao,ol,le,h,a,o,l,e,,0.7185027999998965,0.8063885999999911,0.918257100000119,1.0862867999999253,1.1344401999999718,0.0,haole,lowwf,
185,s262,185,puppy,pu,up,pp,py,p,u,p,p,y,,0.5782894999997552,0.810314500000004,0.9465371999999661,1.0822384999996757,1.178349999999682,0.0,puppy,medwf,
186,s262,186,heond,he,eo,on,nd,h,e,o,n,d,,0.686255699999947,0.7902436999997917,0.9022672999999486,0.9902554000000237,1.1022331999997732,0.0,heond,pseudo,
187,s262,187,would,wo,ou,ul,ld,w,o,u,l,d,,0.5862176000000545,0.7221961000000192,0.7781620999999177,1.0183586000002833,1.1381913000000168,0.0,would,highwf,
188,s262,188,druze,dr,ru,uz,ze,d,r,u,z,e,,0.629895999999917,0.7819260000001123,0.9181221000003461,1.0139744000002793,1.1500411000001804,0.0,druze,lowwf,
189,s262,189,vodka,vo,od,dk,ka,v,o,d,k,a,,0.5941396000002896,0.6902049000000261,0.7862334000001283,0.8902030000003833,0.9781942000004165,0.0,vodka,medwf,
190,s262,190,champ,ch,ha,am,mp,c,h,a,m,p,,0.5741720999999416,0.7021572999997261,0.7981636999998045,0.9581711999999243,1.0142101999999795,0.0,champ,medwf,
191,s262,191,edthe,ed,dt,th,he,e,d,t,h,e,,0.5541172999996888,0.7382188999999926,0.9301406999998107,1.0502498000000742,1.114134699999795,0.0,edthe,pseudo,
192,s262,192,druze,dr,ru,uz,ze,d,r,u,z,e,,0.5660103000000163,0.7501333000000159,0.8623483999999735,0.982149699999809,1.1421222999997553,0.0,druze,lowwf,
193,s262,193,would,wo,ou,ul,ld,w,o,u,l,d,,0.5780620000000454,0.7540948999999273,0.8100952999998299,1.0661229000002095,1.114006100000097,0.0,would,highwf,
194,s262,194,therm,th,he,er,rm,t,h,e,r,m,,0.7259888999997202,0.8460180999995828,0.9100122999998348,0.9659529999998995,1.1179859999997461,0.0,therm,lowwf,
195,s262,195,cheer,ch,he,ee,er,c,h,e,e,r,,0.5459588999997322,0.6899805999996715,0.7939063999997416,0.9220080000000053,1.01786919999995,0.0,cheer,medwf,
196,s262,196,heond,he,eo,on,nd,h,e,o,d,,,0.7339517000000342,0.8058893000002172,0.9339137000001756,1.1339962000001833,0.0,0.0,heod,pseudo,
197,s262,197,cooed,co,oo,oe,ed,c,o,o,e,d,,0.7379361000002973,0.857814800000142,0.9858856000000742,1.0898590000001604,1.1618094999998902,0.0,cooed,lowwf,
198,s262,198,cheer,ch,he,ee,er,c,h,e,e,r,,0.5658313999997517,0.7017777999999453,0.8059233999997559,0.9417695000001913,1.005855899999915,0.0,cheer,medwf,
199,s262,199,about,ab,bo,ou,ut,a,b,o,u,t,,0.465887500000008,0.6738327000002755,0.7776880000001256,0.8258374000001822,0.9377643000002536,0.0,about,highwf,
200,s262,200,belly,be,el,ll,ly,b,e,l,l,y,,0.6217105999999148,0.7576788999999735,0.8376944999999978,0.9658122000000731,1.0616746000000603,0.0,belly,medwf,
201,s262,201,pykka,py,yk,kk,ka,p,y,k,k,a,,0.5457519999999931,0.7696986999999353,0.9136834000000817,1.0339170000002014,1.0976321000002827,0.0,pykka,pseudo,
202,s262,202,kremp,kr,re,em,mp,k,r,e,m,p,,0.7657014999999774,0.9018997999996827,0.9897079999996095,1.0296652999995786,1.1416800999995758,0.0,kremp,pseudo,
203,s262,203,belly,be,el,ll,ly,b,e,l,l,y,,0.7857238000001416,0.9056335999998737,0.985645900000236,1.1216180999999779,1.2176389999999628,0.0,belly,medwf,
204,s262,204,faqir,fa,aq,qi,ir,f,a,q,i,r,,0.7736323999997694,0.9416304000001219,1.149634800000058,1.2937449999999444,1.4057084000000941,0.0,faqir,lowwf,
205,s262,205,champ,ch,ha,am,mp,c,a,h,m,p,,0.5216559999998935,0.6095280999998067,0.7055620000000999,1.3056821000000127,1.3936131999998906,0.0,cahmp,medwf,
206,s262,206,theme,th,he,em,me,t,h,e,m,e,,0.6215726999998878,0.693583100000069,0.8294528999999784,0.9334810000000289,0.9894306000001052,0.0,theme,medwf,
207,s262,207,lucky,lu,uc,ck,ky,l,u,c,k,y,,0.5455534000002444,0.7295250000001943,0.8894371000001229,0.9694094999999834,1.145629000000099,0.0,lucky,highwf,
208,s262,208,about,ab,bo,ou,ut,a,b,o,u,t,,0.4613036999999167,0.6613443000001098,0.7814167999999881,0.8453935000002275,0.941348900000321,0.0,about,highwf,
209,s262,209,cooed,co,oo,oe,ed,c,o,o,e,d,,0.5053601999998136,0.6495497999999316,0.7533287999999629,0.8415042999999969,0.9373860999999124,0.0,cooed,lowwf,
210,s262,210,puppy,pu,up,pp,py,p,u,p,p,y,,0.8132990999997673,1.0374348999998801,1.1973745999998755,1.3252674999998817,1.4372907999995732,0.0,puppy,medwf,
211,s262,211,think,th,hi,in,nk,t,h,i,n,k,,0.6014905000001818,0.6894075999998677,0.7534614999999576,0.8893877999998949,0.9774053000001004,0.0,think,highwf,
212,s262,212,haole,ha,ao,ol,le,h,a,o,l,e,,0.5492766000002121,0.6692793000001984,0.7734480000003714,0.9333796000000802,1.0052687000002152,0.0,haole,lowwf,
213,s262,213,there,th,he,er,re,t,h,e,r,e,,0.7533561000000191,0.8412309000000278,0.9132174000001214,0.9852393999999549,1.0892361000001074,0.0,there,highwf,
214,s262,214,edthe,ed,dt,th,he,e,d,t,h,e,,0.5093456999998125,0.6852442999997947,0.9093426999997973,1.0372592999997323,1.101370699999734,0.0,edthe,pseudo,
215,s262,215,lucky,lu,uc,ck,ky,l,u,c,k,y,,0.6333143000001655,0.8173851999999897,0.977276300000085,1.04933630000005,1.2412609000002703,0.0,lucky,highwf,
216,s262,216,kremp,kr,re,em,mp,k,r,e,m,p,,0.9572430999996868,1.0612562999999682,1.1492063000000599,1.2212486999997054,1.3332072999996853,0.0,kremp,pseudo,
217,s262,217,vodka,vo,od,dk,ka,v,o,d,k,a,,0.6171736999999666,0.7289608999999473,0.8248520000001918,0.9369836999999279,1.0249656999999388,0.0,vodka,medwf,
218,s262,218,would,wo,ou,ul,ld,w,o,u,l,d,,0.5810391999998501,0.7010718000001361,0.7650352999999086,1.0050433999999768,1.0450707999998485,0.0,would,highwf,
219,s262,219,theme,th,he,em,me,t,h,e,m,e,,0.5530913000002329,0.6411025000002155,0.7690761000003477,0.8491382000001977,0.9212317000001349,0.0,theme,medwf,
220,s262,220,faqir,fa,aq,qi,ir,f,a,q,i,r,,0.8132385999997496,0.9091878999997789,1.1250680999996803,1.2370716000000357,1.3650886000000355,0.0,faqir,lowwf,
221,s262,221,vanru,va,an,nr,ru,v,a,n,r,u,,0.7450323999996726,0.889086899999711,0.9850374999996347,1.1289875999996184,1.2411652999999205,0.0,vanru,pseudo,
222,s262,222,theme,th,he,em,me,t,h,e,m,e,,0.829004299999724,0.9330135000000155,1.0529668999997739,1.1410754999997152,1.2130828999997902,0.0,theme,medwf,
223,s262,223,belly,be,el,ll,ly,b,e,l,l,y,,0.6489639999999781,0.7929981000002044,0.8569681000003584,1.000938700000006,1.0968824000001405,0.0,belly,medwf,
224,s262,224,think,th,hi,in,nk,t,h,i,n,k,,0.6530240000001868,0.7890009000002465,0.9009463000002143,1.0049902999999176,1.0928947000002154,0.0,think,highwf,
225,s262,225,vanru,va,an,nr,ru,v,a,n,r,u,,0.5849371999997857,0.7288668999999572,0.8169757999999092,0.9690590000000157,1.0729763999997886,0.0,vanru,pseudo,
226,s262,226,pykka,py,yk,kk,ka,p,y,k,k,a,,0.6368658000001233,0.8689499000001888,0.9968191000002662,1.1249434999999721,1.2128464000002168,0.0,pykka,pseudo,
227,s262,227,edthe,ed,dt,th,he,e,d,t,h,e,,0.5928843000001507,0.7529193000000305,1.0172017999998388,1.1208587999999509,1.2009913000001688,0.0,edthe,pseudo,
228,s262,228,vanru,va,an,nr,ru,v,a,n,r,u,,0.5170673999996325,0.6448980999998639,0.7489182999997865,0.8928756999998768,1.03686289999996,0.0,vanru,pseudo,
229,s262,229,heond,he,eo,on,nd,h,e,o,n,d,,0.6087539999998626,0.6887991999997212,0.8010111999997207,0.8647399999999834,0.9928608000000168,0.0,heond,pseudo,
230,s262,230,about,ab,bo,ou,ut,a,b,o,u,t,,0.46874479999996765,0.6687772999998742,0.7647173999998813,0.8446544999997059,0.9327518999998574,0.0,about,highwf,
231,s262,231,pykka,py,yk,kk,ka,p,y,k,k,a,,0.577078100000108,0.7767438999999285,0.8966279999999642,1.0407586000001174,1.216667199999847,0.0,pykka,pseudo,
232,s262,232,buddy,bu,ud,dd,dy,b,u,d,d,y,,0.5646477000000232,0.6847259999999551,0.8046888999997464,0.9486105999999381,1.1486924999999246,0.0,buddy,highwf,
233,s262,233,zibja,zi,ib,bj,ja,z,i,b,j,a,,0.5606349000004229,0.6965761000001294,1.1206161000000066,1.3045875000002525,1.3766930000001594,0.0,zibja,pseudo,
234,s262,234,therm,th,he,er,rm,t,h,e,r,m,,0.5966088999998647,0.6927003999999215,0.8046823999998196,0.8606337999999596,0.9727370999999039,0.0,therm,lowwf,
235,s262,235,cooed,co,oo,oe,ed,c,o,o,e,d,,0.5445395000001554,0.6645505000001322,0.7685808999999608,0.8966218000000481,0.9685517000002619,0.0,cooed,lowwf,
236,s262,236,heond,he,eo,on,nd,h,e,o,n,d,,0.6125280999999632,0.7405266999999185,0.8525349999999889,0.916509700000006,1.004500999999891,0.0,heond,pseudo,
237,s262,237,champ,ch,ha,am,mp,c,h,a,m,p,,0.6007786000000124,0.7124770999998873,0.8324336999999105,0.9286269999997785,1.0405676999998832,0.0,champ,medwf,
238,s262,238,tithe,ti,it,th,he,t,i,t,h,e,,0.5084726000000046,0.6763897000000725,0.8045494000002691,0.8924387000001843,0.9964509999999791,0.0,tithe,lowwf,
239,s262,239,haole,ha,ao,ol,le,h,a,o,l,e,,0.6724263999999494,0.824421099999654,0.9524163999999473,1.1204413000000386,1.1683705999998892,0.0,haole,lowwf,
