,sID,Trial #,string,bi_1,bi_2,bi_3,bi_4,key_resp.keys.1,key_resp.keys.2,key_resp.keys.3,key_resp.keys.4,key_resp.keys.5,key_resp.keys.6,key_resp.keys.7,key_resp.rt.1,key_resp.rt.2,key_resp.rt.3,key_resp.rt.4,key_resp.rt.5,key_resp.rt.6,key_resp.rt.7,resp_string,WF Type,BF Type
0,s263,0,champ,ch,ha,am,mp,c,h,a,m,p,,,0.8985046999296173,1.0182622999418527,1.1782839000225067,1.346375499968417,1.562373899971135,0.0,0.0,champ,medwf,
1,s263,1,there,th,he,er,re,t,h,e,r,e,,,0.84673190000467,0.9827225001063198,1.0947351000504568,1.2226232000393793,1.366703400039114,0.0,0.0,there,highwf,
2,s263,2,champ,ch,ha,am,mp,c,h,a,m,p,,,0.7947509998921305,0.9067102998960763,1.2987208999693394,1.4588033999316394,1.9867618998978287,0.0,0.0,champ,medwf,
3,s263,3,tithe,ti,it,th,he,t,i,t,h,e,,,0.8303584000095725,1.2225040000630543,1.3344828999834135,1.4143338000867516,1.5823217000579461,0.0,0.0,tithe,lowwf,
4,s263,4,lucky,lu,uc,ck,ky,l,u,c,k,y,,,0.9628100000554696,1.1546567000914365,1.266606600023806,1.4027465000981465,1.714749800041318,0.0,0.0,lucky,highwf,
5,s263,5,theme,th,he,em,me,t,h,e,m,e,,,0.6946595999179408,0.8145803998922929,0.9587013999698684,1.094609099905938,1.2146505999844521,0.0,0.0,theme,medwf,
6,s263,6,therm,th,he,er,rm,t,h,e,r,m,,,0.6664401999441907,0.770422299974598,0.9545151999918744,1.1224587999749929,1.3144988999702036,0.0,0.0,therm,lowwf,
7,s263,7,tithe,ti,it,th,he,t,i,t,h,e,,,0.7023387000663206,0.8865058000665158,1.022476900019683,1.054395499988459,1.2543180000502616,0.0,0.0,tithe,lowwf,
8,s263,8,druze,dr,ru,uz,ze,d,r,u,z,e,,,0.9541753999656066,1.13021720002871,1.2662649999838322,1.762369200005196,2.074367900029756,0.0,0.0,druze,lowwf,
9,s263,9,faqir,fa,aq,qi,ir,f,a,q,i,r,,,1.1422839000588283,1.758442800026387,2.0623290999792516,2.9504285999573767,3.21428770001512,0.0,0.0,faqir,lowwf,
10,s263,10,therm,th,he,er,rm,t,h,e,r,m,,,0.7066252999939024,0.8106419999385253,0.9864770999411121,1.2105037999572232,1.338893000036478,0.0,0.0,therm,lowwf,
11,s263,11,cooed,co,oo,oe,ed,c,o,o,e,d,,,0.9508994000498205,1.2305513999890536,1.366559399990365,1.5106140000279993,1.678557200008072,0.0,0.0,cooed,lowwf,
12,s263,12,about,ab,bo,ou,ut,a,b,u,t,,,,0.7705024000024423,0.898462799959816,1.1466628999914974,1.314435699954629,0.0,0.0,0.0,abut,highwf,
13,s263,13,puppy,pu,up,pp,py,p,u,p,p,y,,,0.9749085999792442,1.174742899951525,1.4546256000176072,1.5905515999766067,1.6787328000646085,0.0,0.0,puppy,medwf,
14,s263,14,cheer,ch,he,ee,er,c,h,e,e,r,,,0.8343909999821335,0.962398900068365,1.1864557000808418,1.3224110000301152,1.4503888000035658,0.0,0.0,cheer,medwf,
15,s263,15,haole,ha,ao,ol,le,h,a,o,l,e,,,0.9101902000838891,1.1262363999849185,1.350527200032957,1.5102744000032544,1.6145399999804795,0.0,0.0,haole,lowwf,
16,s263,16,edthe,ed,dt,th,he,e,d,t,h,e,,,0.9383535999804735,1.1303917999612167,1.3304212000221014,1.4264036000240594,1.5144918999867514,0.0,0.0,edthe,pseudo,
17,s263,17,pykka,py,yk,kk,ka,p,y,k,k,a,,,1.1345649999566376,1.3984440000494942,1.7263456999789923,1.8463563000550494,2.0784606999950483,0.0,0.0,pykka,pseudo,
18,s263,18,lucky,lu,uc,ck,ky,l,u,k,y,,,,0.9863628000020981,1.2184294000035152,1.4904253999702632,2.9625866999849677,0.0,0.0,0.0,luky,highwf,
19,s263,19,zibja,zi,ib,bj,ja,z,i,b,j,a,,,1.1662574999500066,1.326423899969086,1.5424703999888152,1.8703888000454754,2.006391800008714,0.0,0.0,zibja,pseudo,
20,s263,20,haole,ha,ao,ol,le,h,a,o,l,e,,,1.0104324000421911,1.2342592999339104,1.4824209000216797,1.6584532000124454,1.826270499965176,0.0,0.0,haole,lowwf,
21,s263,21,cheer,ch,he,ee,er,c,h,e,e,r,,,0.8779713999247178,1.0060077999951318,1.1660359998932108,1.5180529999779537,1.66196850000415,0.0,0.0,cheer,medwf,
22,s263,22,vanru,va,an,nr,ru,v,a,n,r,u,,,1.0422755000181496,1.1704483000794426,1.3703906000591815,1.8663888000883162,1.9862393999937922,0.0,0.0,vanru,pseudo,
23,s263,23,about,ab,bo,ou,ut,a,b,o,u,t,,,0.9182629999704659,1.086147699970752,1.2941760999383405,1.4622707999078557,1.5741843999130651,0.0,0.0,about,highwf,
24,s263,24,zibja,zi,ib,bj,ja,z,i,b,j,a,,,1.1382547999965027,1.354257999919355,1.5704923999728635,1.7382636999245733,1.8822636998957023,0.0,0.0,zibja,pseudo,
25,s263,25,kremp,kr,re,em,mp,k,r,e,m,p,,,1.1981716000009328,1.3742694000247866,1.534110500011593,2.0702495999867097,2.2541670000646263,0.0,0.0,kremp,pseudo,
26,s263,26,belly,be,el,ll,ly,b,e,l,l,y,,,0.9703177000628784,1.130356500041671,1.4421786000020802,1.5701836000662297,1.7381484999787062,0.0,0.0,belly,medwf,
27,s263,27,tithe,ti,it,th,he,t,i,t,h,e,,,0.9821661999449134,1.1021437000017613,1.2142376999836415,1.3021425999468192,1.4463372000027448,0.0,0.0,tithe,lowwf,
28,s263,28,theme,th,he,em,me,t,h,e,m,e,,,0.658177400007844,0.7541420001070946,0.8980454000411555,1.0180815000785515,1.1221598000265658,0.0,0.0,theme,medwf,
29,s263,29,lucky,lu,uc,ck,ky,l,u,c,k,y,,,0.8380901999771595,1.062247599940747,1.2700207999441773,1.3660366999683902,1.5580893999431282,0.0,0.0,lucky,highwf,
30,s263,30,cooed,co,oo,oe,ed,c,o,o,e,d,,,0.8980690999887884,1.1140992000000551,1.2501798999728635,1.3860256999032572,1.5383473999099806,0.0,0.0,cooed,lowwf,
31,s263,31,edthe,ed,dt,th,he,e,d,t,h,e,,,0.8701003000605851,1.0380355999805033,1.2299962000688538,1.3100379999959841,1.4299984000390396,0.0,0.0,edthe,pseudo,
32,s263,32,buddy,bu,ud,dd,dy,b,u,d,d,y,,,0.8021778000984341,0.9780568000860512,1.105994600104168,1.242018699995242,1.3781293000793085,0.0,0.0,buddy,highwf,
33,s263,33,puppy,pu,up,pp,py,p,u,p,p,y,,,1.005630400031805,1.2217733999714255,1.501897000009194,1.6536881999345496,1.7656051999656484,0.0,0.0,puppy,medwf,
34,s263,34,would,wo,ou,ul,ld,w,o,u,l,d,,,0.9859299000818282,1.1619453000603244,1.2981692000757903,1.482126299990341,1.690116300014779,0.0,0.0,would,highwf,
35,s263,35,zibja,zi,ib,bj,ja,z,i,b,j,a,,,1.4459086999995634,1.5738991999533027,2.070026599918492,2.245851399959065,2.4139888999052346,0.0,0.0,zibja,pseudo,
36,s263,36,vodka,vo,od,dk,ka,v,o,d,k,a,,,0.9459074001060799,1.089979900047183,1.3539302001008764,1.506071100011468,1.6178942000260577,0.0,0.0,vodka,medwf,
37,s263,37,haole,ha,ao,ol,le,h,a,o,l,e,,,0.9020126999821514,1.0700574000366032,1.5100675000576302,1.709978900034912,1.8058858000440523,0.0,0.0,haole,lowwf,
38,s263,38,heond,he,eo,on,nd,h,e,o,n,d,,,0.8740134999388829,1.362493499997072,1.5058290999149904,1.770035699941218,1.9939878999721259,0.0,0.0,heond,pseudo,
39,s263,39,vanru,va,an,nr,ru,v,a,n,r,u,,,0.8380699999397621,1.005929599981755,1.1181529000168666,1.2779806000180542,1.405956899980083,0.0,0.0,vanru,pseudo,
40,s263,40,there,th,he,er,re,t,h,e,r,e,,,0.777828500024043,0.8898759000003338,0.9858623000327498,1.1138428000267595,1.2499628000659868,0.0,0.0,there,highwf,
41,s263,41,would,wo,ou,ul,ld,w,o,u,l,d,,,0.9739630999974906,1.3343591000884771,1.5417884000344202,1.861815300071612,1.9499069000594318,0.0,0.0,would,highwf,
42,s263,42,haole,ha,ao,ol,le,h,a,o,l,e,,,0.8498318999772891,0.937853500014171,1.0979128000326455,1.28174680005759,1.3937983000651002,0.0,0.0,haole,lowwf,
43,s263,43,would,wo,ou,ul,ld,w,o,u,l,d,,,0.9259322000434622,1.069757999968715,1.1736905999714509,1.3897954999702051,1.4777194999624044,0.0,0.0,would,highwf,
44,s263,44,puppy,pu,up,pp,py,p,u,p,p,y,,,1.073842899990268,1.289751600008458,1.5456986000062898,1.68972079991363,1.7776329999323934,0.0,0.0,puppy,medwf,
45,s263,45,druze,dr,ru,uz,ze,d,d,r,r,u,s,e,0.9098781999200583,1.0376752999145538,1.061638499959372,1.6938957999227569,2.693702799966559,2.781891099992208,2.965785599895753,ddrruse,lowwf,
46,s263,46,think,th,hi,in,nk,t,h,i,n,k,,,0.8736559000099078,0.9697718999814242,1.1217628000304103,1.2818534999387339,1.38578749995213,0.0,0.0,think,highwf,
47,s263,47,kremp,kr,re,em,mp,k,r,e,m,p,,,0.9417996999109164,1.037726099952124,1.1896291999146342,1.325608899933286,1.4458315999945626,0.0,0.0,kremp,pseudo,
48,s263,48,tithe,ti,it,th,he,t,i,h,t,e,,,0.841838699998334,1.0016514000017196,1.105598199996166,2.4016889999620616,3.289701299974695,0.0,0.0,tihte,lowwf,
49,s263,49,buddy,bu,ud,dd,dy,n,u,d,d,y,,,1.365818400052376,1.4855619999580085,1.5976641000015661,1.7417144000064582,1.9097122000530362,0.0,0.0,nuddy,highwf,
50,s263,50,there,th,he,er,re,t,h,e,r,e,,,0.8255218000849709,0.9374738000333309,1.0335867000976577,1.1695342999882996,1.2255352000938728,0.0,0.0,there,highwf,
51,s263,51,druze,dr,ru,uz,ze,d,r,u,z,e,,,1.0297290000598878,1.1896571000106633,1.9575165000278503,2.0135611000005156,2.229450899991207,0.0,0.0,druze,lowwf,
52,s263,52,cooed,co,oo,oe,ed,c,o,o,e,d,,,1.1615988000994548,1.5694779000477865,1.7135696000186726,1.8574736000737175,2.02549520006869,0.0,0.0,cooed,lowwf,
53,s263,53,druze,dr,ru,uz,ze,d,r,u,z,e,,,0.8055871999822557,1.0615874000359327,1.52560439996887,1.6856149999657646,1.9414614000124857,0.0,0.0,druze,lowwf,
54,s263,54,think,th,hi,in,nk,t,h,i,n,k,,,0.8336642000358552,1.0013980999356136,1.2337404999416322,1.377406199928373,1.5614954000338912,0.0,0.0,think,highwf,
55,s263,55,about,ab,bo,ou,ut,a,s,b,o,u,t,,0.7895489999791607,0.7895489999791607,1.4454961000010371,1.7493787000421435,1.9334541000425816,2.045255900011398,0.0,asbout,highwf,
56,s263,56,faqir,fa,aq,qi,ir,f,a,q,i,r,,,0.9536207999335602,1.8815316000254825,2.137494600028731,2.745379599975422,2.8654151000082493,0.0,0.0,faqir,lowwf,
57,s263,57,cheer,ch,he,ee,er,c,h,e,e,r,,,1.005455799982883,1.181442000088282,1.5414053000276908,1.8294298000400886,1.9733512999955565,0.0,0.0,cheer,medwf,
58,s263,58,kremp,kr,re,em,mp,k,r,e,m,p,,,1.0973929999163374,1.2654784999322146,1.4173865999327973,1.5773742999881506,1.7533267999533564,0.0,0.0,kremp,pseudo,
59,s263,59,heond,he,eo,on,nd,h,e,o,u,n,d,,1.1007628999650478,1.2126760999672115,1.404513599933125,1.5405707999598235,2.7245580999879166,2.852638299926184,0.0,heound,pseudo,
60,s263,60,would,wo,ou,ul,ld,w,o,u,o,l,d,,0.8734477999387309,1.08933570003137,1.2333347999956459,1.457291999948211,1.4652481999946758,1.7372979000210762,0.0,wouold,highwf,
61,s263,61,faqir,fa,aq,qi,ir,f,a,q,i,r,,,0.8372927000746131,1.1253977000014856,1.6693512999918312,1.9893271999899298,2.165274200029671,0.0,0.0,faqir,lowwf,
62,s263,62,edthe,ed,dt,th,he,e,d,t,h,e,,,0.7931545999599621,0.9773421999998391,1.1453337999992073,1.25713879999239,1.3453414000105113,0.0,0.0,edthe,pseudo,
63,s263,63,cheer,ch,he,ee,er,c,h,e,e,r,,,0.7732864000136033,0.9252790999598801,1.0531481999205425,1.2052000999683514,1.3331612999318168,0.0,0.0,cheer,medwf,
64,s263,64,pykka,py,yk,kk,ka,p,y,k,k,a,,,1.3696265000617132,1.633430500049144,1.9372710000025108,2.033257700037211,2.489213600056246,0.0,0.0,pykka,pseudo,
65,s263,65,edthe,ed,dt,th,he,e,d,t,h,a,,,0.8691690999548882,1.077310899971053,1.2132771000033244,1.3812422000337392,1.477176700020209,0.0,0.0,edtha,pseudo,
66,s263,66,champ,ch,ha,am,mp,c,h,a,m,p,,,0.8731092000380158,1.0172454999992624,1.1371352000860497,1.2811769000254571,1.4811976000200957,0.0,0.0,champ,medwf,
67,s263,67,druze,dr,ru,uz,ze,d,r,u,z,e,,,0.8530482000205666,1.3252235000254586,1.5170293999835849,1.9176213999744505,2.141063499962911,0.0,0.0,druze,lowwf,
68,s263,68,zibja,zi,ib,bj,ja,z,i,b,j,a,,,1.2490619999589399,1.3932624999433756,1.553221899899654,1.71323189989198,1.8329691999824718,0.0,0.0,zibja,pseudo,
69,s263,69,there,th,he,er,re,t,h,e,r,e,,,1.125082700047642,1.2210310000227764,1.3810701000038534,1.5890218999702483,1.7009519999846816,0.0,0.0,there,highwf,
70,s263,70,cheer,ch,he,ee,er,c,h,e,e,r,,,1.1529694999335334,1.2809815999353305,1.433061399962753,1.5929891999112442,1.721104500000365,0.0,0.0,cheer,medwf,
71,s263,71,pykka,py,yk,kk,ka,p,y,k,k,a,,,1.477046399959363,1.8371451999992132,2.2770895999856293,2.388994300039485,2.5809889000374824,0.0,0.0,pykka,pseudo,
72,s263,72,faqir,fa,aq,qi,ir,f,a,q,i,r,,,0.8568715000292286,1.1449150000698864,1.5609772000461817,1.9848914000904188,2.137042900081724,0.0,0.0,faqir,lowwf,
73,s263,73,haole,ha,ao,ol,le,h,a,o,l,e,,,0.8770271999528632,1.1089355000294745,1.3411292999517173,1.5249533000169322,1.6369800999527797,0.0,0.0,haole,lowwf,
74,s263,74,theme,th,he,em,me,t,h,e,m,e,,,0.984913400025107,1.081004000036046,1.2330693000694737,1.3369295001029968,1.4328439000528306,0.0,0.0,theme,medwf,
75,s263,75,therm,th,he,er,rm,t,h,e,r,m,,,0.820862099993974,0.9009883999824524,1.0610285999719054,1.1889684000052512,1.2128976000240073,0.0,0.0,therm,lowwf,
76,s263,76,about,ab,bo,ou,ut,a,b,o,u,t,,,0.8170011999318376,0.9128237999975681,1.0808346000267193,1.1447965999832377,1.256808599922806,0.0,0.0,about,highwf,
77,s263,77,faqir,fa,aq,qi,ir,f,a,q,i,r,,,0.7167859999462962,0.9089748000260442,1.508906599949114,1.7889675999758765,1.9247734999516979,0.0,0.0,faqir,lowwf,
78,s263,78,heond,he,eo,on,nd,h,e,o,n,d,,,0.8728214000584558,1.016959400032647,1.4409860000014305,1.5927554999943823,1.6810220000334084,0.0,0.0,heond,pseudo,
79,s263,79,theme,th,he,em,me,t,h,e,r,m,e,,0.6926854000193998,0.7807120999787003,0.9327221000567079,0.9487070000031963,1.0447114000562578,1.1327231000177562,0.0,therme,medwf,
80,s263,80,lucky,lu,uc,ck,ky,l,u,c,k,y,,,1.080668899929151,1.24067530001048,1.3448767999652773,1.4566521999659017,1.600648200022988,0.0,0.0,lucky,highwf,
81,s263,81,vodka,vo,od,dk,ka,v,o,d,k,a,,,1.0608711000531912,1.228821499971673,1.6367000000318512,1.7408556999871507,1.9167340999701992,0.0,0.0,vodka,medwf,
82,s263,82,there,th,he,er,re,t,h,e,r,e,,,0.8728289999999106,0.9848686999175698,1.0807710000080988,1.1528474999358878,1.2647727000294253,0.0,0.0,there,highwf,
83,s263,83,heond,he,eo,on,nd,h,e,o,n,d,,,1.0526973999803886,1.1486216000048444,1.3085568000096828,1.5246934000169858,1.612679300014861,0.0,0.0,heond,pseudo,
84,s263,84,buddy,bu,ud,dd,dy,b,u,d,d,y,,,0.8009885000064969,0.9285360000794753,0.9846537000266835,1.1366734000621364,1.3206526000285521,0.0,0.0,buddy,highwf,
85,s263,85,belly,be,el,ll,ly,b,e,l,l,y,,,0.820536500075832,1.0365211999742314,1.356776800006628,1.5085257000755519,1.588480000034906,0.0,0.0,belly,medwf,
86,s263,86,vanru,va,an,nr,ru,v,a,n,r,u,,,0.8084979999111965,1.0084599999245256,1.144762699957937,1.3684972999617457,1.504654899938032,0.0,0.0,vanru,pseudo,
87,s263,87,belly,be,el,ll,ly,b,e,l,l,y,,,0.8125991000561044,1.0444451000075787,1.3329414000036195,1.46043550001923,1.5804034000029787,0.0,0.0,belly,medwf,
88,s263,88,puppy,pu,up,pp,py,p,u,p,p,y,,,1.0164486999856308,1.2644537999294698,1.5285726999863982,1.6805245999712497,1.7604507999494672,0.0,0.0,puppy,medwf,
89,s263,89,kremp,kr,re,em,mp,k,r,e,m,p,,,0.8924397000810131,1.0203778001014143,1.1643789000809193,1.3007109999889508,1.4204998000059277,0.0,0.0,kremp,pseudo,
90,s263,90,theme,th,he,em,me,t,h,e,m,e,,,0.7365917999995872,0.8404798998963088,0.9925916999345645,1.096531799994409,1.2086455998942256,0.0,0.0,theme,medwf,
91,s263,91,buddy,bu,ud,dd,dy,b,u,d,d,y,,,0.764298899914138,0.900376999983564,1.0204384999815375,1.148503299918957,1.3323425999842584,0.0,0.0,buddy,highwf,
92,s263,92,cooed,co,oo,oe,ed,c,o,o,e,d,,,0.9045997998910025,1.1525736999465153,1.2883609998971224,1.3843256999971345,1.5362558999331668,0.0,0.0,cooed,lowwf,
93,s263,93,therm,th,he,er,rm,t,h,e,r,m,,,0.8364194000605494,0.940421300008893,1.0765296999597922,1.1483634000178427,1.252462700009346,0.0,0.0,therm,lowwf,
94,s263,94,would,wo,ou,ul,ld,w,o,u,l,d,,,1.0164756999583915,1.1763406000100076,1.2882607999490574,1.4883129999507219,1.608270899974741,0.0,0.0,would,highwf,
95,s263,95,belly,be,el,ll,ly,b,e,l,l,y,,,0.9562038000440225,1.164343300042674,1.4442115999991074,1.5722454000497237,1.6603112000739202,0.0,0.0,belly,medwf,
96,s263,96,vodka,vo,od,dk,ka,v,o,a,k,,,,0.9123184999916703,1.1123329000547528,2.080393100040965,2.1761956000700593,0.0,0.0,0.0,voak,medwf,
97,s263,97,zibja,zi,ib,bj,ja,z,i,b,j,a,,,1.5882739000953734,1.7403244000161067,1.9882745000068098,2.1321328000631183,2.2683508000336587,0.0,0.0,zibja,pseudo,
98,s263,98,kremp,kr,re,em,mp,k,r,e,m,p,,,0.976186600048095,1.0802531000226736,1.2003258999902755,1.2404703999636695,1.4003434999613091,0.0,0.0,kremp,pseudo,
99,s263,99,cooed,co,oo,oe,ed,c,o,o,d,,,,0.8602339999051765,1.1003469999413937,1.2841895999154076,1.5561566998949274,0.0,0.0,0.0,cood,lowwf,
100,s263,100,pykka,py,yk,kk,ka,p,y,k,k,a,,,1.280098699964583,1.5281944000162184,1.8240804999368265,1.952155299950391,2.08008909993805,0.0,0.0,pykka,pseudo,
101,s263,101,tithe,ti,it,th,he,t,i,h,t,e,,,0.7319954999256879,0.9082424999214709,1.044017200008966,1.0841352000134066,1.8842744999565184,0.0,0.0,tihte,lowwf,
102,s263,102,puppy,pu,up,pp,py,p,u,p,p,y,,,1.1679210000438616,1.4078898000298068,1.6557821000460535,1.7999249000567943,1.9519279000815004,0.0,0.0,puppy,medwf,
103,s263,103,buddy,bu,ud,dd,dy,b,u,d,d,y,,,0.9959213000256568,1.1642426999751478,1.332098999992013,1.4839302999898791,1.5959491999819875,0.0,0.0,buddy,highwf,
104,s263,104,vodka,vo,od,dk,ka,v,o,d,k,a,,,1.0480407000286505,1.6001507000764832,1.9841379000572488,2.0882161000045016,2.1998876000288874,0.0,0.0,vodka,medwf,
105,s263,105,edthe,ed,dt,th,he,e,t,h,a,s,,,0.9240838999394327,1.2119585999753326,1.3320640999590978,1.4439824000000954,1.4600993999047205,0.0,0.0,ethas,pseudo,
106,s263,106,therm,th,he,er,rm,t,h,e,r,m,,,0.7197824999457225,0.7756079999962822,0.9437697000103071,0.9996689999243245,1.11956239992287,0.0,0.0,therm,lowwf,
107,s263,107,champ,ch,ha,am,mp,c,h,a,m,p,,,0.7160179000347853,0.8358165000099689,0.9238380999304354,1.059826200013049,1.236020499956794,0.0,0.0,champ,medwf,
108,s263,108,think,th,hi,in,nk,t,h,i,n,k,,,0.7518854999216273,0.880022699944675,1.047799599939026,1.1681949999183416,1.3358342999126762,0.0,0.0,think,highwf,
109,s263,109,vanru,va,an,nr,ru,v,a,n,r,u,,,1.0279320999979973,1.1958968000253662,1.3557608000701293,1.5239248999860138,1.6358184000710025,0.0,0.0,vanru,pseudo,
110,s263,110,vodka,vo,od,dk,ka,v,o,d,k,a,,,0.9037185000488535,1.1917358000064269,1.3278024999890476,1.4318509000586346,1.5758538000518456,0.0,0.0,vodka,medwf,
111,s263,111,think,th,hi,in,nk,t,h,i,n,k,,,0.723854299983941,0.8437405000440776,0.9958702999865636,1.1077692999970168,1.259881000034511,0.0,0.0,think,highwf,
112,s263,112,belly,be,el,ll,ly,b,e,l,l,y,,,0.7277177000651136,0.9116384000517428,1.1996513000922278,1.3437411000486463,1.4396352000767365,0.0,0.0,belly,medwf,
113,s263,113,heond,he,eo,on,nd,h,e,o,n,d,,,0.8196542999939993,0.9157033999217674,1.1156820999458432,1.3477021999424323,1.4356337999925017,0.0,0.0,heond,pseudo,
114,s263,114,think,th,hi,in,nk,t,h,i,n,k,,,0.823725999915041,0.9355663999449462,1.079597899923101,1.2556703999871388,1.3915983999613672,0.0,0.0,think,highwf,
115,s263,115,champ,ch,ha,am,mp,c,h,a,m,o,,,0.851597800035961,0.9557346999645233,1.1236160999396816,1.6996640999568626,1.8515762999886647,0.0,0.0,chamo,medwf,
116,s263,116,pykka,py,yk,kk,ka,p,y,k,k,a,,,1.3829280999489129,1.7349224999779835,2.126799099962227,2.238812599913217,2.4468592999037355,0.0,0.0,pykka,pseudo,
117,s263,117,lucky,lu,uc,ck,ky,l,u,c,k,y,,,1.027556899935007,1.2996964999474585,1.4197372000198811,1.5554663999937475,1.771528200013563,0.0,0.0,lucky,highwf,
118,s263,118,vanru,va,an,nr,ru,v,c,n,r,u,,,1.0715384000213817,1.0794857000000775,1.2875133999623358,1.4554577000671998,1.4634896999923512,0.0,0.0,vcnru,pseudo,
119,s263,119,about,ab,bo,ou,ut,a,b,o,u,t,,,1.1795041000004858,1.3394357000943273,1.5555858000880107,1.6195318000391126,1.7713928000302985,0.0,0.0,about,highwf,
120,s263,120,champ,ch,ha,am,mp,c,h,a,m,p,,,1.1685698999790475,1.248801299952902,1.92059429991059,1.992524999892339,2.1686137999640778,0.0,0.0,champ,medwf,
121,s263,121,vodka,vo,od,dk,ka,v,o,d,k,a,,,0.7326734000816941,1.0765640999889001,1.2207935000769794,1.3246085999999195,1.428506200085394,0.0,0.0,vodka,medwf,
122,s263,122,would,wo,ou,ul,ld,w,o,u,l,d,,,0.8645610000239685,1.064735500025563,1.2245339000364766,1.4087040000595152,1.5446045000571758,0.0,0.0,would,highwf,
123,s263,123,tithe,ti,it,th,he,t,i,u,t,h,e,,0.748558699968271,0.8925328999757767,0.9004551999969408,0.9564952000509948,1.060492799966596,1.180604900000617,0.0,tiuthe,lowwf,
124,s263,124,about,ab,bo,ou,ut,a,b,o,u,t,,,0.7606686000945047,0.9204212001059204,1.0965867000631988,1.1685932000400499,1.3046115000033751,0.0,0.0,about,highwf,
125,s263,125,zibja,zi,ib,bj,ja,z,i,b,a,j,,,1.0604754999512807,1.1804023999720812,1.3564431000268087,1.5165364999556914,1.5885619999608025,0.0,0.0,zibaj,pseudo,
126,s263,126,druze,dr,ru,uz,ze,d,r,u,z,e,,,0.8243840999202803,1.008414699928835,1.4245208000065759,1.5763920999597758,1.7924329999368638,0.0,0.0,druze,lowwf,
127,s263,127,cheer,ch,he,ee,er,c,h,e,e,r,,,0.7405785000883043,0.916586900013499,1.0203972000163049,1.2045682000461966,1.2524778000079095,0.0,0.0,cheer,medwf,
128,s263,128,vanru,va,an,nr,ru,v,a,n,r,u,,,1.0004711999790743,1.0963003999786451,1.2642549000447616,1.840324499993585,1.9122986999573186,0.0,0.0,vanru,pseudo,
129,s263,129,kremp,kr,re,em,mp,k,r,e,m,p,,,0.8599294999148697,0.9799600999103859,1.1400131999980658,1.2439480000175536,1.3799017999554053,0.0,0.0,kremp,pseudo,
130,s263,130,there,th,he,er,re,t,h,e,r,e,,,0.7520202999003232,0.8480750999879092,0.9918708999175578,1.0958325999090448,1.248213299899362,0.0,0.0,there,highwf,
131,s263,131,pykka,py,yk,kk,ka,p,y,k,k,a,,,1.0682764999801293,1.3402372000273317,1.6681157000130042,1.804111500037834,1.9241278000408784,0.0,0.0,pykka,pseudo,
132,s263,132,edthe,ed,dt,th,he,e,d,t,h,a,s,,0.8562259000027552,1.0402256000088528,1.2003513000672683,1.360358600039035,1.4642292000353336,1.4642292000353336,0.0,edthas,pseudo,
133,s263,133,think,th,hi,in,nk,t,h,i,n,k,,,0.7240758000407368,0.9002948000561446,1.0439891000278294,1.1959957000799477,1.324284900096245,0.0,0.0,think,highwf,
134,s263,134,cooed,co,oo,oe,ed,c,o,o,e,d,,,0.9522418000269681,1.2321472000330687,1.3601260000141338,1.4960900000296533,1.6561446000123397,0.0,0.0,cooed,lowwf,
135,s263,135,therm,th,he,er,rm,t,h,e,r,m,,,0.6200338000198826,0.7000671001151204,0.8600293000927195,1.1239193000365049,1.2041291000787169,0.0,0.0,therm,lowwf,
136,s263,136,lucky,lu,uc,ck,ky,l,u,c,k,y,,,1.431946499971673,1.6479722999501973,1.8719004999147728,2.039938599918969,2.2079236999852583,0.0,0.0,lucky,highwf,
137,s263,137,edthe,ed,dt,th,he,e,d,t,h,a,s,,0.8280931999906898,1.0040600000647828,1.1481310999952257,1.2841668000910431,1.3640272000338882,1.388024999992922,0.0,edthas,pseudo,
138,s263,138,druze,dr,ru,uz,ze,d,r,u,z,e,,,0.8397139000007883,1.0236059000017121,1.447819699998945,1.5515956999734044,1.759647099999711,0.0,0.0,druze,lowwf,
139,s263,139,vodka,vo,od,dk,ka,v,o,d,k,a,,,0.9240813999203965,1.2120158999459818,1.396108299959451,1.4760863999836147,1.63604419992771,0.0,0.0,vodka,medwf,
140,s263,140,puppy,pu,up,pp,py,p,u,p,p,y,,,1.4636241000844166,1.727733200066723,2.039626100100577,2.1915798000991344,2.4077339000068605,0.0,0.0,puppy,medwf,
141,s263,141,cooed,co,oo,oe,ed,c,o,o,e,d,,,1.0917274000821635,1.3476047000149265,1.5076684000669047,1.5957533000037074,1.7716587000759318,0.0,0.0,cooed,lowwf,
142,s263,142,zibja,zi,ib,bj,ja,z,i,b,j,a,,,1.7198879999341443,1.8878464999143034,2.0318457999965176,2.2318634999683127,2.704058100003749,0.0,0.0,zibja,pseudo,
143,s263,143,heond,he,eo,on,nd,h,e,n,d,,,,1.0679350999416783,1.2277794999536127,1.4997972999699414,2.4597621998982504,0.0,0.0,0.0,hend,pseudo,
144,s263,144,think,th,hi,in,nk,t,h,i,n,k,,,0.9198103999951854,1.095752299996093,1.1355874999426305,1.3756360999541357,1.4236730999546126,0.0,0.0,think,highwf,
145,s263,145,belly,be,el,ll,ly,b,e,l,l,y,,,0.8677406000206247,1.003730500000529,1.3159702999982983,1.4597798000322655,1.5478307999437675,0.0,0.0,belly,medwf,
146,s263,146,think,th,hi,in,nk,t,h,i,n,k,,,0.7118983999826014,0.8637356999097392,1.0158187999622896,1.1358032999560237,1.2879547999473289,0.0,0.0,think,highwf,
147,s263,147,lucky,lu,uc,ck,ky,l,u,c,k,y,,,1.0198383999522775,1.227807900053449,1.4117499999701977,1.5876863000448793,1.8037708000047132,0.0,0.0,lucky,highwf,
148,s263,148,zibja,zi,ib,bj,ja,z,i,b,j,a,,,1.231804299983196,1.4316448000026867,1.5997324000345543,1.7917241000104696,1.9198177000507712,0.0,0.0,zibja,pseudo,
149,s263,149,puppy,pu,up,pp,py,p,u,p,p,y,,,0.923656800063327,1.155793400015682,1.339588199974969,1.4757076000096276,1.5716018000384793,0.0,0.0,puppy,medwf,
150,s263,150,buddy,bu,ud,dd,dy,n,u,d,d,y,,,1.1758394000353292,1.567665099981241,1.7836305999662727,1.9357550999848172,2.135636299964972,0.0,0.0,nuddy,highwf,
151,s263,151,pykka,py,yk,kk,ka,p,y,k,k,a,,,1.443520599976182,1.7235827000113204,2.4915677999379113,2.6515417000046,2.8277736000018194,0.0,0.0,pykka,pseudo,
152,s263,152,cheer,ch,he,ee,er,c,h,e,e,r,,,0.8797008000547066,1.0396348000504076,1.4475768000120297,1.5997334000421688,1.7596654000226408,0.0,0.0,cheer,medwf,
153,s263,153,theme,th,he,em,me,t,h,e,m,e,,,0.76351719989907,0.8839833999518305,1.3556356999324635,1.4114830999169499,1.531569299986586,0.0,0.0,theme,medwf,
154,s263,154,puppy,pu,up,pp,py,p,u,p,p,y,,,1.0158057999797165,1.2315270999679342,1.6716003000037745,1.8074114000191912,1.9354412000393495,0.0,0.0,puppy,medwf,
155,s263,155,would,wo,ou,ul,ld,w,o,u,l,d,,,1.1634399000322446,1.291436200030148,1.475392400054261,1.6753978000488132,1.7553743000607938,0.0,0.0,would,highwf,
156,s263,156,buddy,bu,ud,dd,dy,b,u,d,d,y,,,1.0633773999288678,1.151499499916099,1.2713554999791086,1.4315716999117285,1.5115788999246433,0.0,0.0,buddy,highwf,
157,s263,157,would,wo,ou,ul,ld,w,o,u,l,d,,,1.4195917999604717,1.571566900005564,1.7075080999638885,1.9873451999155805,2.1153715999098495,0.0,0.0,would,highwf,
158,s263,158,champ,ch,ha,am,mp,c,h,a,m,o,,,0.9193326999666169,1.015315099968575,1.1513011999195442,1.6072395999217406,1.8234871999593452,0.0,0.0,chamo,medwf,
159,s263,159,puppy,pu,up,pp,py,p,u,p,p,y,,,1.2672795999096707,1.603244199999608,1.891252200002782,2.0354168999474496,2.1073644999414682,0.0,0.0,puppy,medwf,
160,s263,160,druze,dr,ru,uz,ze,d,r,u,z,e,,,0.9592980000888929,1.1437134000007063,1.3112408000743017,1.8473776000319049,2.1832112000556663,0.0,0.0,druze,lowwf,
161,s263,161,edthe,ed,dt,th,he,e,d,t,h,e,,,0.8353633999358863,1.035327299963683,1.187243500025943,1.3151684999465942,1.4192998999496922,0.0,0.0,edthe,pseudo,
162,s263,162,there,th,he,er,re,t,h,e,r,e,r,,0.7753318999893963,0.863134799990803,0.9835197000065818,1.1351109000388533,1.2071728999726474,1.3112514000386,0.0,therer,highwf,
163,s263,163,vodka,vo,od,dk,ka,v,o,d,k,a,,,1.555283599998802,1.8754126999992877,2.0031143999658525,2.0991945998976007,2.2112028999254107,0.0,0.0,vodka,medwf,
164,s263,164,pykka,py,yk,kk,ka,p,y,k,k,a,,,1.0311192000517622,1.4472883000271395,1.8151249999646097,1.9432526000309736,2.071113600046374,0.0,0.0,pykka,pseudo,
165,s263,165,tithe,ti,it,th,he,t,i,t,h,e,,,0.7872268999926746,0.9310144999762997,1.0271818999899551,1.059125200030394,1.2350672000320628,0.0,0.0,tithe,lowwf,
166,s263,166,about,ab,bo,ou,ut,a,b,o,u,t,,,0.7511316000018269,0.8630109999794513,1.0711869999067858,1.151009599911049,1.335013399948366,0.0,0.0,about,highwf,
167,s263,167,heond,he,eo,on,nd,h,e,o,n,d,,,1.4670445000519976,1.6111513000214472,1.7631073000375181,1.9070301000028849,2.0750681000063196,0.0,0.0,heond,pseudo,
168,s263,168,champ,ch,ha,am,mp,c,h,a,m,o,p,,0.9829805000917986,1.0791890000691637,1.2790978000266477,1.3830108999973163,1.583172500017099,1.583172500017099,0.0,chamop,medwf,
169,s263,169,vodka,vo,od,dk,ka,v,o,d,k,a,,,0.987078299978748,1.16296559991315,1.3791746998904273,1.5389349999604747,1.682873799931258,0.0,0.0,vodka,medwf,
170,s263,170,there,th,he,er,re,t,h,e,r,e,,,0.7189516000216827,0.8149137999862432,0.9188713000621647,1.022956300061196,1.5190678000217304,0.0,0.0,there,highwf,
171,s263,171,zibja,zi,ib,bj,ja,z,i,b,j,a,,,1.282943999976851,1.6109771999763325,2.186843500006944,2.34686009993311,2.466953699942678,0.0,0.0,zibja,pseudo,
172,s263,172,heond,he,eo,on,nd,h,e,o,n,d,,,1.1668774000136182,1.2629650000017136,1.6309299999848008,1.7588740999344736,1.9108445999445394,0.0,0.0,heond,pseudo,
173,s263,173,tithe,ti,it,th,he,t,i,h,t,e,,,1.0507521000690758,1.1388455000706017,1.2588525000028312,1.266800600104034,1.4587868000380695,0.0,0.0,tihte,lowwf,
174,s263,174,kremp,kr,re,em,mp,k,r,e,m,p,,,0.9988425000337884,1.0947974000591785,1.2469203000655398,1.2948653000639752,1.4708383000688627,0.0,0.0,kremp,pseudo,
175,s263,175,theme,th,he,em,me,t,h,e,m,e,,,0.9067284000338987,1.0028782000299543,1.3947419000323862,1.498765500029549,1.5867041000165045,0.0,0.0,theme,medwf,
176,s263,176,druze,dr,ru,uz,ze,d,r,u,z,e,,,0.8227403999771923,0.9908294000197202,1.262945199967362,1.4306143000721931,1.6547434000531211,0.0,0.0,druze,lowwf,
177,s263,177,therm,th,he,er,rm,t,h,e,r,m,,,0.794816100038588,0.906788400025107,1.010679900064133,1.0586871000705287,1.1867242000298575,0.0,0.0,therm,lowwf,
178,s263,178,belly,be,el,ll,ly,b,e,l,l,y,,,1.2385916999774054,1.4065949000651017,1.8866359000094235,2.022707000025548,2.142654599971138,0.0,0.0,belly,medwf,
179,s263,179,faqir,fa,aq,qi,ir,f,a,q,i,r,,,1.058820700040087,1.1305258000502363,2.3305462000425905,2.754532300052233,2.8425990999676287,0.0,0.0,faqir,lowwf,
180,s263,180,theme,th,he,em,me,t,h,e,m,e,,,0.7585278000915423,0.846580300014466,0.9985652000177652,1.1105601000599563,1.1905455000232905,0.0,0.0,theme,medwf,
181,s263,181,haole,ha,ao,ol,le,h,a,o,l,e,,,0.8746756999753416,1.0104671999579296,1.26651290000882,1.450728000025265,1.5384671000065282,0.0,0.0,haole,lowwf,
182,s263,182,edthe,ed,dt,th,he,e,d,t,h,e,,,1.046563500072807,1.2705735000781715,1.614627500064671,1.710480900015682,1.9185175000457093,0.0,0.0,edthe,pseudo,
183,s263,183,belly,be,el,ll,ly,b,e,l,l,y,,,0.7544520000228658,0.8904826000798494,1.2346006000880152,1.3866113000549376,1.4743660000385717,0.0,0.0,belly,medwf,
184,s263,184,would,wo,ou,ul,ld,w,o,u,l,d,,,1.054588400060311,1.2224518000148237,1.3584584000054747,1.5584446999710053,1.8626041000243276,0.0,0.0,would,highwf,
185,s263,185,lucky,lu,uc,ck,ky,l,c,k,y,,,,1.090392200043425,1.6105427000438794,2.1463013000320643,2.266297099995427,0.0,0.0,0.0,lcky,highwf,
186,s263,186,pykka,py,yk,kk,ka,p,y,k,k,a,,,1.2544005999807268,1.7263423000695184,2.158389599993825,2.2943466000724584,2.4864744000369683,0.0,0.0,pykka,pseudo,
187,s263,187,cheer,ch,he,ee,er,c,h,e,e,r,,,0.8423778999131173,0.9622908999444917,1.050657199928537,1.2663544999668375,1.4664415000006557,0.0,0.0,cheer,medwf,
188,s263,188,about,ab,bo,ou,ut,a,b,o,u,t,,,1.222269200021401,1.302271099993959,1.518436299986206,1.5423339999979362,1.7344368000049144,0.0,0.0,about,highwf,
189,s263,189,theme,th,he,em,me,t,h,e,m,e,,,0.8504116999683902,0.9142635999014601,1.1063986999215558,1.2102611999725923,1.322199699934572,0.0,0.0,theme,medwf,
190,s263,190,buddy,bu,ud,dd,dy,b,u,d,d,y,,,0.8061311000492424,0.9505202999571338,1.0462132999673486,1.2062719999812543,1.286196600063704,0.0,0.0,buddy,highwf,
191,s263,191,zibja,zi,ib,bj,ja,z,i,b,j,a,,,1.09029720001854,1.2901772999903187,1.5141923000337556,1.6583479000255466,1.7701390000293031,0.0,0.0,zibja,pseudo,
192,s263,192,haole,ha,ao,ol,le,h,a,o,l,e,,,0.974314899998717,1.294228499988094,1.6382585000246763,1.846245800028555,1.966303599998355,0.0,0.0,haole,lowwf,
193,s263,193,kremp,kr,re,em,mp,k,r,e,m,o,,,1.362169099971652,1.4740318999392912,1.642044399981387,1.7379911999450997,1.9621959999203682,0.0,0.0,kremo,pseudo,
194,s263,194,vanru,va,an,nr,ru,v,a,b,r,u,,,0.8381793000735343,0.966194299980998,1.0860674000578001,1.9660431999946013,2.1900278000393882,0.0,0.0,vabru,pseudo,
195,s263,195,faqir,fa,aq,qi,ir,f,a,q,i,r,,,1.1940645999275148,1.29018879996147,1.8980453999247402,2.0581631999230012,2.186106299981475,0.0,0.0,faqir,lowwf,
196,s263,196,about,ab,bo,ou,ut,a,b,u,t,,,,0.8219726999523118,0.9020681999390945,1.1100760999834165,1.157980400021188,0.0,0.0,0.0,abut,highwf,
197,s263,197,think,th,hi,in,nk,t,h,i,n,k,,,1.0103416999336332,1.146023100009188,1.1780282999388874,1.362003599992022,1.4500009999610484,0.0,0.0,think,highwf,
198,s263,198,kremp,kr,re,em,mp,k,r,e,m,p,,,1.0619270999450237,1.1740888999775052,1.317871999926865,1.4299142999807373,1.6218856999184936,0.0,0.0,kremp,pseudo,
199,s263,199,haole,ha,ao,ol,le,h,a,o,l,e,,,0.8981078999349847,1.025956799974665,1.2098812999902293,1.3859300999902189,1.5058605000376701,0.0,0.0,haole,lowwf,
200,s263,200,faqir,fa,aq,qi,ir,f,a,q,i,r,,,0.8938282000599429,1.0860080000711605,1.717834600014612,1.9098669000668451,2.133973899995908,0.0,0.0,faqir,lowwf,
201,s263,201,therm,th,he,er,rm,t,h,e,r,m,,,0.690012100036256,0.7700433999998495,1.1778760000597686,1.321875900030136,1.4098444000119343,0.0,0.0,therm,lowwf,
202,s263,202,cooed,co,oo,oe,ed,c,o,o,e,d,,,0.893834299989976,1.1737617999315262,1.2938948998926207,1.4299216999206692,1.5819191999034956,0.0,0.0,cooed,lowwf,
203,s263,203,lucky,lu,uc,ck,ky,l,u,c,k,y,,,1.0737638999707997,1.2899299999698997,1.4577354999491945,1.6257386999204755,1.7938868999481201,0.0,0.0,lucky,highwf,
204,s263,204,haole,ha,ao,ol,le,h,a,o,l,e,,,1.069786800071597,1.2057170000625774,1.4457904000300914,1.621837000013329,1.7260089000919834,0.0,0.0,haole,lowwf,
205,s263,205,druze,dr,ru,uz,ze,d,r,u,z,e,,,0.9217183999717236,1.0978848999366164,1.337790200021118,1.5616748000029474,1.7856938999611884,0.0,0.0,druze,lowwf,
206,s263,206,there,th,he,er,re,t,h,e,r,e,,,0.8697222999762744,1.0296650999225676,1.1657220999477431,1.245946199982427,1.4216514999279752,0.0,0.0,there,highwf,
207,s263,207,cheer,ch,he,ee,er,c,h,e,e,r,,,0.9616875000065193,1.0897571999812499,1.1936892999801785,1.337749099940993,1.4416053999448195,0.0,0.0,cheer,medwf,
208,s263,208,edthe,ed,dt,th,he,e,d,t,h,e,,,0.8615699999500066,1.0455766000086442,1.1896313999313861,1.2696057999273762,1.5016312999650836,0.0,0.0,edthe,pseudo,
209,s263,209,tithe,ti,it,th,he,t,i,t,h,e,,,0.8495685000671074,1.057558200089261,1.1535239000804722,1.2495211000787094,1.385608799988404,0.0,0.0,tithe,lowwf,
210,s263,210,faqir,fa,aq,qi,ir,f,a,q,i,r,,,1.133739999961108,1.773495199973695,2.093595299986191,2.381540199974552,2.5574823999777436,0.0,0.0,faqir,lowwf,
211,s263,211,puppy,pu,up,pp,py,p,u,p,p,y,,,1.0816419000038877,1.4254505999851972,1.737403400009498,1.8814049999928102,1.9614000000292435,0.0,0.0,puppy,medwf,
212,s263,212,champ,ch,ha,am,mp,c,h,a,m,p,,,0.8133967999601737,0.9014257999369875,1.061362799955532,1.1414931999752298,1.4134262000443414,0.0,0.0,champ,medwf,
213,s263,213,vanru,va,an,nr,ru,v,a,n,r,u,,,0.8974390999646857,1.0893852999433875,1.2255496999714524,1.369267200003378,1.4733414000365883,0.0,0.0,vanru,pseudo,
214,s263,214,haole,ha,ao,ol,le,h,a,o,l,e,,,1.1810891999630257,1.2932653999887407,1.4371197000145912,1.613121600006707,1.6771114999428391,0.0,0.0,haole,lowwf,
215,s263,215,belly,be,el,ll,ly,b,e,l,l,y,,,0.8333045999752358,1.0333215999417007,1.3134650000138208,1.4412867999635637,1.537234399933368,0.0,0.0,belly,medwf,
216,s263,216,vanru,va,an,nr,ru,v,a,n,r,u,,,0.989355199970305,1.2452310000080615,1.3332721999613568,1.4854195000370964,1.5572466999292374,0.0,0.0,vanru,pseudo,
217,s263,217,buddy,bu,ud,dd,dy,b,u,d,d,y,,,1.0731947999447584,1.0894037999678403,1.5212597999488935,2.0092206000117585,2.137372199911624,0.0,0.0,buddy,highwf,
218,s263,218,there,th,he,er,re,t,h,e,r,,,,1.4531895000254735,1.5491976999910548,2.2693585000233725,2.4212870000628754,0.0,0.0,0.0,ther,highwf,
219,s263,219,cooed,co,oo,oe,ed,c,o,o,e,d,,,0.9691774999955669,1.2173314000247046,1.3532049000496045,1.457209900021553,1.6012590000173077,0.0,0.0,cooed,lowwf,
220,s263,220,vodka,vo,od,dk,ka,v,o,d,k,a,,,1.0932192999171093,1.2853610999882221,1.5172701999545097,1.6291711999801919,1.7491178999189287,0.0,0.0,vodka,medwf,
221,s263,221,about,ab,bo,ou,ut,a,b,o,u,t,r,,1.3931275999639183,1.5211002000141889,1.729113099980168,1.7771079000085592,2.137327800039202,2.473113799933344,0.0,aboutr,highwf,
222,s263,222,heond,he,eo,on,nd,h,e,o,n,d,,,1.3330527000362054,1.4770032999804243,1.5810631000204012,1.7812109000515193,1.9810235999757424,0.0,0.0,heond,pseudo,
223,s263,223,buddy,bu,ud,dd,dy,b,u,d,y,,,,1.3210743999807164,1.425014500040561,1.657010899973102,1.7611491000279784,0.0,0.0,0.0,budy,highwf,
224,s263,224,theme,th,he,em,me,t,h,e,m,e,,,0.7811584000010043,0.8850085000740364,1.0290045000147074,1.157050700043328,1.2609101000707597,0.0,0.0,theme,medwf,
225,s263,225,tithe,ti,it,th,he,t,i,t,h,e,,,1.032918099896051,1.1450472999131307,1.2412039999617264,1.328989699948579,1.5049463999457657,0.0,0.0,tithe,lowwf,
226,s263,226,heond,he,eo,on,nd,h,e,o,n,d,,,0.8450341999996454,0.989026700030081,1.2050435000564903,1.40489050000906,1.5410002999706194,0.0,0.0,heond,pseudo,
227,s263,227,therm,th,he,er,rm,t,h,e,r,m,,,0.7288827000884339,0.8249149000039324,0.9609506000997499,1.040892600081861,1.2008888000855222,0.0,0.0,therm,lowwf,
228,s263,228,would,wo,ou,ul,ld,o,u,l,d,,,,1.708926699939184,1.8689843999454752,2.1489031999371946,2.3171281999675557,0.0,0.0,0.0,ould,highwf,
229,s263,229,think,th,hi,in,nk,t,h,i,n,k,,,0.7928995999973267,0.9288506999146193,1.0407887999899685,1.1688668000278994,1.3209000999340788,0.0,0.0,think,highwf,
230,s263,230,cheer,ch,he,ee,er,c,h,e,e,r,,,0.8127779000205919,0.964701300021261,1.1008060000604019,1.2368934000842273,1.3887888001045212,0.0,0.0,cheer,medwf,
231,s263,231,champ,ch,ha,am,mp,c,h,a,m,o,p,,0.7369362000608817,0.832871500053443,0.9607914000516757,1.1127639999613166,1.4249653000151739,1.4249653000151739,0.0,chamop,medwf,
232,s263,232,cooed,co,oo,oe,ed,c,o,o,e,d,,,0.8448099000379443,1.068723400007002,1.188765799975954,1.2849497999995947,1.43669190001674,0.0,0.0,cooed,lowwf,
233,s263,233,kremp,kr,re,em,mp,k,r,e,m,p,space,,0.9206325999693945,1.0486701999325305,1.2167708999477327,1.344579399912618,1.6408930999459699,2.104734299937263,0.0,krempspace,pseudo,
234,s263,234,pykka,py,yk,kk,ka,p,,,,,,,2.3887068999465555,0.0,0.0,0.0,0.0,0.0,0.0,p,pseudo,
235,s263,235,vanru,va,an,nr,ru,v,a,n,r,u,,,0.8327249999856576,0.9925767999375239,1.0966179999522865,1.2168685999931768,1.2966544999508187,0.0,0.0,vanru,pseudo,
236,s263,236,belly,be,el,ll,ly,b,e,l,l,y,,,0.8685556999407709,1.0445707000326365,1.4205925000132993,1.524645600002259,1.676599400001578,0.0,0.0,belly,medwf,
237,s263,237,therm,th,he,er,rm,t,h,e,r,m,,,0.8886626999592409,0.9524787999689579,1.1205770999658853,1.2086348999291658,1.3044547999743372,0.0,0.0,therm,lowwf,
238,s263,238,lucky,lu,uc,ck,ky,l,u,c,k,y,,,0.8685955000109971,1.1564759999746457,1.3486965000629425,1.6204580999910831,1.7404835000634193,0.0,0.0,lucky,highwf,
239,s263,239,faqir,fa,aq,qi,ir,f,a,q,i,r,,,0.9604641000041738,1.41647919989191,1.7686016999650747,2.0805216999724507,2.24044139997568,0.0,0.0,faqir,lowwf,
