,sID,Trial #,string,bi_1,bi_2,bi_3,bi_4,key_resp.keys.1,key_resp.keys.2,key_resp.keys.3,key_resp.keys.4,key_resp.keys.5,key_resp.keys.6,key_resp.rt.1,key_resp.rt.2,key_resp.rt.3,key_resp.rt.4,key_resp.rt.5,key_resp.rt.6,resp_string,WF Type,BF Type
0,s267,0,think,th,hi,in,nk,t,h,i,n,k,,0.9410337999579497,1.0291515999706462,1.197156299953349,1.3330462999874726,1.5730176999932155,0.0,think,highwf,
1,s267,1,druze,dr,ru,uz,ze,d,r,u,z,e,,1.2177743999636732,1.4177669999771751,1.5857090999488719,2.665911399992183,2.8577685999916866,0.0,druze,lowwf,
2,s267,2,heond,he,eo,on,nd,h,e,o,n,d,,1.5817566000041552,1.9097375000128523,2.189746499992907,2.3737447999883443,3.2377595999860205,0.0,heond,pseudo,
3,s267,3,vanru,va,an,nr,ru,v,a,n,r,u,,1.3057395000359975,2.073738200007938,2.2577445000060834,2.569744200038258,2.825689700024668,0.0,vanru,pseudo,
4,s267,4,belly,be,el,ll,ly,b,e,l,l,y,,0.805769499973394,0.9256794999819249,1.261720099952072,1.3897609999985434,1.6378291999571957,0.0,belly,medwf,
5,s267,5,about,ab,bo,ou,ut,a,b,o,u,t,,1.0737316000158899,1.1537229000241496,1.3698072000406682,1.4577289000153542,1.633978100027889,0.0,about,highwf,
6,s267,6,would,wo,ou,ul,ld,w,o,u,l,d,,1.1096950999926776,1.2376857999479398,1.3177918999572285,1.5256324999500066,1.6537840999662876,0.0,would,highwf,
7,s267,7,vanru,va,an,nr,ru,v,a,n,r,u,,1.0258397000143304,1.1698171999887563,1.2978313000057824,1.6097005999763496,2.0257324000122026,0.0,vanru,pseudo,
8,s267,8,faqir,fa,aq,qi,ir,f,a,q,u,i,,0.9736399999819696,1.7736679000081494,2.5976754000294022,2.7498537999927066,3.0858623000094667,0.0,faqui,lowwf,
9,s267,9,there,th,he,er,re,t,h,e,r,e,,1.2416541999555193,1.3377635999931954,1.4736309999716468,1.5776207000017166,1.7215539999888279,0.0,there,highwf,
10,s267,10,zibja,zi,ib,bj,ja,z,i,b,j,a,,1.31807719997596,1.6297013000003062,2.429603800002951,2.669606599956751,2.821699899970554,0.0,zibja,pseudo,
11,s267,11,kremp,kr,re,em,mp,k,r,e,m,,,1.8017042000428773,2.2497277000220492,2.385554500040598,3.2095969000365585,0.0,0.0,krem,pseudo,
12,s267,12,lucky,lu,uc,ck,ky,l,u,c,k,y,,1.2935952000552788,1.5496243000379764,1.7096304000006057,1.821685900038574,2.077701000031084,0.0,lucky,highwf,
13,s267,13,druze,dr,ru,uz,ze,d,r,u,z,e,,0.9374798000208102,1.1216142000048421,1.2415008000098169,1.8735044000204653,2.153623999969568,0.0,druze,lowwf,
14,s267,14,think,th,hi,in,nk,t,h,i,n,k,,0.7975151999853551,0.8696342000039294,1.0215977999614552,1.1415141999605112,1.317566599987913,0.0,think,highwf,
15,s267,15,druze,dr,ru,uz,ze,d,r,u,z,e,,0.9615025999955833,1.1374674999970011,1.2656078000436537,1.825534300005529,2.097637000028044,0.0,druze,lowwf,
16,s267,16,belly,be,el,ll,ly,b,e,l,l,y,,0.8294827000354417,0.9336540999938734,1.1495609999983571,1.2856193000334315,1.5414716000086628,0.0,belly,medwf,
17,s267,17,vodka,vo,od,dk,ka,v,o,d,k,a,,1.3934268999728374,1.5053596000070684,1.6895136999664828,1.905347799998708,2.289399900007993,0.0,vodka,medwf,
18,s267,18,faqir,fa,aq,qi,ir,f,a,q,,,,2.6934428999666125,2.9174516999628395,3.3974357999977656,0.0,0.0,0.0,faq,lowwf,
19,s267,19,tithe,ti,it,th,he,t,i,t,h,e,,1.3853486999869347,1.521390399953816,1.6653276999713853,1.8494967999868095,2.425469699956011,0.0,tithe,lowwf,
20,s267,20,therm,th,he,er,rm,t,h,e,r,m,,1.9014444000204094,2.0134283000370488,2.1975080000120215,2.2533859999966808,2.501512300048489,0.0,therm,lowwf,
21,s267,21,puppy,pu,up,pp,py,p,u,p,p,y,,1.0893627000041306,1.361444499983918,1.6413448000093922,1.7533282999647781,2.025295500003267,0.0,puppy,medwf,
22,s267,22,kremp,kr,re,em,mp,k,r,e,m,p,,1.533278499962762,1.6534105999744497,1.7333886999986134,1.9253088999539614,2.117458499968052,0.0,kremp,pseudo,
23,s267,23,vanru,va,an,nr,ru,v,a,n,r,u,,1.1852978999959305,1.3293508000206202,1.4413514999905601,1.665261099988129,1.8413031999953091,0.0,vanru,pseudo,
24,s267,24,puppy,pu,up,pp,py,p,u,p,p,y,,0.9973361999727786,1.253389099962078,1.5253950000042096,1.6374337999732234,1.8935086999554187,0.0,puppy,medwf,
25,s267,25,about,ab,bo,ou,ut,a,b,o,u,t,,1.049261900014244,1.097236100002192,1.3372460000100546,1.4251801000209525,1.6012438000179827,0.0,about,highwf,
26,s267,26,pykka,py,yk,kk,ka,p,y,k,k,a,,1.901241400046274,2.205264599993825,2.5092484999913722,2.6371596000390127,2.7813394000404514,0.0,pykka,pseudo,
27,s267,27,haole,ha,ao,ol,le,h,a,o,l,e,,1.9052577000111341,2.0412621999857947,2.1931911000283435,2.4174454000312835,2.5772782000130974,0.0,haole,lowwf,
28,s267,28,cooed,co,oo,oe,ed,c,o,o,e,d,,1.613257099990733,1.8133757000323385,1.9652978000231087,2.181223999999929,2.2772265000385232,0.0,cooed,lowwf,
29,s267,29,haole,ha,ao,ol,le,h,a,o,l,e,,1.5852371000219136,1.7051253999816254,1.8651695000007749,2.057286800001748,2.1771558999898843,0.0,haole,lowwf,
30,s267,30,vanru,va,an,nr,ru,v,a,n,r,u,,1.149165400012862,1.3092508000554517,1.4372546000522561,1.6371741000330076,1.9012069000164047,0.0,vanru,pseudo,
31,s267,31,heond,he,eo,on,nd,h,e,o,n,d,,1.1211631000041962,1.241126200009603,1.3931604999816045,1.5371309000183828,1.977141199982725,0.0,heond,pseudo,
32,s267,32,cheer,ch,he,ee,er,c,h,e,e,r,,1.2611450999975204,1.3412245999788865,1.5090844000224024,1.6692460000049323,1.8132411999977194,0.0,cheer,medwf,
33,s267,33,there,th,he,er,re,t,h,e,r,e,,0.8490777999977581,0.9290613000048324,1.0811896999948658,1.1690897999797016,1.3293785999994725,0.0,there,highwf,
34,s267,34,cheer,ch,he,ee,er,c,h,e,e,r,,1.2930706999613903,1.4050906999618746,1.7250174999935552,1.901036600000225,2.1170691999723203,0.0,cheer,medwf,
35,s267,35,kremp,kr,re,em,mp,k,r,e,m,p,,1.3690401000203565,1.513116699992679,1.5931501999730244,1.8090271999826655,2.0249767000204884,0.0,kremp,pseudo,
36,s267,36,cooed,co,oo,oe,ed,c,o,o,e,d,,0.9650113999960013,1.1249834000482224,1.2689782000379637,1.4609698000131175,1.5649181000189856,0.0,cooed,lowwf,
37,s267,37,there,th,he,er,re,t,h,e,r,e,,0.8569407999748364,0.9688951999996789,1.0889828999643214,1.1848828999791294,1.3370446999906562,0.0,there,highwf,
38,s267,38,cheer,ch,he,ee,er,c,h,e,e,r,,0.9891205000458285,1.1169754000147805,1.2848521000123583,1.4608761999988928,1.6128738000406884,0.0,cheer,medwf,
39,s267,39,lucky,lu,uc,ck,ky,l,l,u,c,k,y,1.0568938999786042,1.4250862000044435,1.712901899998542,1.8408594999928027,1.9848548999871127,2.312886099971365,llucky,highwf,
40,s267,40,would,wo,ou,ul,ld,w,o,u,l,d,,1.0449045000132173,1.18089359998703,1.2528630000306293,1.469064500008244,1.6448048999882303,0.0,would,highwf,
41,s267,41,lucky,lu,uc,ck,ky,l,u,c,k,y,,0.9528649000567384,1.1928035000455566,1.3529738000361249,1.4408318000496365,1.68087010004092,0.0,lucky,highwf,
42,s267,42,pykka,py,yk,kk,ka,p,y,k,k,a,,1.7488401000155136,2.0848784999689087,2.3808164999936707,2.5171522999880835,2.6528434999636374,0.0,pykka,pseudo,
43,s267,43,belly,be,el,ll,ly,b,e,l,l,y,,0.8249723000335507,0.9688617000356317,1.1608156000147574,1.2809165000217035,1.5447550000390038,0.0,belly,medwf,
44,s267,44,think,th,hi,in,nk,t,h,i,n,k,,0.8127832000027411,0.9008515000459738,1.0368584000389092,1.1968375000287779,1.5407790000317618,0.0,think,highwf,
45,s267,45,belly,be,el,ll,ly,b,e,l,l,y,,0.7927822999772616,0.9207540999632329,1.3687338000163436,1.504672600014601,1.7446421000058763,0.0,belly,medwf,
46,s267,46,zibja,zi,ib,bj,ja,z,i,b,j,a,,1.3248683999991044,1.772712700010743,2.252714600006584,2.988721399975475,3.2126928999787197,0.0,zibja,pseudo,
47,s267,47,therm,th,he,er,rm,t,h,e,r,m,,1.0807039000210352,1.1848995999898762,1.3127351999864914,1.4086923000286333,1.6807917000260204,0.0,therm,lowwf,
48,s267,48,edthe,ed,dt,th,he,d,e,t,h,e,,1.2206836999976076,1.3726801000302657,2.1566399000003003,2.2766250999993645,2.4366616000188515,0.0,dethe,pseudo,
49,s267,49,would,wo,ou,ul,ld,w,o,u,l,d,,1.0566546999616548,1.192729700007476,1.2645742999739014,1.4487275999854319,1.6166469999589026,0.0,would,highwf,
50,s267,50,cooed,co,oo,oe,ed,c,o,o,e,d,,1.0686533999978565,1.2206501999753527,1.3486449999618344,1.5247133999946527,1.644663299957756,0.0,cooed,lowwf,
51,s267,51,pykka,py,yk,kk,ka,p,y,k,k,a,,1.2965949000208639,1.9365961999865249,2.544591900019441,2.696689400007017,2.8725605999934487,0.0,pykka,pseudo,
52,s267,52,zibja,zi,ib,bj,ja,z,i,b,j,,,1.3965983999660239,2.0047494000173174,2.9405991999665275,3.1087456999812275,0.0,0.0,zibj,pseudo,
53,s267,53,heond,he,eo,on,nd,h,e,o,n,d,,1.2005439000204206,1.3206256999983452,1.5044576000072993,1.6484996000071988,1.8805184000520967,0.0,heond,pseudo,
54,s267,54,there,th,he,er,re,t,h,e,r,e,,0.8365358000155538,0.9328604000038467,1.0925859999842942,1.1724808000144549,1.3165460000163876,0.0,there,highwf,
55,s267,55,theme,th,he,em,me,t,h,e,m,e,,0.8804712999844924,0.99267740000505,1.1605860000126995,1.4964909999980591,1.6009445000090636,0.0,theme,medwf,
56,s267,56,cheer,ch,he,ee,er,c,h,e,e,r,,1.1964938000310212,1.2844079000060447,1.492467799980659,1.8605271999840625,2.06847589998506,0.0,cheer,medwf,
57,s267,57,cooed,co,oo,oe,ed,c,o,o,e,d,,1.1603412000113167,1.3603144999942742,1.5123080000048503,1.6723071999731474,1.7603132000076585,0.0,cooed,lowwf,
58,s267,58,pykka,py,yk,kk,ka,p,y,k,k,a,,1.620448000030592,2.02841820003232,2.50842399999965,2.6686329999938607,2.8684116000076756,0.0,pykka,pseudo,
59,s267,59,vanru,va,an,nr,ru,v,a,n,r,u,,1.0483028999879025,1.3442497000214644,2.0963153000338934,2.3284193000290543,3.0723028000211343,0.0,vanru,pseudo,
60,s267,60,about,ab,bo,ou,ut,a,b,o,u,t,,1.0603471000213176,1.1724827000289224,1.3964459000271745,1.468464200035669,1.6523068000096828,0.0,about,highwf,
61,s267,61,faqir,fa,aq,qi,ir,f,a,q,,,,2.560292699956335,2.8002511999802664,3.2644331999472342,0.0,0.0,0.0,faq,lowwf,
62,s267,62,lucky,lu,uc,ck,ky,l,u,c,k,y,,1.0843100000056438,1.348291500005871,1.5163255000370555,1.5962968000094406,1.8044591000070795,0.0,lucky,highwf,
63,s267,63,haole,ha,ao,ol,le,h,a,o,l,e,,1.7042491000029258,1.9122630000347272,2.192259900039062,2.4082811000407673,2.6402545000310056,0.0,haole,lowwf,
64,s267,64,druze,dr,ru,uz,ze,d,r,u,z,e,,1.356221700028982,1.5641446000081487,1.836205700004939,2.6362073000054806,2.8842115000006743,0.0,druze,lowwf,
65,s267,65,theme,th,he,em,me,t,h,e,m,e,,0.9443089000415057,1.0081617000396363,1.3682080000289716,1.6481155999936163,1.8004499000380747,0.0,theme,medwf,
66,s267,66,kremp,kr,re,em,mp,k,r,e,m,p,,1.6921684999833815,1.8361645999830216,1.9161704999860376,2.100301700003911,2.332286499964539,0.0,kremp,pseudo,
67,s267,67,about,ab,bo,ou,ut,a,b,o,u,t,,1.1362630000221543,1.256266400043387,1.5120960000203922,1.5840752000221983,1.7840577000170015,0.0,about,highwf,
68,s267,68,pykka,py,yk,kk,ka,p,y,k,k,a,,2.228092099947389,2.436112299968954,2.7240432999678887,2.8600636999472044,3.0440241000032984,0.0,pykka,pseudo,
69,s267,69,there,th,he,er,re,t,h,e,r,e,,1.0073469000053592,1.0874492999864742,1.4393050000071526,1.559356099984143,1.7193087000050582,0.0,there,highwf,
70,s267,70,theme,th,he,em,me,t,h,e,m,e,,0.9960434000240639,1.0680375000229105,1.4521529000485316,1.5880512000294402,1.7161736999987625,0.0,theme,medwf,
71,s267,71,zibja,zi,ib,bj,ja,z,i,b,,,,2.3760019000037573,2.67199800000526,3.104053399991244,0.0,0.0,0.0,zib,pseudo,
72,s267,72,tithe,ti,it,th,he,t,i,t,h,e,,1.5799892999930307,1.7159981000004336,2.1239690000074916,2.228080899978522,2.6999766000080854,0.0,tithe,lowwf,
73,s267,73,about,ab,bo,ou,ut,a,b,o,u,t,,1.263906300009694,1.3760271000210196,1.607957600033842,1.680097900039982,1.8638832000433467,0.0,about,highwf,
74,s267,74,druze,dr,ru,uz,ze,d,r,u,z,e,,1.2918777000159025,1.4360241000540555,1.636003100022208,2.331898100033868,2.5958642000332475,0.0,druze,lowwf,
75,s267,75,haole,ha,ao,ol,le,h,a,o,l,e,,1.5440203999751247,1.6798536999849603,1.8478427999652922,2.0560168999945745,2.1758457999676466,0.0,haole,lowwf,
76,s267,76,champ,ch,ha,am,mp,c,h,a,m,p,,0.9878658000379801,1.0760254000197165,1.2437875000177883,1.3238055999972858,1.5478309000027366,0.0,champ,medwf,
77,s267,77,theme,th,he,em,me,t,h,e,m,e,,1.1839398000156507,1.247940400033258,1.7118248000042513,1.823719100037124,1.9119034000323154,0.0,theme,medwf,
78,s267,78,champ,ch,ha,am,mp,c,h,a,m,p,,1.227784699993208,1.339731500018388,1.5157810000237077,1.611751499993261,1.8278444000170566,0.0,champ,medwf,
79,s267,79,vodka,vo,od,dk,ka,v,o,d,k,e,,1.415760700008832,1.5677335999789648,2.0077268999884836,2.1358442999771796,2.3036687999847345,0.0,vodke,medwf,
80,s267,80,think,th,hi,in,nk,t,h,i,n,k,,1.035769900016021,1.08366920001572,1.2999371000332758,1.4038109000539407,1.6117550000199117,0.0,think,highwf,
81,s267,81,vodka,vo,od,dk,ka,v,o,d,k,a,,1.175863299984485,1.3197568000177853,1.6798165999935009,1.8477760999812745,2.015864100016188,0.0,vodka,medwf,
82,s267,82,tithe,ti,it,th,he,t,i,t,h,e,,1.2356558000319637,1.3636189000098966,1.4916643000324257,1.6036199000081979,1.8997769000125118,0.0,tithe,lowwf,
83,s267,83,buddy,bu,ud,dd,dy,b,u,d,d,y,,1.2717045999597758,1.4316662999917753,1.7196082000155002,1.8637082999921404,2.095600300002843,0.0,buddy,highwf,
84,s267,84,would,wo,ou,ul,ld,w,o,u,l,d,,1.2357967999996617,1.3395727999741212,1.3875900999992155,1.6197510999627411,1.7716080999816768,0.0,would,highwf,
85,s267,85,buddy,bu,ud,dd,dy,b,i,d,d,y,,1.0236080000177026,1.1837003999971785,1.8475920999771915,1.9916361999930814,2.1837657000287436,0.0,biddy,highwf,
86,s267,86,think,th,hi,in,nk,t,h,i,n,k,,0.8035190000082366,0.9395250999950804,1.1076407000073232,1.2355154000106268,1.4274167999974452,0.0,think,highwf,
87,s267,87,buddy,bu,ud,dd,dy,b,u,d,d,y,,1.303450100007467,1.4555813999613747,1.7275855999905616,1.8875807999866083,2.1515075999777764,0.0,buddy,highwf,
88,s267,88,therm,th,he,er,rm,t,h,e,r,m,,1.0355126000358723,1.1074974000221118,1.4516069000237621,1.7154928000527434,1.9314897000440396,0.0,therm,lowwf,
89,s267,89,puppy,pu,up,pp,py,p,u,p,p,y,,1.3034705000463873,1.6075020000571385,2.023512000043411,2.159537100000307,2.279554900014773,0.0,puppy,medwf,
90,s267,90,edthe,ed,dt,th,he,e,d,t,h,e,,2.3874021000228822,2.475385700003244,2.731551799981389,2.8354894000221975,2.955497800023295,0.0,edthe,pseudo,
91,s267,91,heond,he,eo,on,nd,h,e,o,n,f,,1.2153767999843694,1.3274714999715798,1.47937010001624,1.6234248999971896,1.9033133999910206,0.0,heonf,pseudo,
92,s267,92,puppy,pu,up,pp,py,p,u,p,p,y,,1.1394049000227824,1.4113673000247218,1.795384600001853,1.9314231000025757,2.0995507000479847,0.0,puppy,medwf,
93,s267,93,would,wo,ou,ul,ld,w,o,u,l,d,,1.2393151000142097,1.359275399998296,1.41526600002544,1.6152807000325993,1.7753619000432082,0.0,would,highwf,
94,s267,94,champ,ch,ha,am,mp,c,h,a,m,p,,1.2192982000415213,1.3232229000423104,1.483385800034739,1.563274200016167,1.7792626000009477,0.0,champ,medwf,
95,s267,95,therm,th,he,er,rm,t,h,e,r,m,,1.0232903999858536,1.1195069999666885,1.3032795999897644,1.3912300000083633,1.511280299979262,0.0,therm,lowwf,
96,s267,96,edthe,ed,dt,th,he,e,d,t,h,e,,1.4752197000198066,1.5311962999985553,1.8271834999904968,1.955210399988573,2.0831358000286855,0.0,edthe,pseudo,
97,s267,97,cheer,ch,he,ee,er,c,h,e,e,r,,1.087161399947945,1.2073027999722399,1.4071643999777734,1.5831542999949306,1.7031213999725878,0.0,cheer,medwf,
98,s267,98,cooed,co,oo,oe,ed,c,o,o,e,d,,0.963152899988927,1.163076299999375,1.3231545999879017,1.4992538000224158,1.6032274999888614,0.0,cooed,lowwf,
99,s267,99,haole,ha,ao,ol,le,h,a,o,l,e,,1.3352311000344343,1.479145299992524,1.6390735000022687,1.8473523000138812,2.2551043000421487,0.0,haole,lowwf,
100,s267,100,heond,he,eo,on,nd,h,e,o,n,d,,1.131129100045655,1.331075000052806,1.4911376000382006,1.763183500035666,2.2110800000373274,0.0,heond,pseudo,
101,s267,101,therm,th,he,er,rm,t,h,e,r,m,,1.047049499989953,1.175051500031259,1.3270152999903075,1.4313801000243984,1.6229872000403702,0.0,therm,lowwf,
102,s267,102,edthe,ed,dt,th,he,e,d,t,h,e,,1.1710246999864466,1.4429794999887235,1.7230347000295296,1.8429528000415303,1.9870611000224017,0.0,edthe,pseudo,
103,s267,103,faqir,fa,aq,qi,ir,f,a,q,i,r,,1.9109843000187539,2.3429266000166535,2.6869877999997698,3.030960000003688,3.3509792999830097,0.0,faqir,lowwf,
104,s267,104,tithe,ti,it,th,he,t,i,t,h,e,,1.0989418999524787,1.2829726999625564,1.3948934999643825,1.53088239999488,1.6989133999450132,0.0,tithe,lowwf,
105,s267,105,zibja,zi,ib,bj,ja,z,i,b,j,a,,1.6149571999558248,1.7830221999902278,2.318964899983257,2.678868599992711,3.0708544999943115,0.0,zibja,pseudo,
106,s267,106,buddy,bu,ud,dd,dy,b,u,d,d,y,,0.8508900000015274,1.042784599994775,1.42686780000804,1.570878400001675,1.6908357999636792,0.0,buddy,highwf,
107,s267,107,edthe,ed,dt,th,he,e,d,t,h,e,,1.2308545000269078,1.326850600016769,1.5908263000310399,1.742764900031034,1.8789057999965735,0.0,edthe,pseudo,
108,s267,108,vodka,vo,od,dk,ka,v,o,d,k,a,,1.2268188000307418,1.354836200014688,1.5710215999861248,1.7467964999959804,2.0508324000402354,0.0,vodka,medwf,
109,s267,109,faqir,fa,aq,qi,ir,f,a,q,i,r,,1.694832300010603,1.9907979000126943,2.30279560002964,2.742875099997036,2.902700799982995,0.0,faqir,lowwf,
110,s267,110,lucky,lu,uc,ck,ky,l,u,c,k,y,,1.122709700022824,1.4188014999963343,1.6187353000277653,1.7067241999902762,2.018725300033111,0.0,lucky,highwf,
111,s267,111,vodka,vo,od,dk,ka,v,o,d,k,a,,1.19072650000453,1.3667194999870844,1.5266871000058018,1.7106939000077546,1.9107820999925025,0.0,vodka,medwf,
112,s267,112,buddy,bu,ud,dd,dy,b,u,d,d,y,,1.1867130000027828,1.4026468999800272,1.762695999990683,1.9307222999632359,2.106850099982694,0.0,buddy,highwf,
113,s267,113,theme,th,he,em,me,t,h,e,m,e,,0.8146859999978915,0.918779400002677,1.0707079999847338,1.2626259999815375,1.390803899965249,0.0,theme,medwf,
114,s267,114,kremp,kr,re,em,mp,k,r,e,m,p,,1.5146527999895625,1.666591499990318,1.7386608999804594,1.8827288000029512,2.5306501999730244,0.0,kremp,pseudo,
115,s267,115,champ,ch,ha,am,mp,c,h,a,m,p,,0.9666556000011042,1.0545998999732547,1.238754499994684,1.302538399992045,1.5426731999614276,0.0,champ,medwf,
116,s267,116,tithe,ti,it,th,he,t,i,t,h,e,,1.1466733000124805,1.2905820999876596,1.4025171999819577,1.5146033999626525,1.6424568999791518,0.0,tithe,lowwf,
117,s267,117,puppy,pu,up,pp,py,p,u,p,p,y,,1.0385089999763295,1.326509199978318,1.6065201999736018,1.7424422999611124,1.9424460000009276,0.0,puppy,medwf,
118,s267,118,champ,ch,ha,am,mp,c,h,a,m,p,,0.9144287999952212,1.0104131000116467,1.1545591000467539,1.2344294000067748,1.4663495999993756,0.0,champ,medwf,
119,s267,119,belly,be,el,ll,ly,b,l,l,y,,,0.8704494999838062,1.2625591999967583,1.414441800036002,1.6626070000347681,0.0,0.0,blly,medwf,
120,s267,120,kremp,kr,re,em,mp,k,r,e,m,p,,1.2796675999998115,1.399651299987454,1.4717342999647371,1.6717596999951638,1.8878429000033066,0.0,kremp,pseudo,
121,s267,121,faqir,fa,aq,qi,ir,f,a,q,i,r,,0.9076745999627747,1.1797084999852814,1.763651299988851,1.9955854999716394,2.267612800002098,0.0,faqir,lowwf,
122,s267,122,think,th,hi,in,nk,t,h,i,n,k,,0.8476018999936059,0.9115854999981821,1.0955138999852352,1.2396020999876782,1.3995854000095278,0.0,think,highwf,
123,s267,123,vodka,vo,od,dk,ka,v,o,d,k,a,,0.939570399990771,1.0755911999731325,1.2354858000180684,1.3875344999833032,1.6035158999729902,0.0,vodka,medwf,
124,s267,124,puppy,pu,up,pp,py,p,u,p,p,y,,0.9675463999737985,1.223755799990613,1.495478299970273,1.6315275999950245,1.7436247999430634,0.0,puppy,medwf,
125,s267,125,would,wo,ou,ul,ld,w,o,u,l,d,,1.0594937999849208,1.1555637999554165,1.2194922999478877,1.4274788000038825,1.587552799959667,0.0,would,highwf,
126,s267,126,zibja,zi,ib,bj,ja,i,b,j,a,,,2.383667299989611,2.551424000004772,2.863435400009621,3.2795854000141844,0.0,0.0,ibja,pseudo,
127,s267,127,would,wo,ou,ul,ld,w,o,u,l,d,,0.9954629999701865,1.099650499993004,1.171427399967797,1.3794063999666832,1.4914183999644592,0.0,would,highwf,
128,s267,128,kremp,kr,re,em,mp,k,r,e,m,p,,1.1674220000277273,1.2793862000107765,1.367396200017538,1.5033800000092015,1.7353098000166938,0.0,kremp,pseudo,
129,s267,129,buddy,bu,ud,dd,dy,b,u,d,d,y,,0.7953971000388265,1.003325700003188,1.355326100019738,1.515281200001482,1.6194413999910466,0.0,buddy,highwf,
130,s267,130,druze,dr,ru,uz,ze,d,r,u,b,e,,0.9353374000056647,1.1593264000257477,1.5833562000188977,1.7993482000310905,2.535485600004904,0.0,drube,lowwf,
131,s267,131,therm,th,he,er,rm,t,h,e,r,m,,0.7873232000274584,0.8914073000196368,1.0192982000298798,1.1233551999903284,1.2192952000186779,0.0,therm,lowwf,
132,s267,132,belly,be,el,ll,ly,b,e,l,l,y,,0.7992669999948703,0.9272361000184901,1.2712405000347644,1.4232251000357792,1.6552752000279725,0.0,belly,medwf,
133,s267,133,therm,th,he,er,rm,t,h,e,r,m,,1.1872174000018276,1.2831814999808557,1.4192358999862336,1.5231906999833882,1.731287100003101,0.0,therm,lowwf,
134,s267,134,heond,he,eo,on,nd,h,e,o,n,d,,1.0231801000190899,1.1431287999730557,1.3271371999871917,1.535112300014589,1.9911713000037707,0.0,heond,pseudo,
135,s267,135,edthe,ed,dt,th,he,e,d,t,h,e,,1.2432239000336267,1.3231423000106588,1.619150799990166,1.7150899000116624,1.8511071000248194,0.0,edthe,pseudo,
136,s267,136,think,th,hi,in,nk,t,h,i,n,k,,0.7911170999868773,0.8713348999735899,1.0392196999746375,1.1590822999714874,1.3031481999787502,0.0,think,highwf,
137,s267,137,there,th,he,er,re,t,h,e,r,e,,0.7951383999898098,0.8910647999728099,1.0349846999743022,1.1311870999634266,1.2991837000008672,0.0,there,highwf,
138,s267,138,belly,be,el,ll,ly,b,e,l,l,y,,0.8870418999576941,1.0471599999582395,1.3271881999680772,1.471167899959255,1.6950771999545395,0.0,belly,medwf,
139,s267,139,edthe,ed,dt,th,he,e,d,t,h,e,,1.2190043999580666,1.3310353999841027,1.594896599999629,1.7229693999979645,1.8669945999863558,0.0,edthe,pseudo,
140,s267,140,vodka,vo,od,dk,ka,v,o,d,k,e,,1.1271850999910384,1.2710751999984495,1.4230630000238307,1.5511149999802,1.7189624999882653,0.0,vodke,medwf,
141,s267,141,haole,ha,ao,ol,le,h,a,o,l,e,,1.2749405999784358,1.426890500006266,1.5869167000055313,1.7869642000296153,1.9470512000261806,0.0,haole,lowwf,
142,s267,142,champ,ch,ha,am,mp,c,h,a,m,p,,0.8869426000164822,0.982988000032492,1.1590468999929726,1.24704919999931,1.486942999996245,0.0,champ,medwf,
143,s267,143,haole,ha,ao,ol,le,h,a,o,l,e,,1.1148586999624968,1.2509436999680474,1.402864600007888,1.6109787999885157,1.6989657999947667,0.0,haole,lowwf,
144,s267,144,there,th,he,er,re,t,h,e,r,e,,0.8308433000347577,0.9108461000141688,1.0707880000118166,1.1670206999988295,1.3349942000349984,0.0,there,highwf,
145,s267,145,cooed,co,oo,oe,ed,c,o,o,e,d,,1.0348614000249654,1.1546938000246882,1.3228018000372685,1.498771200014744,1.6107096000341699,0.0,cooed,lowwf,
146,s267,146,kremp,kr,re,em,mp,k,r,e,m,p,,1.6067679999978282,1.7188871999969706,1.790747500024736,2.014705399982631,2.254688000015449,0.0,kremp,pseudo,
147,s267,147,druze,dr,ru,uz,ze,d,r,u,z,e,,1.026734699960798,1.2427489999681711,1.3867153999744914,2.1386808999814093,2.3467281999764964,0.0,druze,lowwf,
148,s267,148,lucky,lu,uc,ck,ky,l,u,c,k,y,,1.0066683000186458,1.2867026000167243,1.4308061000192538,1.5186522000003606,1.8226841000141576,0.0,lucky,highwf,
149,s267,149,heond,he,eo,on,nd,h,e,o,n,d,,0.9626028999919072,1.1226290999911726,1.2826504000113346,1.4666559000033885,1.826628900016658,0.0,heond,pseudo,
150,s267,150,champ,ch,ha,am,mp,c,h,a,m,p,,0.8386013000272214,0.9106322000152431,1.0706925999838859,1.1745490999892354,1.406599699985236,0.0,champ,medwf,
151,s267,151,would,wo,ou,ul,ld,w,o,u,l,d,,0.9625812000012957,1.0426669999724254,1.1227061999961734,1.330569599987939,1.4667045999667607,0.0,would,highwf,
152,s267,152,tithe,ti,it,th,he,t,i,t,h,e,,0.8785275000263937,1.014515199989546,1.1426240000291727,1.7906896999920718,1.9106121000368148,0.0,tithe,lowwf,
153,s267,153,buddy,bu,ud,dd,dy,b,u,d,d,y,,1.0425155999837443,1.2185295000090264,1.426497999986168,1.5704839999671094,1.7066182999988087,0.0,buddy,highwf,
154,s267,154,faqir,fa,aq,qi,ir,f,a,q,i,r,,1.582397399994079,2.046405599976424,2.550901899987366,2.8944760999875143,3.126516999967862,0.0,faqir,lowwf,
155,s267,155,pykka,py,yk,kk,ka,p,y,k,k,a,,1.4584388000075705,1.7945090000284836,2.186442599981092,2.346601900004316,2.5543889999971725,0.0,pykka,pseudo,
156,s267,156,tithe,ti,it,th,he,t,i,t,h,e,,1.054383600014262,1.1984790000133216,1.2784802000387572,1.4703777999966405,1.6385726000298746,0.0,tithe,lowwf,
157,s267,157,theme,th,he,em,me,t,h,e,r,m,e,0.8184746999759227,0.8903614999726415,1.0423331999918446,1.1703485999605618,1.5463622999959625,2.0665217000059783,therme,medwf,
158,s267,158,champ,ch,ha,am,mp,c,h,a,m,p,,0.9583693000022322,1.0383799000410363,1.1983185000135563,1.3023144000326283,1.5263299000216648,0.0,champ,medwf,
159,s267,159,cooed,co,oo,oe,ed,c,o,o,e,d,,0.9944141000160016,1.2264256000053138,1.3784010999952443,1.5142738000140525,1.618314100021962,0.0,cooed,lowwf,
160,s267,160,lucky,lu,uc,ck,ky,l,u,c,k,y,,1.0303022000007331,1.2863879000069574,1.4303988000028767,1.526329300017096,1.7502823999966495,0.0,lucky,highwf,
161,s267,161,about,ab,bo,ou,ut,a,b,o,u,t,,0.8343187000136822,0.9222587000112981,1.1622722999891266,1.2263215000275522,1.3783103000023402,0.0,about,highwf,
162,s267,162,think,th,hi,in,nk,t,h,i,n,k,,0.8221652000211179,0.9183074000175111,1.078138399985619,1.1982000999851152,1.366162999998778,0.0,think,highwf,
163,s267,163,vanru,va,an,nr,ru,v,a,n,r,u,,1.098191900004167,1.250491599959787,1.3862820999929681,1.5623191999620758,1.762185400002636,0.0,vanru,pseudo,
164,s267,164,druze,dr,ru,uz,ze,d,r,u,x,e,,1.0621123999590054,1.2863415000028908,1.4301117999712005,1.8221352999680676,2.1821253999951296,0.0,druxe,lowwf,
165,s267,165,cheer,ch,he,ee,er,c,h,e,e,r,,0.8503228999907151,0.9781905999989249,1.1540321999927983,1.3221441999776289,1.4741309999953955,0.0,cheer,medwf,
166,s267,166,puppy,pu,up,pp,py,p,u,p,p,y,,1.0621193000115454,1.3260510999825783,1.630078100017272,1.7580454000271857,1.9023008000222035,0.0,puppy,medwf,
167,s267,167,therm,th,he,er,rm,t,h,e,r,m,,1.4180031000287272,1.513937400013674,1.6660909000202082,1.79392090003239,1.9779552000109106,0.0,therm,lowwf,
168,s267,168,pykka,py,yk,kk,ka,p,y,k,k,a,,1.22197720000986,1.5419645000365563,1.8379766000434756,1.9659662999911234,2.11810320004588,0.0,pykka,pseudo,
169,s267,169,buddy,bu,ud,dd,dy,b,u,d,d,y,,0.9219729999895208,1.1139104000176303,1.4419599000248127,1.6500149000203237,1.7938884000177495,0.0,buddy,highwf,
170,s267,170,lucky,lu,uc,ck,ky,l,u,c,k,y,,1.14189880003687,1.3818828000221401,1.6137923000496812,1.7099352000514045,2.0778879999998026,0.0,lucky,highwf,
171,s267,171,tithe,ti,it,th,he,t,i,t,h,e,,1.2898612000280991,1.4259868999943137,1.5298318000277504,1.6898626000038348,1.881914500030689,0.0,tithe,lowwf,
172,s267,172,about,ab,bo,ou,ut,a,b,o,u,t,,0.8538331000017934,0.9498821000452153,1.1818575999932364,1.2458266000030562,1.3979168999940157,0.0,about,highwf,
173,s267,173,cooed,co,oo,oe,ed,c,o,o,e,d,,0.9937737000291236,1.121762500028126,1.2737155000213534,1.4099102999898605,1.4738104999996722,0.0,cooed,lowwf,
174,s267,174,zibja,zi,ib,bj,ja,z,i,b,j,a,,1.7657739000278525,1.9897221999708563,2.389763100014534,2.6136901999707334,2.925781600002665,0.0,zibja,pseudo,
175,s267,175,cheer,ch,he,ee,er,c,h,e,e,r,,0.8817614000290632,1.0017926000291482,1.1536438000039198,1.337804100010544,1.489829100028146,0.0,cheer,medwf,
176,s267,176,kremp,kr,re,em,mp,k,r,e,m,p,,1.2456891000038013,1.3818647000007331,1.4616625999915414,1.6616632000077516,1.9096822999999858,0.0,kremp,pseudo,
177,s267,177,think,th,hi,in,nk,t,h,i,n,k,,0.8737375999917276,0.9856233000173233,1.1457212999812327,1.2816132999723777,1.4417398999794386,0.0,think,highwf,
178,s267,178,champ,ch,ha,am,mp,c,h,a,m,p,,0.8536150000290945,0.9498515999875963,1.1015784000046551,1.221564400009811,1.4615822000196204,0.0,champ,medwf,
179,s267,179,puppy,pu,up,pp,py,p,u,p,p,y,,1.1375520000001416,1.4017014999990351,1.6976979000028223,1.8495716999750584,1.9776741999667138,0.0,puppy,medwf,
180,s267,180,haole,ha,ao,ol,le,h,a,o,l,e,,1.0055436000111513,1.1495159000041895,1.2935262999963015,1.4936877000145614,1.6134556999895722,0.0,haole,lowwf,
181,s267,181,think,th,hi,in,nk,t,h,i,n,k,,0.7775965000037104,0.8895160999963991,1.0574557000072673,1.1934356999699958,1.3455006000003777,0.0,think,highwf,
182,s267,182,there,th,he,er,re,t,h,e,r,e,,0.9014582000090741,1.0215711999917403,1.1894233000348322,1.2853979000356048,1.4533722000196576,0.0,there,highwf,
183,s267,183,druze,dr,ru,uz,ze,d,r,u,z,e,,1.1694270999869332,1.361584700003732,1.529467599990312,1.8734838000382297,2.1294249999918975,0.0,druze,lowwf,
184,s267,184,therm,th,he,er,rm,t,h,e,r,m,,0.8054027000325732,0.9013968000072055,1.0775125999934971,1.1573839000193402,1.309356200043112,0.0,therm,lowwf,
185,s267,185,puppy,pu,up,pp,py,p,u,p,p,y,,1.001380599976983,1.265430599974934,1.5775463999598287,1.7215080999885686,1.8654654999845661,0.0,puppy,medwf,
186,s267,186,pykka,py,yk,kk,ka,p,y,k,k,a,,1.0293549000052735,1.3893258000025526,1.7173390000243671,1.8614301000488922,1.981448200007435,0.0,pykka,pseudo,
187,s267,187,vanru,va,an,nr,ru,v,a,n,r,u,,0.9932574999984354,1.2573560000164434,1.6252633000258356,1.801219700020738,2.0412307000369765,0.0,vanru,pseudo,
188,s267,188,cooed,co,oo,oe,ed,c,o,o,e,d,,0.9572850000113249,1.1253733000485227,1.2772558000287972,1.461269200022798,1.5652680000057444,0.0,cooed,lowwf,
189,s267,189,belly,be,el,ll,ly,b,e,l,l,y,,0.8492062000441365,0.9852157999994233,1.417539200047031,1.5771949000190943,1.74520930001745,0.0,belly,medwf,
190,s267,190,there,th,he,er,re,t,h,e,r,e,,0.8291737000108697,0.9252457999973558,1.1011460999725387,1.1492572000133805,1.3330836999812163,0.0,there,highwf,
191,s267,191,vanru,va,an,nr,ru,v,a,n,r,u,,0.9292225000099279,1.0730894000153057,1.2174292000127025,1.425236000039149,1.681106100033503,0.0,vanru,pseudo,
192,s267,192,cheer,ch,he,ee,er,c,h,e,e,r,,0.9892787000280805,1.1174079000484198,1.3010836000321433,1.4691409000079148,1.6050716000027023,0.0,cheer,medwf,
193,s267,193,edthe,ed,dt,th,he,e,d,t,h,e,,1.1130849999608472,1.257083699980285,1.5610815999680199,1.6492709999438375,1.8090516999945976,0.0,edthe,pseudo,
194,s267,194,puppy,pu,up,pp,py,p,u,p,p,y,,1.021014500001911,1.3170048999600112,1.6290197999915108,1.7809895999962464,1.9810183999943547,0.0,puppy,medwf,
195,s267,195,tithe,ti,it,th,he,t,i,t,h,e,,0.9449722999706864,1.0728785999817774,1.1849136999808252,1.3050604999880306,1.4809527000179514,0.0,tithe,lowwf,
196,s267,196,heond,he,eo,on,nd,h,e,o,n,d,,1.0769712000037543,1.2369786000344902,1.4130425000330433,1.5809548000106588,1.7650301000103354,0.0,heond,pseudo,
197,s267,197,tithe,ti,it,th,he,t,i,t,h,e,,1.0009935999987647,1.1689199000247754,1.2409155999775976,1.3850197999854572,1.521046000008937,0.0,tithe,lowwf,
198,s267,198,heond,he,eo,on,nd,h,e,o,n,f,,0.9088382000336424,1.0527637000195682,1.1968755000270903,1.3490078000468202,1.5728976000100374,0.0,heonf,pseudo,
199,s267,199,kremp,kr,re,em,mp,k,r,e,m,p,,1.4968517999514006,1.6169219999574125,1.720807799953036,1.8888153999578208,2.1127741999807768,0.0,kremp,pseudo,
200,s267,200,zibja,zi,ib,bj,ja,z,i,b,j,a,,1.3888393999659456,1.9171164999715984,2.388813300000038,2.8450437000137754,3.3568259999738075,0.0,zibja,pseudo,
201,s267,201,theme,th,he,em,me,t,h,e,m,e,,0.8567572999745607,0.9847656000056304,1.1688771999906749,1.3528792000142857,1.4967427999945357,0.0,theme,medwf,
202,s267,202,would,wo,ou,ul,ld,w,o,u,l,d,,1.0287368999561295,1.1567080999957398,1.2207957999780774,1.4448497999692336,1.5808307999977842,0.0,would,highwf,
203,s267,203,about,ab,bo,ou,ut,a,b,o,u,t,,0.9206957000424154,1.0409115999937057,1.2649166000192054,1.3366886000148952,1.520704000024125,0.0,about,highwf,
204,s267,204,vanru,va,an,nr,ru,v,a,n,r,u,,1.0206454999861307,1.1966801999951713,1.3326654999982566,1.804642100003548,2.2366208999883384,0.0,vanru,pseudo,
205,s267,205,vodka,vo,od,dk,ka,v,o,d,k,a,,1.0966671999776736,1.2805880000232719,2.0006668000132777,2.1606633000192232,2.2725769000244327,0.0,vodka,medwf,
206,s267,206,theme,th,he,em,me,t,h,e,m,e,,0.9484770999988541,1.0123938000178896,1.3404066999792121,1.5005738000036217,1.5964290000265464,0.0,theme,medwf,
207,s267,207,faqir,fa,aq,qi,ir,f,a,q,i,r,,1.1925415999721736,1.704539600003045,2.176526899973396,2.4565345000009984,2.6806849999702536,0.0,faqir,lowwf,
208,s267,208,haole,ha,ao,ol,le,h,a,o,l,e,d,1.0925654000020586,1.2444852000335231,1.4445417000097223,1.6524709000368603,1.8365196000086144,1.9405326000414789,haoled,lowwf,
209,s267,209,faqir,fa,aq,qi,ir,f,a,q,i,r,,1.344470000010915,1.8324802999850363,2.224441099970136,2.7444799999939278,3.0724261999712326,0.0,faqir,lowwf,
210,s267,210,zibja,zi,ib,bj,ja,z,i,b,j,a,,1.4525600000051782,1.8604053999879397,2.284429299994372,2.764389600022696,3.188442800019402,0.0,zibja,pseudo,
211,s267,211,buddy,bu,ud,dd,dy,b,u,d,d,y,,1.0084273000247777,1.1765024000196718,1.5604074000148103,1.7204166000010446,2.000690500019118,0.0,buddy,highwf,
212,s267,212,haole,ha,ao,ol,le,h,a,o,l,e,,1.0685475000063889,1.2604749000165612,1.4284736000117846,1.6203493000357412,1.8122999000479467,0.0,haole,lowwf,
213,s267,213,about,ab,bo,ou,ut,a,b,u,t,,,1.0164805999957025,1.2804240999976173,1.6083149000187404,2.06428789999336,0.0,0.0,abut,highwf,
214,s267,214,belly,be,el,ll,ly,b,e,l,l,y,,0.8523202000069432,1.0844502000254579,1.5324109999928623,1.6842133000027388,1.8603732000337914,0.0,belly,medwf,
215,s267,215,vanru,va,an,nr,ru,v,a,n,r,u,,0.8882809999631718,1.272324099962134,1.6642858000122942,1.9842707999632694,2.4242942999699153,0.0,vanru,pseudo,
216,s267,216,heond,he,eo,on,nd,h,e,o,n,d,,1.156191400019452,1.772365000040736,1.9562358999974094,2.180344300053548,2.516221300000325,0.0,heond,pseudo,
217,s267,217,therm,th,he,er,rm,t,h,e,r,m,,0.9922062000259757,1.0721091000013985,1.6641681999899447,1.936368599999696,2.1682793999789283,0.0,therm,lowwf,
218,s267,218,faqir,fa,aq,qi,ir,f,a,q,i,r,,1.4041424000170082,1.8201350000454113,2.196139800013043,2.588140800013207,2.860227000026498,0.0,faqir,lowwf,
219,s267,219,zibja,zi,ib,bj,ja,z,i,b,,,,2.040121999976691,2.464117099996656,3.2881118999794126,0.0,0.0,0.0,zib,pseudo,
220,s267,220,theme,th,he,em,me,t,h,e,m,e,,1.1240981000009924,1.196214700001292,1.5801114999921992,1.7080254000029527,1.8280329999979585,0.0,theme,medwf,
221,s267,221,champ,ch,ha,am,mp,c,h,a,m,p,,0.9679809000226669,1.079947100020945,1.2400558000081219,1.3600530000403523,1.616138699988369,0.0,champ,medwf,
222,s267,222,pykka,py,yk,kk,ka,p,y,k,k,a,,1.3639481999562122,2.499982299981639,2.82796609995421,2.9639606999699026,3.1079602999961935,0.0,pykka,pseudo,
223,s267,223,belly,be,el,ll,ly,b,e,l,l,y,,0.863937399990391,1.1119206000003032,1.3518998000072315,1.479913699964527,1.6400396999670193,0.0,belly,medwf,
224,s267,224,cheer,ch,he,ee,er,c,h,e,e,r,,0.851918599975761,0.9718225999968126,1.1958369999774732,1.3879593000165187,1.6278326000319794,0.0,cheer,medwf,
225,s267,225,pykka,py,yk,kk,ka,p,y,k,k,a,,1.0958812999888323,1.4398432000307366,1.7678429000079632,1.9038631999865174,2.127871100034099,0.0,pykka,pseudo,
226,s267,226,cooed,co,oo,oe,ed,c,o,o,e,d,,1.1237718999618664,1.2678768999758177,1.4277880999725312,1.6438149999594316,1.723817499994766,0.0,cooed,lowwf,
227,s267,227,about,ab,bo,ou,ut,a,b,o,u,t,,1.2558016999973916,1.4158963999943808,1.6717502999817953,1.7039113999926485,1.8878960000001825,0.0,about,highwf,
228,s267,228,edthe,ed,dt,th,he,e,d,t,h,e,,1.187754499958828,1.2278569999616593,1.5237353999982588,1.635855000000447,1.7557802999508567,0.0,edthe,pseudo,
229,s267,229,druze,dr,ru,uz,ze,d,r,u,z,e,,1.3518839000025764,1.5596999999834225,1.743776399991475,2.111692900012713,2.45582239999203,0.0,druze,lowwf,
230,s267,230,vodka,vo,od,dk,ka,v,o,d,k,a,,1.131861099973321,1.2515941999736242,1.4998215999803506,1.6516994999838062,1.8438179999939166,0.0,vodka,medwf,
231,s267,231,would,wo,ou,ul,ld,w,o,u,d,,,1.0396115999901667,1.207755499985069,1.2395824000122957,1.6395996999926865,0.0,0.0,woud,highwf,
232,s267,232,lucky,lu,uc,ck,ky,l,u,c,k,y,,0.9476255999761634,1.2676220999564976,1.5155945000005886,1.6437144999508746,2.003610799962189,0.0,lucky,highwf,
233,s267,233,edthe,ed,dt,th,he,e,d,t,h,e,,1.2156312000006437,1.3115649999817833,1.5997797999880277,1.7596021999488585,1.9037245999788865,0.0,edthe,pseudo,
234,s267,234,vodka,vo,od,dk,ka,v,i,d,k,a,,1.1234815999632701,1.2914042999618687,1.9074821000103839,2.187469399999827,2.9074655000003986,0.0,vidka,medwf,
235,s267,235,cheer,ch,he,ee,er,c,h,e,e,r,,0.8794736000127159,1.0155979000264779,1.1913998000090942,1.3595691000227816,1.47957220004173,0.0,cheer,medwf,
236,s267,236,buddy,bu,ud,dd,dy,b,u,d,d,y,,1.355441499967128,1.5636570999631658,1.811487999977544,1.995530299958773,2.259435999963898,0.0,buddy,highwf,
237,s267,237,there,th,he,er,re,t,h,e,r,e,,0.8314027999876998,0.9036984999547713,1.231373899965547,1.287576499977149,1.4713158999802545,0.0,there,highwf,
238,s267,238,lucky,lu,uc,ck,ky,l,u,c,k,y,,1.1314154000137933,1.4033875000313856,1.5795390999992378,1.6675765000400133,1.8834528000443242,0.0,lucky,highwf,
239,s267,239,theme,th,he,em,me,t,h,e,m,e,,0.9833446000120603,1.047422900039237,1.383433100010734,1.5354177000117488,1.6473093000240624,0.0,theme,medwf,
