,sID,Trial #,string,bi_1,bi_2,bi_3,bi_4,key_resp.keys.1,key_resp.keys.2,key_resp.keys.3,key_resp.keys.4,key_resp.keys.5,key_resp.keys.6,key_resp.keys.7,key_resp.rt.1,key_resp.rt.2,key_resp.rt.3,key_resp.rt.4,key_resp.rt.5,key_resp.rt.6,key_resp.rt.7,resp_string,WF Type,BF Type
0,s276,0,belly,be,el,ll,ly,b,e,l,l,y,,,0.7987664001993835,0.9107815001625568,1.0946879000402987,1.2387781001161784,1.334735200041905,0.0,0.0,belly,medwf,
1,s276,1,therm,th,he,er,rm,t,h,e,r,m,,,0.6351508998777717,0.7313347000163049,0.8677175999619067,0.971539800055325,1.1074934999924153,0.0,0.0,therm,lowwf,
2,s276,2,think,th,hi,in,nk,t,h,i,n,k,,,0.6554608000442386,0.759258900070563,0.879227900179103,0.9833776000887156,1.1353188001085073,0.0,0.0,think,highwf,
3,s276,3,vodka,vo,od,dk,ka,v,o,d,k,a,,,0.851486099883914,0.9793308000080287,1.107429499970749,1.3793991999700665,1.5313808000646532,0.0,0.0,vodka,medwf,
4,s276,4,therm,th,he,er,rm,t,h,e,r,m,,,0.6713491999544203,0.7512230998836458,0.9031024998985231,0.975217399885878,1.1111931998748332,0.0,0.0,therm,lowwf,
5,s276,5,belly,be,el,ll,ly,b,e,l,l,y,,,0.6909835000988096,0.8030443000607193,0.9472654999699444,1.1073200001847,1.211144900182262,0.0,0.0,belly,medwf,
6,s276,6,theme,th,he,em,me,t,h,e,m,e,,,0.6312446999363601,0.7271608000155538,0.8711184000130743,0.9751015999354422,1.0791259000543505,0.0,0.0,theme,medwf,
7,s276,7,puppy,pu,up,pp,py,p,u,p,p,y,,,0.6751926001161337,0.8591698000673205,1.0513550001196563,1.16309650009498,1.2911462001502514,0.0,0.0,puppy,medwf,
8,s276,8,would,wo,ou,ul,ld,w,o,u,l,d,,,0.767226800089702,0.8791390999685973,0.9832937000319362,1.199225899996236,1.2714117001742125,0.0,0.0,would,highwf,
9,s276,9,haole,ha,ao,ol,le,h,a,o,l,e,,,0.6831542998552322,0.9472366999834776,1.0992153999395669,1.2993103999178857,1.379075099946931,0.0,0.0,haole,lowwf,
10,s276,10,faqir,fa,aq,qi,ir,f,a,q,i,r,,,1.1432464001700282,1.3432180001400411,1.6392257001716644,1.9350988999940455,2.0630922000855207,0.0,0.0,faqir,lowwf,
11,s276,11,lucky,lu,uc,ck,ky,l,u,c,k,y,,,0.6670701000839472,0.8750400000717491,1.1710189001169056,1.3149276000913233,1.5070472001098096,0.0,0.0,lucky,highwf,
12,s276,12,puppy,pu,up,pp,py,p,u,p,p,y,,,0.6071905998978764,0.8229938999284059,1.022991499863565,1.1430545998737216,1.2469529998488724,0.0,0.0,puppy,medwf,
13,s276,13,edthe,ed,dt,th,he,e,d,t,h,e,,,0.8512433001305908,1.0990158000495285,1.3469188001472503,1.4748887999448925,1.571035500150174,0.0,0.0,edthe,pseudo,
14,s276,14,vodka,vo,od,dk,ka,v,o,d,k,e,,,0.839107999810949,0.9908776998054236,1.1512565999291837,1.3190789998043329,1.446874399902299,0.0,0.0,vodke,medwf,
15,s276,15,would,wo,ou,ul,ld,w,o,u,l,d,,,0.6829859002027661,0.7949341000057757,0.9227794001344591,1.2589684000704437,1.4349416000768542,0.0,0.0,would,highwf,
16,s276,16,heond,he,eo,on,nd,h,e,o,n,d,,,0.8150257999077439,0.9429589998908341,1.0468240999616683,1.1667812999803573,1.3270616999361664,0.0,0.0,heond,pseudo,
17,s276,17,tithe,ti,it,th,he,t,i,t,h,e,,,0.6828662001062185,0.8189078001305461,0.9547540999483317,1.0588160001207143,1.2107210999820381,0.0,0.0,tithe,lowwf,
18,s276,18,theme,th,he,em,me,t,h,e,m,e,,,0.6389797998126596,0.7587995999492705,0.8948303998913616,1.0307870998512954,1.1187554998323321,0.0,0.0,theme,medwf,
19,s276,19,tithe,ti,it,th,he,t,i,t,h,e,,,0.6989367001224309,0.8188619001302868,0.9228370999917388,1.0268467001151294,1.1788320001214743,0.0,0.0,tithe,lowwf,
20,s276,20,buddy,bu,ud,dd,dy,b,u,d,d,y,,,0.7108791000209749,0.830824599834159,1.2067197000142187,1.3508508999366313,1.4787246999330819,0.0,0.0,buddy,highwf,
21,s276,21,tithe,ti,it,th,he,t,i,t,h,e,,,0.6187884001992643,0.7306575002148747,0.8510252002160996,0.9706498000305146,1.138741300208494,0.0,0.0,tithe,lowwf,
22,s276,22,therm,th,he,er,rm,t,h,e,r,m,,,0.6387940999120474,0.7588100000284612,0.9026476999279112,1.0226624999195337,1.1828357998747379,0.0,0.0,therm,lowwf,
23,s276,23,druze,dr,ru,uz,ze,d,r,u,z,e,,,0.794730800203979,0.9865931000094861,1.1226089000701904,1.6585844000801444,1.9225525001529604,0.0,0.0,druze,lowwf,
24,s276,24,there,th,he,er,re,t,h,e,r,e,,,0.6385003000032157,0.7662918998394161,0.8946183000225574,0.9984672998543829,1.1262874000240117,0.0,0.0,there,highwf,
25,s276,25,heond,he,eo,on,nd,h,e,o,n,d,,,0.6346286998596042,0.7944404999725521,0.890536499908194,1.0024198999162763,1.154492799891159,0.0,0.0,heond,pseudo,
26,s276,26,vanru,va,an,nr,ru,v,a,n,r,u,,,0.9107323999051005,1.1103270999155939,1.270498199854046,1.4465532000176609,1.5666364999487996,0.0,0.0,vanru,pseudo,
27,s276,27,druze,dr,ru,uz,ze,d,r,u,z,e,,,0.7705951000098139,1.002470799954608,1.1304414998739958,1.4824003998655826,1.7224687999114394,0.0,0.0,druze,lowwf,
28,s276,28,about,ab,bo,ou,ut,a,b,o,u,t,,,0.8624123998451978,0.9584091000724584,1.0863743000663817,1.1745098000392318,1.2623769999481738,0.0,0.0,about,highwf,
29,s276,29,cooed,co,oo,oe,ed,c,o,o,e,d,,,0.7624001998919994,0.9383455000352114,1.0823518000543118,1.2343230000697076,1.3224267000332475,0.0,0.0,cooed,lowwf,
30,s276,30,vanru,va,an,nr,ru,v,a,n,r,u,,,0.8224412999115884,1.006503399927169,1.166470400057733,1.3344845999963582,1.4303991999477148,0.0,0.0,vanru,pseudo,
31,s276,31,therm,th,he,er,rm,t,h,e,r,m,,,0.6507441999856383,0.7623812998645008,0.9143725999165326,0.9944873999338597,1.1063834999222308,0.0,0.0,therm,lowwf,
32,s276,32,kremp,kr,re,em,mp,k,r,e,m,p,,,1.462368099950254,1.6062946999445558,1.7262466999236494,1.8702430999837816,1.9742584000341594,0.0,0.0,kremp,pseudo,
33,s276,33,heond,he,eo,on,nd,h,e,n,o,,,,0.9064382999204099,1.026298000011593,1.306241000071168,1.31426370004192,0.0,0.0,0.0,heno,pseudo,
34,s276,34,think,th,hi,in,nk,t,h,i,n,k,,,0.638344099977985,0.7582716001197696,0.8382957000285387,0.9581905999220908,1.1023415999952704,0.0,0.0,think,highwf,
35,s276,35,lucky,lu,uc,ck,ky,l,u,c,k,y,,,0.7703451998531818,1.0103175998665392,1.3142210999503732,1.5782617998775095,1.762350699864328,0.0,0.0,lucky,highwf,
36,s276,36,theme,th,he,em,me,t,h,e,m,e,,,0.6062896000221372,0.7100970998872072,0.8622373999096453,0.9662979999557137,1.0863714998122305,0.0,0.0,theme,medwf,
37,s276,37,would,wo,ou,ul,ld,w,o,u,l,d,,,0.6421632000710815,0.7541252002120018,0.8341825001407415,1.0500390999950469,1.1541339000687003,0.0,0.0,would,highwf,
38,s276,38,heond,he,eo,on,nd,h,e,o,m,d,,,0.726148399990052,1.158086200011894,1.262060500215739,1.398090000031516,2.1343078000936657,0.0,0.0,heomd,pseudo,
39,s276,39,champ,ch,ha,am,mp,c,h,a,m,p,,,0.7701697000302374,0.8738875000271946,1.0422346000559628,1.1380254998803139,1.2259940998628736,0.0,0.0,champ,medwf,
40,s276,40,pykka,py,yk,kk,ka,p,y,k,k,a,,,0.8299139998853207,1.1181033998727798,1.398096399847418,1.5340751998592168,1.6698758997954428,0.0,0.0,pykka,pseudo,
41,s276,41,cooed,co,oo,oe,ed,c,o,o,e,d,,,0.7540990000125021,0.9381023000460118,1.081933799898252,1.1621638999786228,1.29792769998312,0.0,0.0,cooed,lowwf,
42,s276,42,there,th,he,er,re,t,h,r,e,r,,,0.7020835999865085,0.814001299906522,1.0219193000812083,1.277991499984637,1.5020379000343382,0.0,0.0,threr,highwf,
43,s276,43,kremp,kr,re,em,mp,k,r,e,m,p,,,1.0661822999827564,1.1860583000816405,1.3219512000214309,1.4659655999857932,1.5779058001935482,0.0,0.0,kremp,pseudo,
44,s276,44,belly,be,el,ll,ly,b,e,l,l,y,,,0.6620799000374973,0.7899001000914723,0.9417582999449223,1.0859342999756336,1.2380041999276727,0.0,0.0,belly,medwf,
45,s276,45,theme,th,he,em,me,t,h,e,m,e,,,0.625903399894014,0.7301572000142187,0.9057972000446171,1.018233000067994,1.1300713999662548,0.0,0.0,theme,medwf,
46,s276,46,cheer,ch,he,ee,er,c,h,e,e,r,,,0.7419006999116391,0.8698166999965906,0.989886499941349,1.157747199991718,1.3018644999247044,0.0,0.0,cheer,medwf,
47,s276,47,zibja,zi,ib,bj,ja,z,i,b,j,a,,,1.0899113998748362,1.2658124000299722,1.7777902998495847,2.153855999931693,2.3297343999147415,0.0,0.0,zibja,pseudo,
48,s276,48,pykka,py,yk,kk,ka,p,y,k,k,a,,,0.8777626999653876,1.1657441998831928,1.4458019000012428,1.5817732999566942,1.7577700999099761,0.0,0.0,pykka,pseudo,
49,s276,49,puppy,pu,up,pp,py,p,u,p,p,y,,,0.66582449991256,0.8896363000385463,1.081612200010568,1.2177550001069903,1.3376953999977559,0.0,0.0,puppy,medwf,
50,s276,50,would,wo,ou,ul,ld,w,o,u,l,d,,,0.757776599843055,0.8936623998451978,1.005568299908191,1.2135873998049647,1.3340294999070466,0.0,0.0,would,highwf,
51,s276,51,druze,dr,ru,uz,ze,d,r,u,z,e,,,0.9696932998485863,1.2576727999839932,1.441524500027299,2.033850400010124,2.4336812999099493,0.0,0.0,druze,lowwf,
52,s276,52,think,th,hi,in,nk,t,h,i,n,k,,,0.6377584000583738,0.7656602000351995,0.8614845999982208,0.9576553001534194,1.1176500001456589,0.0,0.0,think,highwf,
53,s276,53,puppy,pu,up,pp,py,p,u,p,p,y,,,0.6576489999424666,0.8815381000749767,1.0734584000892937,1.2095137001015246,1.3294244999997318,0.0,0.0,puppy,medwf,
54,s276,54,there,th,he,er,re,t,h,e,r,e,,,0.6376604000106454,0.7815723000094295,1.0135552999563515,1.1414103000424802,1.2774831999558955,0.0,0.0,there,highwf,
55,s276,55,champ,ch,ha,am,mp,c,h,a,m,p,,,0.625660500023514,0.7374281999655068,0.8896880999673158,1.0093520998489112,1.1135084999259561,0.0,0.0,champ,medwf,
56,s276,56,think,th,hi,in,nk,t,h,i,n,k,,,0.6374883998651057,0.773359099868685,0.8694597999565303,0.989518899936229,1.1416327999904752,0.0,0.0,think,highwf,
57,s276,57,champ,ch,ha,am,mp,c,h,a,m,p,,,0.633665099972859,0.761528099887073,0.9133834999520332,1.0333952999208122,1.145574999973178,0.0,0.0,champ,medwf,
58,s276,58,think,th,hi,in,nk,t,h,i,n,k,,,0.5573958999011666,0.6773178000003099,0.7734230998903513,0.9014461999759078,1.0613255000207573,0.0,0.0,think,highwf,
59,s276,59,buddy,bu,ud,dd,dy,b,u,d,d,y,,,0.67349290009588,0.8173394999466836,1.1133302999660373,1.2492593999486417,1.3615534000564367,0.0,0.0,buddy,highwf,
60,s276,60,vodka,vo,od,dk,ka,v,o,d,k,a,,,0.9334500997792929,1.0934235998429358,1.277233799919486,1.509196399943903,1.6212847998831421,0.0,0.0,vodka,medwf,
61,s276,61,buddy,bu,ud,dd,dy,b,u,d,d,y,,,0.6973411999642849,0.817712499992922,1.1131479998584837,1.257247099885717,1.3611524999141693,0.0,0.0,buddy,highwf,
62,s276,62,pykka,py,yk,kk,ka,p,y,k,k,a,,,0.7013110001571476,0.9572331001982093,1.1893842001445591,1.3173352000303566,1.445195300038904,0.0,0.0,pykka,pseudo,
63,s276,63,kremp,kr,re,em,mp,k,r,e,m,p,,,1.0412297998555005,1.21731139998883,1.393221199978143,1.529274599859491,1.6731308000162244,0.0,0.0,kremp,pseudo,
64,s276,64,puppy,pu,up,pp,py,p,u,p,p,y,,,0.6211977999191731,0.8052505999803543,0.9892404999118298,1.1651065999176353,1.3011072999797761,0.0,0.0,puppy,medwf,
65,s276,65,druze,dr,ru,uz,ze,d,r,u,z,e,,,0.8174522998742759,1.0651732999831438,1.2176483999937773,1.5453102998435497,1.7771969998721033,0.0,0.0,druze,lowwf,
66,s276,66,cheer,ch,he,ee,er,c,h,e,e,r,,,0.6690256998408586,0.8050997999962419,0.9570704998914152,1.1332476998213679,1.317268299870193,0.0,0.0,cheer,medwf,
67,s276,67,faqir,fa,aq,qi,ir,f,a,q,i,r,,,0.9372213999740779,1.1450487999245524,1.4251389999408275,1.6890650000423193,1.8252167000900954,0.0,0.0,faqir,lowwf,
68,s276,68,edthe,ed,dt,th,he,e,d,t,h,e,,,0.8370749000459909,1.0050172000192106,1.269097600132227,1.3969799999613315,1.5090755000710487,0.0,0.0,edthe,pseudo,
69,s276,69,faqir,fa,aq,qi,ir,f,a,q,i,r,,,0.8251455998979509,1.0248592998832464,1.2810444999486208,1.553108099848032,1.6969525997992605,0.0,0.0,faqir,lowwf,
70,s276,70,cheer,ch,he,ee,er,c,h,e,e,r,,,0.6770649999380112,0.8210032000206411,0.9969550999812782,1.164836100069806,1.340948099968955,0.0,0.0,cheer,medwf,
71,s276,71,about,ab,bo,ou,ut,a,b,o,u,t,,,0.808998900000006,1.0090538000222296,1.1449707001447678,1.272946200100705,1.4171180000994354,0.0,0.0,about,highwf,
72,s276,72,would,wo,ou,ul,ld,w,o,u,l,d,,,0.7249535000883043,0.8771287000272423,0.9568942000623792,1.188960500061512,1.30882090004161,0.0,0.0,would,highwf,
73,s276,73,buddy,bu,ud,dd,dy,b,u,d,d,y,,,0.6729250000789762,0.8248411999084055,1.0969545000698417,1.2488420000299811,1.4727954999543726,0.0,0.0,buddy,highwf,
74,s276,74,cooed,co,oo,oe,ed,c,o,o,e,d,,,0.6769201999995857,0.9328672999981791,1.0688654000405222,1.2047810999210924,1.3168105999939144,0.0,0.0,cooed,lowwf,
75,s276,75,tithe,ti,it,th,he,t,i,t,h,e,,,0.6808064999058843,0.8328182999975979,0.9924774998798966,1.136702299816534,1.288739199982956,0.0,0.0,tithe,lowwf,
76,s276,76,cheer,ch,he,ee,er,c,h,e,e,r,,,0.6207241001538932,0.7487892999779433,0.932643000036478,1.1086532999761403,1.3248225001152605,0.0,0.0,cheer,medwf,
77,s276,77,zibja,zi,ib,bj,ja,z,i,b,j,a,,,1.0488051001448184,1.1926810001023114,1.4807242001406848,1.7447876001242548,1.888711699983105,0.0,0.0,zibja,pseudo,
78,s276,78,about,ab,bo,ou,ut,a,b,o,u,t,,,0.772720699897036,0.9325522999279201,1.0207654000259936,1.1246474999934435,1.2446818000171334,0.0,0.0,about,highwf,
79,s276,79,faqir,fa,aq,qi,ir,f,a,q,i,r,,,0.9686571001075208,1.1445955000817776,1.4328622000757605,1.5765678000170738,1.752729400061071,0.0,0.0,faqir,lowwf,
80,s276,80,therm,th,he,er,rm,t,h,e,r,m,,,0.6366810000035912,0.7648337001446635,0.9163089001085609,1.0125609000679106,1.1965544000267982,0.0,0.0,therm,lowwf,
81,s276,81,edthe,ed,dt,th,he,w,e,d,t,h,e,,0.6646249999757856,1.3845639999490231,1.856597299920395,2.104502100031823,2.2328502000309527,2.3044722999911755,0.0,wedthe,pseudo,
82,s276,82,kremp,kr,re,em,mp,k,r,e,m,p,,,0.9646459000650793,1.1084567999932915,1.2285066999029368,1.3725012999493629,1.4925134999211878,0.0,0.0,kremp,pseudo,
83,s276,83,pykka,py,yk,kk,ka,p,y,k,k,a,,,0.9125401000492275,1.1924499000888318,1.4324597001541406,1.5605576001107693,1.6885267000179738,0.0,0.0,pykka,pseudo,
84,s276,84,lucky,lu,uc,ck,ky,l,u,c,k,y,,,0.7725104000419378,0.9565238999202847,1.1964505999349058,1.3965213999617845,1.628393999999389,0.0,0.0,lucky,highwf,
85,s276,85,haole,ha,ao,ol,le,h,a,o,l,e,,,0.9123472000937909,1.0724432000424713,1.3524992000311613,1.568349099950865,1.6640930001158267,0.0,0.0,haole,lowwf,
86,s276,86,edthe,ed,dt,th,he,e,d,t,h,e,,,0.6523458000738174,0.8763221001718193,1.1562793001066893,1.2923447999637574,1.4205287999939173,0.0,0.0,edthe,pseudo,
87,s276,87,faqir,fa,aq,qi,ir,f,a,q,i,r,,,0.9760517000686377,1.16805630014278,1.4400121001526713,1.5920896001625806,1.7522694000508636,0.0,0.0,faqir,lowwf,
88,s276,88,vanru,va,an,nr,ru,v,a,n,r,u,,,0.6923202001489699,0.8283287000376731,0.9883695000316948,1.2043890000786632,1.3482319000177085,0.0,0.0,vanru,pseudo,
89,s276,89,champ,ch,ha,am,mp,c,h,a,m,p,,,0.6162010000552982,0.7523121000267565,0.8722600999753922,1.0163690000772476,1.1365507000591606,0.0,0.0,champ,medwf,
90,s276,90,pykka,py,yk,kk,ka,p,y,k,k,a,,,0.700601699994877,0.9725149001460522,1.2204804001376033,1.356158599955961,1.4842544000130147,0.0,0.0,pykka,pseudo,
91,s276,91,tithe,ti,it,th,he,t,i,t,h,e,,,0.6402273999992758,0.8002345999702811,0.9281766000203788,1.0481714999768883,1.1922067999839783,0.0,0.0,tithe,lowwf,
92,s276,92,kremp,kr,re,em,mp,k,r,e,m,p,,,0.7402868000790477,0.9642862000036985,1.1961381000000983,1.3641492000315338,1.5241280000191182,0.0,0.0,kremp,pseudo,
93,s276,93,about,ab,bo,ou,ut,a,b,o,u,t,,,0.7040878999978304,0.8560963999480009,0.9682175000198185,1.0960534000769258,1.2240224000997841,0.0,0.0,about,highwf,
94,s276,94,belly,be,el,ll,ly,b,e,l,l,y,,,0.5882985000498593,0.6922887999098748,0.892083799932152,1.0361345999408513,1.1561869999859482,0.0,0.0,belly,medwf,
95,s276,95,cooed,co,oo,oe,ed,c,o,o,e,d,,,0.7760441000573337,0.9920729999430478,1.1360138000454754,1.2560857001226395,1.4240329000167549,0.0,0.0,cooed,lowwf,
96,s276,96,edthe,ed,dt,th,he,e,d,t,h,e,,,0.6121376000810415,0.804010699968785,1.0599187000188977,1.1719814999960363,1.2920341999270022,0.0,0.0,edthe,pseudo,
97,s276,97,haole,ha,ao,ol,le,h,a,o,l,e,,,0.6320879000704736,0.7519710999913514,0.8960071001201868,1.1119929000269622,1.2080681999213994,0.0,0.0,haole,lowwf,
98,s276,98,cooed,co,oo,oe,ed,c,o,o,e,d,,,0.7239465001039207,0.8999624999705702,1.0599913999903947,1.2039708001539111,1.3080931999720633,0.0,0.0,cooed,lowwf,
99,s276,99,vodka,vo,od,dk,ka,v,o,d,k,a,,,0.8159091998822987,0.9678608998656273,1.1520165998954326,1.4399454998783767,1.584317599888891,0.0,0.0,vodka,medwf,
100,s276,100,zibja,zi,ib,bj,ja,z,i,b,j,a,,,1.1878136000595987,1.3318431999068707,1.6757860998623073,1.91586870001629,2.0918701998889446,0.0,0.0,zibja,pseudo,
101,s276,101,heond,he,eo,on,nd,h,e,o,n,d,,,0.8319047999102622,0.9598810998722911,1.0638796999119222,1.175760000012815,1.3518678999971598,0.0,0.0,heond,pseudo,
102,s276,102,theme,th,he,em,me,t,h,e,m,e,,,0.6359077000524849,0.7719286000356078,0.9079843000508845,1.0518098999746144,1.1478156000375748,0.0,0.0,theme,medwf,
103,s276,103,vanru,va,an,nr,ru,v,a,n,r,u,,,0.7917082000058144,0.9358045998960733,1.0558255999349058,1.2957999999634922,1.4396988998632878,0.0,0.0,vanru,pseudo,
104,s276,104,lucky,lu,uc,ck,ky,l,u,c,k,y,,,0.6997740000952035,0.9156903000548482,1.371722999960184,1.4997241001110524,1.6997539999429137,0.0,0.0,lucky,highwf,
105,s276,105,vodka,vo,od,dk,ka,v,o,d,k,a,,,0.9113254998810589,1.0314062000252306,1.1911176999565214,1.4393598998431116,1.5832273999694735,0.0,0.0,vodka,medwf,
106,s276,106,druze,dr,ru,uz,ze,d,r,u,z,e,,,0.7798758000135422,0.987777299946174,1.2116113000083715,1.6119160999078304,1.8596344001125544,0.0,0.0,druze,lowwf,
107,s276,107,there,th,he,er,re,t,h,e,r,e,,,0.623703199904412,0.759438999928534,0.9435829999856651,1.0155829000286758,1.191704099997878,0.0,0.0,there,highwf,
108,s276,108,about,ab,bo,ou,ut,a,b,o,u,t,,,0.7636601000558585,0.9155560000799596,1.043783799977973,1.1795024999883026,1.3234151001088321,0.0,0.0,about,highwf,
109,s276,109,zibja,zi,ib,bj,ja,z,i,b,j,a,,,0.9515911999624223,1.1035188001114875,1.3675011000595987,1.6394722000695765,1.7514794999733567,0.0,0.0,zibja,pseudo,
110,s276,110,vanru,va,an,nr,ru,v,a,n,r,u,,,0.7233392999041826,0.8353061999659985,0.9714001000393182,1.155316799879074,1.267368600005284,0.0,0.0,vanru,pseudo,
111,s276,111,zibja,zi,ib,bj,ja,z,i,b,j,a,,,0.991603699978441,1.1596007999032736,1.383559999987483,1.6155359998811036,1.735478499904275,0.0,0.0,zibja,pseudo,
112,s276,112,cheer,ch,he,ee,er,c,h,e,e,r,,,0.611439700005576,0.73937730002217,0.9313511999789625,1.1073571001179516,1.2913385001011193,0.0,0.0,cheer,medwf,
113,s276,113,haole,ha,ao,ol,le,h,a,o,l,e,,,0.8634642001707107,0.9834167000371963,1.0793078001588583,1.3195358000230044,1.3752254999708384,0.0,0.0,haole,lowwf,
114,s276,114,there,th,he,er,re,t,h,r,t,e,r,,0.5954358999151736,0.7237134000752121,0.9072294000070542,0.915339200058952,1.4913218000438064,1.7634087998885661,0.0,thrter,highwf,
115,s276,115,lucky,lu,uc,ck,ky,l,u,z,k,y,,,0.7594397000502795,0.9511828001122922,1.1594348000362515,1.455329299904406,1.7432719999924302,0.0,0.0,luzky,highwf,
116,s276,116,belly,be,el,ll,ly,b,e,l,l,y,,,0.6914571998640895,0.8031951000448316,0.9550152998417616,1.1073771000374109,1.1953950999304652,0.0,0.0,belly,medwf,
117,s276,117,champ,ch,ha,am,mp,c,h,a,m,p,,,0.6313531999476254,0.7352485000155866,0.8874629000201821,0.991266299970448,1.0953170999418944,0.0,0.0,champ,medwf,
118,s276,118,buddy,bu,ud,dd,dy,b,u,d,d,y,,,0.6913228000048548,0.8433049998711795,1.0752767999656498,1.2431734998244792,1.4271931999828666,0.0,0.0,buddy,highwf,
119,s276,119,haole,ha,ao,ol,le,h,o,l,e,,,,0.6386504999827594,0.8308219001628458,2.96705500013195,3.0865969001315534,0.0,0.0,0.0,hole,lowwf,
120,s276,120,cooed,co,oo,oe,ed,c,o,o,e,d,,,1.1150587999727577,1.2909603998996317,1.4269435999449342,1.555063699837774,1.6431131998542696,0.0,0.0,cooed,lowwf,
121,s276,121,vodka,vo,od,dk,ka,v,o,d,k,a,,,0.9988983999937773,1.3268375999759883,1.5187492999248207,1.7267287999857217,1.8389391999226063,0.0,0.0,vodka,medwf,
122,s276,122,therm,th,he,er,rm,t,h,e,r,m,,,0.6107491999864578,0.7308502001687884,0.9067115001380444,1.0187496000435203,1.2907132001128048,0.0,0.0,therm,lowwf,
123,s276,123,kremp,kr,re,em,mp,k,r,e,m,p,,,0.7750417999923229,0.9268593001179397,1.0468731001019478,1.2148425001651049,1.3590392000041902,0.0,0.0,kremp,pseudo,
124,s276,124,belly,be,el,ll,ly,b,e,l,l,y,,,0.5870252999011427,0.7071062999311835,0.8590082000009716,1.0188496999908239,1.1469010999426246,0.0,0.0,belly,medwf,
125,s276,125,think,th,hi,in,nk,t,h,i,n,k,,,0.5990029000677168,0.7029826999641955,0.8069416000507772,0.9429615999106318,1.110756800044328,0.0,0.0,think,highwf,
126,s276,126,vanru,va,an,nr,ru,v,a,n,r,u,,,0.7949481999967247,0.970854600192979,1.1067890000995249,1.250633800169453,1.3631570001598448,0.0,0.0,vanru,pseudo,
127,s276,127,vodka,vo,od,dk,ka,v,o,d,k,a,,,0.7908831001259387,1.1427991001401097,1.3267235001549125,1.5506494001019746,1.6789027000777423,0.0,0.0,vodka,medwf,
128,s276,128,vanru,va,an,nr,ru,v,a,n,r,u,,,0.7068545001093298,0.8268609000369906,0.9467571000568569,1.1787034999579191,1.274801200022921,0.0,0.0,vanru,pseudo,
129,s276,129,haole,ha,ao,ol,le,h,a,o,l,e,,,0.790735499933362,0.9746143999509513,1.118698899867013,1.3511196000035852,1.4386754999868572,0.0,0.0,haole,lowwf,
130,s276,130,heond,he,eo,on,nd,h,e,o,n,d,,,0.6986775998957455,0.8346313000656664,0.946692300029099,1.090703000081703,1.2187306000851095,0.0,0.0,heond,pseudo,
131,s276,131,about,ab,bo,ou,ut,a,b,o,u,t,,,0.6627420000731945,0.7825685001444072,0.9026001000311226,1.0145766001660377,1.158763200044632,0.0,0.0,about,highwf,
132,s276,132,lucky,lu,uc,ck,ky,l,u,c,k,y,,,0.6825214000418782,0.8746378000359982,1.3146627000533044,1.4585090999025851,1.730567199876532,0.0,0.0,lucky,highwf,
133,s276,133,tithe,ti,it,th,he,t,i,t,h,e,,,0.6866279998794198,0.8225402999669313,0.9266397999599576,1.046557700028643,1.2225591000169516,0.0,0.0,tithe,lowwf,
134,s276,134,about,ab,bo,ou,ut,a,b,o,u,t,,,0.6265059998258948,0.7704980999697,0.8742855999153107,0.9943271998781711,1.0906539999414235,0.0,0.0,about,highwf,
135,s276,135,cooed,co,oo,oe,ed,c,o,o,e,d,,,0.6385007000062615,0.8544228000100702,0.9985732999630272,1.1265183999203146,1.2704402999952435,0.0,0.0,cooed,lowwf,
136,s276,136,druze,dr,ru,uz,ze,d,r,u,z,e,,,1.1625457000918686,1.3703699000179768,1.522417000029236,2.0743257999420166,2.3464486999437213,0.0,0.0,druze,lowwf,
137,s276,137,buddy,bu,ud,dd,dy,b,u,d,d,y,,,0.7184366998262703,0.8704500999301672,1.1023528999648988,1.2544828997924924,1.4064799000043422,0.0,0.0,buddy,highwf,
138,s276,138,zibja,zi,ib,bj,ja,z,i,b,j,a,,,1.2664716001600027,1.418377600144595,1.6662938999943435,1.9223406000528485,2.066318199969828,0.0,0.0,zibja,pseudo,
139,s276,139,cooed,co,oo,oe,ed,c,o,o,e,d,,,0.6944758999161422,0.8862186998594552,1.0383344998117536,1.1583374999463558,1.278312399983406,0.0,0.0,cooed,lowwf,
140,s276,140,lucky,lu,uc,ck,ky,l,u,c,k,y,,,0.7543397999834269,0.9463148000650108,1.3862259001471102,1.5303071001544595,1.746191600104794,0.0,0.0,lucky,highwf,
141,s276,141,cheer,ch,he,ee,er,c,h,e,e,r,,,0.7423105000052601,0.8862254999112338,1.0784004998859018,1.254317400045693,1.4782247000839561,0.0,0.0,cheer,medwf,
142,s276,142,edthe,ed,dt,th,he,e,d,t,h,e,,,0.6422793997917324,0.8502440999727696,1.090172299882397,1.234242099802941,1.3624196997843683,0.0,0.0,edthe,pseudo,
143,s276,143,heond,he,eo,on,nd,h,e,o,n,e,,,0.65434499992989,0.7661951999180019,0.8782156999222934,1.030175399966538,1.182192400097847,0.0,0.0,heone,pseudo,
144,s276,144,there,th,he,er,re,t,h,r,backspace,e,r,e,0.5782883998472244,0.6981295999139547,0.85018299985677,2.3222709998954087,2.458103699842468,2.5621376999188215,2.714293399825692,thrbackspaceere,highwf,
145,s276,145,lucky,lu,uc,ck,ky,l,u,c,k,y,,,0.8062650999054313,1.006069399882108,1.3741130998823792,1.534163299947977,1.7821353999897838,0.0,0.0,lucky,highwf,
146,s276,146,champ,ch,ha,am,mp,c,h,a,m,p,,,0.6740695000626147,0.7779916001018137,0.970214799977839,1.0742061000782996,1.2100881000515074,0.0,0.0,champ,medwf,
147,s276,147,therm,th,he,er,rm,t,h,e,r,m,,,0.6141445999965072,0.7419968000613153,0.9180713999085128,1.0459894998930395,1.3337713999208063,0.0,0.0,therm,lowwf,
148,s276,148,druze,dr,ru,uz,ze,d,r,u,z,e,,,0.898178500123322,1.130060600116849,1.298024000134319,1.722006400115788,1.9779960000887513,0.0,0.0,druze,lowwf,
149,s276,149,belly,be,el,ll,ly,b,e,l,l,y,,,0.702026599785313,0.8219943998847157,1.0300417998805642,1.165707099949941,1.2938119999598712,0.0,0.0,belly,medwf,
150,s276,150,about,ab,bo,ou,ut,a,b,o,u,t,,,0.6580376999918371,0.7860952001065016,0.8818451000843197,1.009959700051695,1.1140388001222163,0.0,0.0,about,highwf,
151,s276,151,puppy,pu,up,pp,py,p,u,p,p,y,,,0.7019915001001209,0.9099151000846177,1.117876100121066,1.2537772001232952,1.3819097999949008,0.0,0.0,puppy,medwf,
152,s276,152,heond,he,eo,on,nd,h,e,o,n,d,,,0.6658583001699299,0.7858924001920968,0.9138284001965076,1.0258408000227064,1.1777931000106037,0.0,0.0,heond,pseudo,
153,s276,153,buddy,bu,ud,dd,dy,b,u,d,d,y,,,0.7578970999456942,0.8858274000231177,1.1097540000919253,1.2778352000750601,1.47784149996005,0.0,0.0,buddy,highwf,
154,s276,154,faqir,fa,aq,qi,ir,f,a,q,i,r,,,1.1698902999050915,1.3456141999922693,1.6657682999502867,2.034044200088829,2.1856688999105245,0.0,0.0,faqir,lowwf,
155,s276,155,pykka,py,yk,kk,ka,p,y,k,k,a,,,0.717784799868241,1.0218446999788284,1.277750999899581,1.4137547998689115,1.5498172000516206,0.0,0.0,pykka,pseudo,
156,s276,156,theme,th,he,em,me,t,h,e,m,e,,,0.6417797999456525,0.7696956000290811,0.977718299953267,1.1457452999893576,1.249597900081426,0.0,0.0,theme,medwf,
157,s276,157,haole,ha,ao,ol,le,h,a,o,l,e,,,0.6536832000128925,0.8296729999128729,0.9735775999724865,1.1977011000271887,1.3416299000382423,0.0,0.0,haole,lowwf,
158,s276,158,therm,th,he,er,rm,t,h,e,r,m,,,0.6177101999055594,0.7615934999193996,0.9296627999283373,1.0576881999149919,1.2975275998469442,0.0,0.0,therm,lowwf,
159,s276,159,edthe,ed,dt,th,he,e,d,t,h,e,,,0.6456003000494093,0.8374412001576275,1.1496282999869436,1.261606200132519,1.389649200020358,0.0,0.0,edthe,pseudo,
160,s276,160,vanru,va,an,nr,ru,v,a,n,r,u,,,1.001704800175503,1.1296145000960678,1.2816485001239926,1.5056898000184447,1.673582100076601,0.0,0.0,vanru,pseudo,
161,s276,161,vodka,vo,od,dk,ka,v,o,d,k,a,,,0.7896191999316216,0.9015408998820931,1.2535627998877317,1.5494768000207841,1.6937992998864502,0.0,0.0,vodka,medwf,
162,s276,162,therm,th,he,er,rm,t,h,e,r,m,,,0.6016235998831689,0.7134649998042732,0.8494936998467892,0.9615314998663962,1.1134424998890609,0.0,0.0,therm,lowwf,
163,s276,163,tithe,ti,it,th,he,t,i,t,h,e,,,0.6215343000367284,0.8854761000256985,1.12537209992297,1.2853228999301791,1.4773574999999255,0.0,0.0,tithe,lowwf,
164,s276,164,cooed,co,oo,oe,ed,c,o,o,e,d,,,0.6973724998533726,0.8734587000217289,1.033530900022015,1.1933720998931676,1.4174045999534428,0.0,0.0,cooed,lowwf,
165,s276,165,champ,ch,ha,am,mp,c,h,a,m,p,,,0.6374248000793159,0.7733979001641273,0.9013004000298679,1.0293549001216888,1.149308399995789,0.0,0.0,champ,medwf,
166,s276,166,theme,th,he,em,me,t,h,e,m,e,,,0.6094043001066893,0.7293092000763863,0.8893170000519603,1.0492514001671225,1.1612412000540644,0.0,0.0,theme,medwf,
167,s276,167,pykka,py,yk,kk,ka,p,y,k,k,a,,,0.6134258999954909,0.8534132998902351,1.1175344998482615,1.2773017999716103,1.4931757999584079,0.0,0.0,pykka,pseudo,
168,s276,168,there,th,he,er,re,t,h,e,r,e,,,0.5613900001626462,0.6813045002054423,0.8651939001865685,1.049297000048682,1.1773243001662195,0.0,0.0,there,highwf,
169,s276,169,champ,ch,ha,am,mp,c,h,a,m,p,,,0.6451604999601841,0.773140300065279,0.9332010999787599,1.0531931999139488,1.197110200067982,0.0,0.0,champ,medwf,
170,s276,170,heond,he,eo,on,nd,h,e,o,n,d,,,0.6173200001940131,0.7292883000336587,0.8730993000790477,0.9850522000342607,1.14504270022735,0.0,0.0,heond,pseudo,
171,s276,171,theme,th,he,em,me,t,h,e,m,e,,,0.6451309998519719,0.7891462999396026,0.925160099985078,1.06920799985528,1.1812009999994189,0.0,0.0,theme,medwf,
172,s276,172,zibja,zi,ib,bj,ja,z,i,b,j,a,,,1.1852445998229086,1.3450847999192774,1.7050452998373657,1.9291006999555975,2.033255900023505,0.0,0.0,zibja,pseudo,
173,s276,173,about,ab,bo,ou,ut,a,b,o,u,t,,,0.6531976000405848,0.8050333000719547,0.892966799903661,1.029043700080365,1.1411771001294255,0.0,0.0,about,highwf,
174,s276,174,would,wo,ou,ul,ld,w,o,u,l,d,,,0.6890693001914769,0.8173030000180006,0.8971032002009451,1.1130239001940936,1.2651027000974864,0.0,0.0,would,highwf,
175,s276,175,tithe,ti,it,th,he,t,i,t,h,e,,,0.6610177999828011,0.8050657999701798,0.9329256000928581,1.061116100056097,1.2209413999225944,0.0,0.0,tithe,lowwf,
176,s276,176,vanru,va,an,nr,ru,v,a,n,r,u,,,0.7930152001790702,0.9850930999964476,1.105000700103119,1.3131448000203818,1.4970303000882268,0.0,0.0,vanru,pseudo,
177,s276,177,think,th,hi,in,nk,t,h,i,n,k,,,0.6689685001038015,0.8049300999846309,0.892855399986729,1.0128538000863045,1.1728837001137435,0.0,0.0,think,highwf,
178,s276,178,haole,ha,ao,ol,le,h,a,o,l,e,,,0.5848612000700086,0.7288265000097454,0.8649977999739349,1.1050227000378072,1.1768378000706434,0.0,0.0,haole,lowwf,
179,s276,179,belly,be,el,ll,ly,b,e,l,l,y,,,0.6366540999151766,0.7569585999008268,0.9328421999234706,1.0849127999972552,1.228813200024888,0.0,0.0,belly,medwf,
180,s276,180,cheer,ch,he,ee,er,c,h,e,e,r,,,0.6169250998646021,0.7687802999280393,0.9608322998974472,1.1207399000413716,1.3048278999049217,0.0,0.0,cheer,medwf,
181,s276,181,there,th,he,er,re,t,h,e,r,e,,,0.59656019997783,0.7247534999623895,0.8686812999658287,1.0366938998922706,1.1407429000828415,0.0,0.0,there,highwf,
182,s276,182,cheer,ch,he,ee,er,c,h,e,e,r,,,0.7048816999886185,0.8567824000492692,1.0648049998562783,1.224853599909693,1.3688616000581533,0.0,0.0,cheer,medwf,
183,s276,183,tithe,ti,it,th,he,t,i,t,h,e,,,0.612854199949652,0.7566541000269353,0.8925570000428706,1.0207521999254823,1.14869249984622,0.0,0.0,tithe,lowwf,
184,s276,184,edthe,ed,dt,th,he,e,d,t,h,e,,,0.6247543001081795,0.8328396000433713,1.0967534000519663,1.2246459999587387,1.3366318000480533,0.0,0.0,edthe,pseudo,
185,s276,185,vodka,vo,od,dk,ka,v,o,d,k,a,,,0.7565812999382615,0.9010344999842346,1.0685886000283062,1.4766375999897718,1.620666699949652,0.0,0.0,vodka,medwf,
186,s276,186,haole,ha,ao,ol,le,h,o,,,,,,0.6725275998469442,0.8326744998339564,0.0,0.0,0.0,0.0,0.0,ho,lowwf,
187,s276,187,tithe,ti,it,th,he,t,i,t,h,e,,,0.6124749998562038,0.7404962999280542,0.8604599998798221,0.9806213998235762,1.100635299924761,0.0,0.0,tithe,lowwf,
188,s276,188,puppy,pu,up,pp,py,p,u,p,p,y,,,0.62454569991678,0.8484871999826282,1.0725380999501795,1.2243774000089616,1.3925095999147743,0.0,0.0,puppy,medwf,
189,s276,189,cheer,ch,he,ee,er,c,h,e,e,r,,,0.6206348999403417,0.7484160999301821,0.9564350000582635,1.1086446999106556,1.268441699910909,0.0,0.0,cheer,medwf,
190,s276,190,belly,be,el,ll,ly,b,e,l,l,y,,,0.6724307001568377,0.7684333000797778,0.9685353001113981,1.10436060000211,1.2165218000300229,0.0,0.0,belly,medwf,
191,s276,191,would,wo,ou,ul,ld,w,o,u,l,d,,,0.8444796002004296,0.9722810001112521,1.0685674000997096,1.2682602000422776,1.39645370002836,0.0,0.0,would,highwf,
192,s276,192,therm,th,he,er,rm,t,h,e,r,m,,,0.6164571000263095,0.7364471000619233,0.8881111000664532,1.0084071001037955,1.1923823999240994,0.0,0.0,therm,lowwf,
193,s276,193,vanru,va,an,nr,ru,v,a,n,r,u,,,0.788244100054726,0.9882646000478417,1.1322783001232892,1.3483893000520766,1.5323522000107914,0.0,0.0,vanru,pseudo,
194,s276,194,faqir,fa,aq,qi,ir,f,a,q,i,r,,,0.7522865999490023,0.944334700005129,1.4004639000631869,1.7443341999314725,1.9602073000278324,0.0,0.0,faqir,lowwf,
195,s276,195,vodka,vo,od,dk,ka,v,o,d,k,a,,,0.732382700080052,0.8922235001809895,1.076118100201711,1.3722492000088096,1.508331400109455,0.0,0.0,vodka,medwf,
196,s276,196,there,th,he,er,re,t,h,r,e,r,,,0.6159143999684602,0.7358949999324977,0.9999241000041366,1.5359201999381185,1.6800627999473363,0.0,0.0,threr,highwf,
197,s276,197,kremp,kr,re,em,mp,k,r,e,m,p,,,0.948181200074032,1.0601209001615644,1.1881894001271576,1.380128800170496,1.4920999000314623,0.0,0.0,kremp,pseudo,
198,s276,198,think,th,hi,in,nk,t,h,i,n,k,,,0.5922882000450045,0.6962618001271039,0.8322646000888199,0.9201068000402302,1.0801158000249416,0.0,0.0,think,highwf,
199,s276,199,faqir,fa,aq,qi,ir,f,a,q,i,r,,,0.8762011001817882,1.0920693001244217,1.4361651001963764,1.6040961001999676,1.7880809002090245,0.0,0.0,faqir,lowwf,
200,s276,200,buddy,bu,ud,dd,dy,b,u,d,d,y,,,0.6559835998341441,0.7680283999070525,1.0241520998533815,1.1841936998534948,1.3600808000192046,0.0,0.0,buddy,highwf,
201,s276,201,pykka,py,yk,kk,ka,p,y,k,k,a,,,1.2441371001768857,1.5881482001859695,1.852008500136435,1.9959730000700802,2.1959435001481324,0.0,0.0,pykka,pseudo,
202,s276,202,edthe,ed,dt,th,he,e,d,t,h,e,,,0.7521347999572754,1.0399921000935137,1.336052400059998,1.479946600040421,1.6162405000068247,0.0,0.0,edthe,pseudo,
203,s276,203,about,ab,bo,ou,ut,a,b,o,u,t,,,0.7320811999961734,0.9559094000142068,1.0599455998744816,1.195959399919957,1.3558606998994946,0.0,0.0,about,highwf,
204,s276,204,edthe,ed,dt,th,he,e,d,t,h,e,,,0.8238635999150574,1.023799799848348,1.3197402998339385,1.4477949999272823,1.5760327000170946,0.0,0.0,edthe,pseudo,
205,s276,205,puppy,pu,up,pp,py,p,u,p,p,y,,,0.7239337000064552,0.9399635000154376,1.1558944999706,1.3159095000009984,1.555913700023666,0.0,0.0,puppy,medwf,
206,s276,206,faqir,fa,aq,qi,ir,f,a,q,i,r,,,0.8000033001881093,1.0080838000867516,1.6399568000342697,1.9439352999906987,2.159865900175646,0.0,0.0,faqir,lowwf,
207,s276,207,pykka,py,yk,kk,ka,p,y,k,k,a,,,0.7157751000486314,1.027801000047475,1.2998438000213355,1.4436872000806034,1.6197699001058936,0.0,0.0,pykka,pseudo,
208,s276,208,belly,be,el,ll,ly,b,e,l,l,y,,,0.6318761000875384,0.7519517000764608,0.9358480998780578,1.071740600047633,1.2157042000908405,0.0,0.0,belly,medwf,
209,s276,209,cooed,co,oo,oe,ed,c,o,o,e,d,,,0.7957932001445442,0.9955643999855965,1.1556536999996752,1.3557309000752866,1.651627300074324,0.0,0.0,cooed,lowwf,
210,s276,210,druze,dr,ru,uz,ze,d,r,u,z,e,,,0.8397421999834478,1.055800599977374,1.2315986999310553,1.5916768999304622,1.871784299844876,0.0,0.0,druze,lowwf,
211,s276,211,think,th,hi,in,nk,t,h,i,n,k,,,0.5957215998787433,0.7396269000601023,0.8115966999903321,0.9556108999531716,1.179598799906671,0.0,0.0,think,highwf,
212,s276,212,kremp,kr,re,em,mp,k,r,e,m,p,,,0.8317631999962032,0.999628399964422,1.1437608001288027,1.3276492001023144,1.5675260000862181,0.0,0.0,kremp,pseudo,
213,s276,213,lucky,lu,uc,ck,ky,l,u,c,k,y,,,0.7557975000236183,0.9715951001271605,1.3476349001284689,1.5235723000951111,1.6995596999768168,0.0,0.0,lucky,highwf,
214,s276,214,puppy,pu,up,pp,py,p,u,p,p,y,,,0.6552558999974281,0.8792906000744551,1.1113697001710534,1.2552670000586659,1.4312056000344455,0.0,0.0,puppy,medwf,
215,s276,215,buddy,bu,ud,dd,dy,b,u,d,d,y,,,0.5794893000274897,0.7474462001118809,1.0433135000057518,1.2114651000592858,1.38728310004808,0.0,0.0,buddy,highwf,
216,s276,216,haole,ha,ao,ol,le,h,a,o,l,e,,,0.87941879988648,1.0314070999156684,1.1995689999312162,1.4393118000589311,1.5674793999642134,0.0,0.0,haole,lowwf,
217,s276,217,would,wo,ou,ul,ld,w,o,u,l,d,,,0.8995334999635816,1.0036178999580443,1.1234184999484569,1.3233868000097573,1.427405099850148,0.0,0.0,would,highwf,
218,s276,218,lucky,lu,uc,ck,ky,l,u,c,k,y,,,0.6875604998786002,0.8873531999997795,1.2235040999948978,1.3591332000214607,1.6393571998924017,0.0,0.0,lucky,highwf,
219,s276,219,theme,th,he,em,me,t,h,e,m,e,,,0.6273941001854837,0.7233741001691669,0.9791339000221342,1.1953275001142174,1.3234752002172172,0.0,0.0,theme,medwf,
220,s276,220,heond,he,eo,on,nd,h,e,o,n,d,,,0.6152843001764268,0.7592037001159042,0.9032466001808643,1.1112362002022564,1.2473479001782835,0.0,0.0,heond,pseudo,
221,s276,221,kremp,kr,re,em,mp,k,r,e,m,p,,,0.8435006998479366,0.9553288999013603,1.083412499865517,1.2592658000066876,1.3712045999709517,0.0,0.0,kremp,pseudo,
222,s276,222,zibja,zi,ib,bj,ja,z,i,b,j,a,,,1.0953603000380099,1.255244700005278,1.5514058999251574,1.8072583000175655,1.9032675998751074,0.0,0.0,zibja,pseudo,
223,s276,223,champ,ch,ha,am,mp,c,h,a,m,p,,,0.6272855999413878,0.7313872999511659,0.8995181999634951,0.9870527999009937,1.1231664998922497,0.0,0.0,champ,medwf,
224,s276,224,druze,dr,ru,uz,ze,d,r,u,z,e,,,0.8631782999727875,1.111013500019908,1.3112846999429166,1.6952021999750286,1.951177699957043,0.0,0.0,druze,lowwf,
225,s276,225,zibja,zi,ib,bj,ja,z,i,b,j,a,,,0.9310628999955952,1.1070773999672383,1.3152273998130113,1.578969599911943,1.6749842998106033,0.0,0.0,zibja,pseudo,
226,s276,226,faqir,fa,aq,qi,ir,f,a,q,i,r,,,0.9271269000601023,1.1110352000687271,1.3674242999404669,1.495139299891889,1.6390744000673294,0.0,0.0,faqir,lowwf,
227,s276,227,there,th,he,er,re,t,h,e,r,e,,,0.939112699823454,1.0511695998720825,1.2350971000269055,1.38710379996337,1.5229414999485016,0.0,0.0,there,highwf,
228,s276,228,pykka,py,yk,kk,ka,p,y,k,k,a,,,0.687074099900201,0.9510914999991655,1.2069107999559492,1.3430058998055756,1.510966599918902,0.0,0.0,pykka,pseudo,
229,s276,229,cheer,ch,he,ee,er,c,h,e,e,r,,,0.6830938002094626,0.8512388002127409,1.011092800181359,1.210812000092119,1.379046400077641,0.0,0.0,cheer,medwf,
230,s276,230,kremp,kr,re,em,mp,k,r,e,m,p,,,1.3590385999996215,1.487043600063771,1.6148957000114024,1.8070402999874204,1.9590335001703352,0.0,0.0,kremp,pseudo,
231,s276,231,would,wo,ou,ul,ld,w,o,l,d,,,,0.7790266000665724,0.9228686999995261,1.5389747000299394,1.7469801001716405,0.0,0.0,0.0,wold,highwf,
232,s276,232,zibja,zi,ib,bj,ja,z,i,b,j,a,,,0.9829844001214951,1.1828739000484347,1.4949783000629395,1.7349233999848366,1.9108593999408185,0.0,0.0,zibja,pseudo,
233,s276,233,champ,ch,ha,am,mp,c,h,a,m,p,,,0.6268280001822859,0.754769500112161,0.8988257001619786,1.0267609001602978,1.2027685001958162,0.0,0.0,champ,medwf,
234,s276,234,think,th,hi,in,nk,t,h,i,n,k,,,0.7188169001601636,0.8467858000658453,0.9587230000179261,1.0947672000620514,1.2546918001025915,0.0,0.0,think,highwf,
235,s276,235,puppy,pu,up,pp,py,p,u,p,p,y,,,0.5869116000831127,0.7788053001277149,1.0026998000685126,1.170846600085497,1.3866305002011359,0.0,0.0,puppy,medwf,
236,s276,236,druze,dr,ru,uz,ze,d,r,u,z,e,,,0.950997699983418,1.2066480000503361,1.3907900000922382,1.7747309999540448,2.2787784000393003,0.0,0.0,druze,lowwf,
237,s276,237,theme,th,he,em,me,t,h,e,m,e,,,0.6187585999723524,0.7464741999283433,0.9146656999364495,1.0426115000154823,1.154609200078994,0.0,0.0,theme,medwf,
238,s276,238,would,wo,ou,ul,ld,w,o,u,l,d,,,0.6546986000612378,0.7508499999530613,0.9425540000665933,1.1906157000921667,1.3345107999630272,0.0,0.0,would,highwf,
239,s276,239,buddy,bu,ud,dd,dy,b,u,d,d,y,,,0.6907034001778811,0.8186445999890566,1.0344866001978517,1.2026441001798958,1.4266256000846624,0.0,0.0,buddy,highwf,
