,sID,Trial #,string,bi_1,bi_2,bi_3,bi_4,key_resp.keys.1,key_resp.keys.2,key_resp.keys.3,key_resp.keys.4,key_resp.keys.5,key_resp.keys.6,key_resp.rt.1,key_resp.rt.2,key_resp.rt.3,key_resp.rt.4,key_resp.rt.5,key_resp.rt.6,resp_string,WF Type,BF Type
0,s278,0,edthe,ed,dt,th,he,e,d,t,h,e,,1.256119200028479,1.4559907999355346,1.6321487000677735,1.7201304999180138,1.7919950999785215,0.0,edthe,pseudo,
1,s278,1,would,wo,ou,ul,ld,w,o,u,l,d,,0.8687337001319975,0.9886785000562668,1.1009959001094103,2.348732199985534,2.436692100018263,0.0,would,highwf,
2,s278,2,belly,be,el,ll,ly,b,e,l,l,y,,0.7206596999894828,0.8008003998547792,1.0485908999107778,1.1765689000021666,1.3607445999514312,0.0,belly,medwf,
3,s278,3,vodka,vo,od,dk,ka,v,o,d,k,e,a,1.2205549001228064,1.3406804001424462,1.4685796000994742,1.7405821001157165,1.8046311000362039,2.5008459000382572,vodkea,medwf,
4,s278,4,buddy,bu,ud,dd,dy,b,u,u,d,d,y,0.8328064999077469,0.9846042999997735,1.1687089998740703,1.3205698998644948,1.840602699900046,2.344605299877003,buuddy,highwf,
5,s278,5,vodka,vo,od,dk,ka,v,o,d,k,a,,1.052581099793315,1.3165444999467582,1.5165702998638153,1.772605499951169,1.8287359999958426,0.0,vodka,medwf,
6,s278,6,there,th,he,er,re,t,h,e,r,e,,0.6486328998580575,0.7045827999245375,0.8085601998027414,0.9288376998156309,1.048685599816963,0.0,there,highwf,
7,s278,7,belly,be,el,ll,ly,b,e,l,l,y,,0.7164798001758754,0.8285624000709504,1.788613900076598,1.9405354000627995,2.0124712001997977,0.0,belly,medwf,
8,s278,8,druze,dr,ru,uz,ze,d,r,u,z,e,,0.6166046999860555,0.8485679000150412,1.040581300156191,2.2085540001280606,2.408514500129968,0.0,druze,lowwf,
9,s278,9,haole,ha,ao,ol,le,h,a,o,l,e,,0.9644569999072701,1.0523982997983694,1.5085857999511063,1.6765189999714494,1.7804835999850184,0.0,haole,lowwf,
10,s278,10,there,th,he,er,re,t,h,e,r,e,,0.6564140000846237,0.7764673000201583,0.9364394000731409,1.0084556001238525,1.1125477000605315,0.0,there,highwf,
11,s278,11,faqir,fa,aq,qi,ir,f,a,q,w,i,r,1.0284064000006765,1.4125054001342505,1.6924946000799537,1.7405373000074178,2.0365321000572294,2.1244291001930833,faqwir,lowwf,
12,s278,12,think,th,hi,in,nk,t,h,i,n,k,,0.6964714000932872,0.7924788999371231,0.8804136998951435,1.0965140000917017,1.1204999999608845,0.0,think,highwf,
13,s278,13,therm,th,he,er,rm,t,h,e,r,m,,0.7004358000122011,0.8043521998915821,0.9004980998579413,0.9484375999309123,1.0204485999420285,0.0,therm,lowwf,
14,s278,14,kremp,kr,re,em,mp,k,r,e,m,p,,0.8643215999472886,1.032405799953267,1.0803282000124454,1.1763830999843776,1.4723753998987377,0.0,kremp,pseudo,
15,s278,15,about,ab,bo,ou,ut,a,b,o,u,t,,0.6043549999594688,0.7163635001052171,0.9964306000620127,1.1242961999960244,1.2362367999739945,0.0,about,highwf,
16,s278,16,think,th,hi,in,nk,t,h,a,i,n,k,0.6403330999892205,0.8402939999941736,1.0243035999592394,1.7764948999974877,1.9203546999488026,1.984500200022012,thaink,highwf,
17,s278,17,zibja,zi,ib,bj,ja,z,i,b,j,a,,1.6042766000609845,1.8283082998823375,2.012269000057131,3.4203595998696983,3.460376000031829,0.0,zibja,pseudo,
18,s278,18,vodka,vo,od,dk,ka,v,o,d,k,a,,1.1442908002063632,2.040410300018266,2.1123714002314955,2.240404700161889,2.2962269000709057,0.0,vodka,medwf,
19,s278,19,zibja,zi,ib,bj,ja,z,i,j,a,,,1.3962117000482976,1.5643655001185834,2.2685186001472175,2.3243257000576705,0.0,0.0,zija,pseudo,
20,s278,20,heond,he,eo,on,nd,h,e,o,n,d,,1.0402069999836385,1.2005772001575679,1.6802229001186788,1.824181200005114,1.9122455001343042,0.0,heond,pseudo,
21,s278,21,haole,ha,ao,ol,le,h,a,o,l,e,,0.8682399000972509,0.9482293000910431,1.076127199921757,1.2681497000157833,1.3323073000647128,0.0,haole,lowwf,
22,s278,22,buddy,bu,ud,dd,dy,b,u,d,d,y,,0.760218600044027,0.9202944000717252,1.0722024999558926,1.2161531001329422,1.3123073999304324,0.0,buddy,highwf,
23,s278,23,lucky,lu,uc,ck,ky,l,u,c,k,y,,1.068245599977672,1.2522106999531388,1.3321050000377,1.444112499943003,1.6921273998450488,0.0,lucky,highwf,
24,s278,24,edthe,ed,dt,th,he,e,d,t,h,e,,1.4641128000803292,2.160132999997586,2.3921010999474674,2.4882181000430137,2.576037500053644,0.0,edthe,pseudo,
25,s278,25,puppy,pu,up,pp,py,p,u,p,p,y,,1.9080684001091868,2.228095500031486,2.475994799984619,2.652072299970314,2.900455499999225,0.0,puppy,medwf,
26,s278,26,pykka,py,yk,kk,ka,p,y,k,k,a,,1.3120935000479221,1.4641522001475096,1.840163700049743,1.9440322001464665,2.0560101000592113,0.0,pykka,pseudo,
27,s278,27,about,ab,bo,ou,ut,a,b,u,t,,,0.6120756000746042,0.6920262000057846,0.9721244999673218,1.8122648000717163,0.0,0.0,abut,highwf,
28,s278,28,theme,th,he,em,me,t,h,e,m,e,,0.7120139999315143,0.8161802999675274,0.9682299999985844,1.367987500037998,1.4959241000469774,0.0,theme,medwf,
29,s278,29,therm,th,he,er,rm,t,h,e,m,,,0.6280863999854773,0.7239353999029845,0.8120410998817533,0.9720383000094444,0.0,0.0,them,lowwf,
30,s278,30,think,th,hi,in,nk,t,h,i,n,k,,0.6399997998960316,0.7519444997888058,0.8479570997878909,1.032006099820137,1.1120186999905854,0.0,think,highwf,
31,s278,31,kremp,kr,re,em,mp,k,r,e,m,p,,0.7479483000934124,0.8999147999566048,0.9640283999033272,1.0358845998998731,1.2200454999692738,0.0,kremp,pseudo,
32,s278,32,champ,ch,ha,am,mp,c,h,a,m,o,p,0.6879557000938803,0.7920842999592423,0.8080295000690967,1.05589530011639,1.5359037001617253,2.487942500039935,chamop,medwf,
33,s278,33,there,th,he,er,re,t,h,e,r,e,,0.6198998999316245,0.7879985000472516,0.9318806000519544,1.0198806999251246,1.139923800015822,0.0,there,highwf,
34,s278,34,lucky,lu,uc,ck,ky,l,u,c,k,y,,1.2636901999358088,1.487674199976027,1.5598967999685556,1.687701900023967,1.8396815999876708,0.0,lucky,highwf,
35,s278,35,faqir,fa,aq,qi,ir,f,a,q,i,r,,0.915981899946928,1.4600103998091072,2.363846799824387,2.5719522999133915,2.6358005998190492,0.0,faqir,lowwf,
36,s278,36,vanru,va,an,nr,ru,v,a,n,r,u,,0.9118466000072658,0.9919453000184149,1.1201174999587238,1.2398109000641853,1.3918641998898238,0.0,vanru,pseudo,
37,s278,37,faqir,fa,aq,qi,ir,f,a,w,i,r,,0.9797841000836343,1.2357111000455916,1.58773160004057,1.900023499969393,2.027852199971676,0.0,fawir,lowwf,
38,s278,38,tithe,ti,it,th,he,t,i,t,h,e,,1.2237714000511914,1.3677747999317944,1.5039125001057982,1.6717987000010908,1.7756904000416398,0.0,tithe,lowwf,
39,s278,39,edthe,ed,dt,th,he,e,d,t,h,e,,1.7158316001296043,1.779819600051269,2.0437469999305904,2.13190110004507,2.219707600073889,0.0,edthe,pseudo,
40,s278,40,haole,ha,ao,ol,le,h,a,o,l,e,,0.9117371998727322,1.0318400000687689,1.4237080998718739,1.6078291998710483,1.6638285999651998,0.0,haole,lowwf,
41,s278,41,puppy,pu,up,pp,py,o,u,u,o,y,,0.9798812000080943,1.1636942001059651,1.8677282000426203,2.1557720000855625,2.419684699969366,0.0,ouuoy,medwf,
42,s278,42,belly,be,el,ll,ly,b,e,l,l,y,,0.8876591001171619,0.9996829000301659,1.7836738000623882,1.95964469993487,2.031631800113246,0.0,belly,medwf,
43,s278,43,druze,dr,ru,uz,ze,d,r,u,z,e,,1.3716829000040889,1.5636421998497099,1.7317492999136448,2.035640300018713,2.2197430999949574,0.0,druze,lowwf,
44,s278,44,haole,ha,ao,ol,le,h,a,o,l,e,,0.9596293000504375,1.0397376001346856,1.207642300054431,1.4235943001694977,1.4875794001854956,0.0,haole,lowwf,
45,s278,45,champ,ch,ha,am,mp,c,h,a,m,p,,1.0997695000842214,1.2115511000156403,1.2997447000816464,1.4355796999298036,2.4276318999473006,0.0,champ,medwf,
46,s278,46,theme,th,he,em,me,t,h,e,m,e,,0.6956140000838786,0.8074877001345158,0.935445100069046,1.0554567000363022,1.1754521999973804,0.0,theme,medwf,
47,s278,47,there,th,he,er,re,t,h,e,r,e,,0.6755404998548329,0.7796543999575078,0.9315329000819474,1.0116329998709261,1.1315343999303877,0.0,there,highwf,
48,s278,48,pykka,py,yk,kk,ka,o,y,k,k,a,,1.2715404001064599,1.5995368999429047,2.0156012000516057,2.1516003001015633,2.2316384001169354,0.0,oykka,pseudo,
49,s278,49,champ,ch,ha,am,mp,c,h,a,m,p,,0.9394787000492215,1.0354303000494838,1.1315532000735402,1.2840364000294358,1.53948469995521,0.0,champ,medwf,
50,s278,50,vanru,va,an,nr,ru,v,a,n,r,u,,1.015552300028503,1.0874499999918044,1.2074372000060976,1.3116746000014246,1.4395657998975366,0.0,vanru,pseudo,
51,s278,51,pykka,py,yk,kk,ka,p,y,k,k,a,,1.6355614000931382,1.9954471001401544,2.363466300070286,2.4835514000151306,2.571586800040677,0.0,pykka,pseudo,
52,s278,52,druze,dr,ru,uz,ze,d,r,u,z,e,,1.1113803999032825,1.287481299834326,1.8873794998507947,2.087489199824631,2.287354900036007,0.0,druze,lowwf,
53,s278,53,theme,th,he,em,me,t,h,e,m,e,,0.6754267001524568,0.803331500152126,0.9073523001279682,1.0514360000379384,1.1475973001215607,0.0,theme,medwf,
54,s278,54,cheer,ch,he,ee,er,c,h,e,e,r,,0.6073330000508577,0.7034760999958962,0.8312951999250799,0.9752611999865621,1.095259399851784,0.0,cheer,medwf,
55,s278,55,belly,be,el,ll,ly,b,e,l,l,y,,0.7475517999846488,0.8514383998699486,1.2992483000271022,1.4514224999584258,1.5474580998998135,0.0,belly,medwf,
56,s278,56,puppy,pu,up,pp,py,p,u,u,p,p,y,1.055271300021559,1.3272409001365304,1.487362600164488,2.151267600012943,2.495336400112137,2.647303899982944,puuppy,medwf,
57,s278,57,tithe,ti,it,th,he,t,i,t,h,e,,0.8192894000094384,1.0992198002059013,1.2751821000128984,1.4032020000740886,1.4832859002053738,0.0,tithe,lowwf,
58,s278,58,theme,th,he,em,me,t,h,e,m,e,,0.7744800001382828,0.9106386001221836,1.0625182001385838,1.2144274001475424,1.2944446001201868,0.0,theme,medwf,
59,s278,59,would,wo,ou,ul,ld,w,o,u,l,d,,0.6911658998578787,0.8592461999505758,0.9471912998706102,1.4672566999215633,1.6272539999336004,0.0,would,highwf,
60,s278,60,cheer,ch,he,ee,er,c,h,e,e,r,,0.5910880002193153,0.7030888001900166,0.8149854000657797,0.9591685000341386,1.0791302002035081,0.0,cheer,medwf,
61,s278,61,druze,dr,ru,uz,ze,d,r,u,z,e,,0.9711591999512166,1.1391205000691116,1.3871738999150693,1.7792968000285327,1.955082500120625,0.0,druze,lowwf,
62,s278,62,therm,th,he,er,rm,t,h,e,r,m,space,0.6711067000869662,0.8150404000189155,0.9111878999974579,0.9675894000101835,1.0550321999471635,1.2072340999729931,thermspace,lowwf,
63,s278,63,puppy,pu,up,pp,py,p,u,p,p,y,,1.5390790000092238,1.8190488000400364,2.0510499000083655,2.2350441000889987,2.434992300113663,0.0,puppy,medwf,
64,s278,64,cooed,co,oo,oe,ed,c,o,o,e,d,,0.8070507999509573,0.9510416998527944,1.0871127999853343,1.199126899940893,1.3670448998454958,0.0,cooed,lowwf,
65,s278,65,vodka,vo,od,dk,ka,v,o,d,k,a,,0.923008400015533,1.130998299922794,1.9230173998512328,2.0429805999156088,2.091220999835059,0.0,vodka,medwf,
66,s278,66,about,ab,bo,ou,ut,a,b,o,u,t,,0.6390259000472724,0.7350697999354452,0.974909899989143,1.0949323999229819,1.2230749998707324,0.0,about,highwf,
67,s278,67,zibja,zi,ib,bj,ja,z,i,b,j,a,,1.2269490000326186,1.4109059998299927,1.6349130999296904,2.0029010998550802,2.090907800011337,0.0,zibja,pseudo,
68,s278,68,cheer,ch,he,ee,er,c,h,e,e,r,,1.190916399937123,1.2709701000712812,1.4068837999366224,1.5748407999053597,1.6548436000011861,0.0,cheer,medwf,
69,s278,69,buddy,bu,ud,dd,dy,b,u,d,d,y,,0.7791836000978947,0.9230053001083434,1.0429257000796497,1.1788745999801904,1.323015500092879,0.0,buddy,highwf,
70,s278,70,lucky,lu,uc,ck,ky,l,u,c,k,y,,0.7670470001176,0.9589842001441866,1.0548194001894444,1.1748657000716776,1.3588626000564545,0.0,lucky,highwf,
71,s278,71,belly,be,el,ll,ly,b,e,l,l,y,,0.6908241999335587,0.8027745999861509,1.6588186998851597,1.8188225999474525,1.9147324999794364,0.0,belly,medwf,
72,s278,72,zibja,zi,ib,bj,ja,z,i,b,j,a,,1.0307905001100153,1.1510650999844074,1.326880499953404,1.4867448001168668,1.5670298000331968,0.0,zibja,pseudo,
73,s278,73,buddy,bu,ud,dd,dy,b,u,d,d,y,,0.8907375000417233,1.0107064000330865,1.1307092001661658,1.2828736000228673,1.378713299985975,0.0,buddy,highwf,
74,s278,74,think,th,hi,in,nk,t,h,i,n,k,,0.6867656998801976,0.8146776999346912,0.8708550999872386,1.086733999894932,1.1828624999616295,0.0,think,highwf,
75,s278,75,heond,he,eo,on,nd,h,e,o,n,d,,0.7949600999709219,0.9068107998464257,1.0106787998229265,1.1629585998598486,1.2507483998779207,0.0,heond,pseudo,
76,s278,76,buddy,bu,ud,dd,dy,b,u,d,d,y,,0.7107263000216335,0.8546315000858158,0.9906582999974489,1.1266650999896228,1.246726900106296,0.0,buddy,highwf,
77,s278,77,champ,ch,ha,am,mp,c,h,a,m,,,0.6266659998800606,0.7388358998578042,0.8587697998154908,1.0027524998877198,0.0,0.0,cham,medwf,
78,s278,78,therm,th,he,er,rm,t,h,e,r,m,,0.9826472999993712,1.078779499977827,1.190633999882266,1.230747199850157,1.350754699902609,0.0,therm,lowwf,
79,s278,79,druze,dr,ru,uz,ze,d,r,u,e,,,0.8744929998647422,1.0906286998651922,1.2904659998603165,1.8424741998314857,0.0,0.0,drue,lowwf,
80,s278,80,about,ab,bo,ou,ut,a,b,o,u,t,,1.0785477000754327,1.1986829000525177,1.3905346998944879,1.4465194998774678,1.5585131999105215,0.0,about,highwf,
81,s278,81,would,wo,ou,ul,ld,w,o,u,l,d,,0.618506700033322,0.7705125999636948,0.8426461999770254,0.994486500043422,1.1066926999483258,0.0,would,highwf,
82,s278,82,about,ab,bo,ou,ut,a,b,o,u,t,,0.5344726000912488,0.6467804000712931,0.8544987000059336,0.8946031001396477,1.0466061001643538,0.0,about,highwf,
83,s278,83,tithe,ti,it,th,he,t,i,t,h,e,,1.322442299919203,1.4744068998843431,1.5624563000164926,1.6824131000321358,1.746436000103131,0.0,tithe,lowwf,
84,s278,84,vanru,va,an,nr,ru,v,a,n,r,u,,0.9984173998236656,1.1985011999495327,1.3985011999029666,1.5823855998460203,1.7105264000128955,0.0,vanru,pseudo,
85,s278,85,kremp,kr,re,em,mp,k,r,e,m,p,,1.210391400149092,1.3143098000437021,1.3706211000680923,1.4903745001647621,1.642495300155133,0.0,kremp,pseudo,
86,s278,86,puppy,pu,up,pp,py,p,u,p,p,y,,1.646395399933681,1.9103794998954982,2.1825156998820603,2.3823007999453694,2.79832569998689,0.0,puppy,medwf,
87,s278,87,vodka,vo,od,dk,ka,v,o,d,k,a,,0.9783085999079049,1.8742823998909444,1.9622890998143703,2.1142616998404264,2.170255099888891,0.0,vodka,medwf,
88,s278,88,would,wo,ou,ul,ld,w,o,u,l,d,,0.6943720001727343,0.8304190000053495,0.8942924002185464,1.1023090002126992,1.1903089000843465,0.0,would,highwf,
89,s278,89,zibja,zi,ib,bj,ja,z,i,b,j,a,,1.4742113000247627,1.6262556998990476,1.8342879998963326,1.9861697000451386,2.082266699988395,0.0,zibja,pseudo,
90,s278,90,cooed,co,oo,oe,ed,c,o,o,e,d,,0.9262605998665094,1.0941918999888003,1.246236199978739,1.3583032998722047,1.5102215998340398,0.0,cooed,lowwf,
91,s278,91,heond,he,eo,on,nd,h,e,o,n,d,,0.8021798999980092,0.9621276999823749,1.0661194999702275,1.2180904000997543,1.2981203999370337,0.0,heond,pseudo,
92,s278,92,kremp,kr,re,em,mp,k,r,e,m,o,p,1.2061666999943554,1.3261014998424798,1.3739799000322819,1.478009699843824,1.6060452000238001,3.2300890998449177,kremop,pseudo,
93,s278,93,lucky,lu,uc,ck,ky,l,u,c,k,y,,0.8420877000316978,1.0101449999492615,1.0900938999839127,1.2100641999859363,1.4020871999673545,0.0,lucky,highwf,
94,s278,94,pykka,py,yk,kk,ka,p,y,k,k,a,,1.1500158000271767,1.4380169999785721,1.6460000998340547,1.7739929999224842,1.8700452998746186,0.0,pykka,pseudo,
95,s278,95,heond,he,eo,on,nd,h,e,o,n,d,,1.1380865001119673,1.2658969000913203,1.3700108001939952,1.5621672000270337,1.6582823002245277,0.0,heond,pseudo,
96,s278,96,faqir,fa,aq,qi,ir,f,a,q,i,r,,1.181988599942997,1.542113000061363,1.989969100104645,2.261919799959287,2.4060668000020087,0.0,faqir,lowwf,
97,s278,97,lucky,lu,uc,ck,ky,l,u,c,k,y,,0.9060166000854224,1.1059868999291211,1.1942404999863356,1.2901201001368463,1.441989100072533,0.0,lucky,highwf,
98,s278,98,edthe,ed,dt,th,he,e,d,t,h,e,,0.8699773999396712,0.9899502000771463,1.2060414999723434,1.3019391000270844,1.3420490000862628,0.0,edthe,pseudo,
99,s278,99,pykka,py,yk,kk,ka,p,y,k,k,a,,1.0899348000530154,1.3138792999088764,1.5059994000475854,1.6499111000448465,1.7460236998740584,0.0,pykka,pseudo,
100,s278,100,haole,ha,ao,ol,le,h,a,o,l,e,,0.8939062999561429,0.9418734000064433,1.0938254999928176,1.293821700150147,1.3661440000869334,0.0,haole,lowwf,
101,s278,101,vanru,va,an,nr,ru,v,a,n,r,u,,1.0339760000351816,1.1138341000769287,1.22595029999502,1.361928700003773,1.4818408000282943,0.0,vanru,pseudo,
102,s278,102,there,th,he,er,re,t,h,e,r,e,,0.7580534999724478,0.8937536999583244,1.0379337999038398,1.1417974000796676,1.261917999945581,0.0,there,highwf,
103,s278,103,heond,he,eo,on,nd,h,e,o,n,d,,0.7377902998123318,0.8578464998863637,0.9380161999724805,1.0578852000180632,1.1537253998685628,0.0,heond,pseudo,
104,s278,104,champ,ch,ha,am,mp,c,h,a,m,p,y,0.7417979000601918,0.8297653999179602,0.9417465999722481,1.077906700083986,1.2137064998969436,1.3417535999324173,champy,medwf,
105,s278,105,cheer,ch,he,ee,er,c,h,e,e,r,,0.729689700063318,0.8336308998987079,0.945676299976185,1.1136125999037176,1.2017576000653207,0.0,cheer,medwf,
106,s278,106,kremp,kr,re,em,mp,k,r,e,a,m,p,0.7496986000332981,0.9256607000716031,0.9976788000203669,1.0857253998983651,1.2456513999495655,1.6056685999501497,kreamp,pseudo,
107,s278,107,would,wo,ou,ul,ld,w,o,u,l,d,,0.6177385000046343,0.7458375999704003,0.8416472999379039,1.0096281000878662,1.089796599932015,0.0,would,highwf,
108,s278,108,cooed,co,oo,oe,ed,c,o,o,e,d,,0.6056413999758661,0.749798099976033,0.8855971000157297,0.9898562000598758,1.1737897999119014,0.0,cooed,lowwf,
109,s278,109,edthe,ed,dt,th,he,e,d,t,h,e,,0.753672500140965,0.9696053001098335,1.177608700003475,1.2977207000367343,1.3616291999351233,0.0,edthe,pseudo,
110,s278,110,think,th,hi,in,nk,t,h,i,k,,,0.677562199998647,0.8055579999927431,0.9097362998872995,1.1895481999963522,0.0,0.0,thik,highwf,
111,s278,111,theme,th,he,em,me,t,h,e,m,e,,0.5937125999480486,0.7055277000181377,0.8256306000985205,0.9534583000931889,1.0337358999531716,0.0,theme,medwf,
112,s278,112,therm,th,he,er,rm,t,h,e,r,m,,0.6694976999424398,0.7734062999952585,0.8616694998927414,0.9254703000187874,1.0215288000181317,0.0,therm,lowwf,
113,s278,113,cheer,ch,he,ee,er,c,h,e,e,r,,0.625490500126034,0.7456740001216531,0.8416091001126915,1.1296310001052916,1.3375381000805646,0.0,cheer,medwf,
114,s278,114,cooed,co,oo,oe,ed,c,o,o,e,d,,0.5574761999305338,0.7255571999121457,0.8615294999908656,0.957426100037992,1.149491999996826,0.0,cooed,lowwf,
115,s278,115,tithe,ti,it,th,he,t,i,t,h,e,,1.0967228999361396,1.2326527999248356,1.360758899943903,1.5047303000465035,1.6167256000917405,0.0,tithe,lowwf,
116,s278,116,vanru,va,an,nr,ru,v,a,n,r,u,,0.9733406999148428,1.085359799908474,1.2053429000079632,1.3254829000215977,1.4773623999208212,0.0,vanru,pseudo,
117,s278,117,tithe,ti,it,th,he,t,i,t,h,e,,0.8413329001050442,1.00931330001913,1.1372940000146627,1.2892990000545979,1.361373000079766,0.0,tithe,lowwf,
118,s278,118,faqir,fa,aq,qi,ir,f,a,q,i,r,,0.86934749991633,1.061491800006479,2.8534627000335604,2.981457300018519,3.1015331000089645,0.0,faqir,lowwf,
119,s278,119,cooed,co,oo,oe,ed,c,o,o,e,d,,0.6972802998498082,0.8093967000022531,0.945306499954313,1.0333572998642921,1.2013017998542637,0.0,cooed,lowwf,
120,s278,120,think,th,hi,in,nk,t,h,i,n,k,,0.6775466999970376,0.7735276001039892,0.8694994999095798,1.0136134000495076,1.077530600130558,0.0,think,highwf,
121,s278,121,there,th,he,er,re,t,h,e,r,e,,0.5458226001355797,0.6340070001315325,0.7137872001621872,0.7860209001228213,0.8657811000011861,0.0,there,highwf,
122,s278,122,lucky,lu,uc,ck,ky,l,u,c,k,y,,1.317779199918732,1.4857361000031233,1.5737542000133544,1.685851200018078,1.7897196998819709,0.0,lucky,highwf,
123,s278,123,heond,he,eo,on,nd,h,e,o,n,d,,0.7377704998943955,0.8257464000489563,0.9060535999014974,0.985842099878937,1.0657860999926925,0.0,heond,pseudo,
124,s278,124,about,ab,bo,ou,ut,a,b,o,u,t,,0.5498081999830902,0.6296847998164594,0.757675499888137,0.8137473999522626,0.8936828000005335,0.0,about,highwf,
125,s278,125,puppy,pu,up,pp,py,p,u,p,p,y,,1.105646399781108,1.2816604999825358,1.553623299812898,1.66575609985739,1.9216178997885436,0.0,puppy,medwf,
126,s278,126,pykka,py,yk,kk,ka,p,y,k,k,a,,1.1175878001376987,1.317712499992922,2.077761000022292,2.205589900026098,2.341697399970144,0.0,pykka,pseudo,
127,s278,127,theme,th,he,em,me,t,h,e,m,e,,0.6094754999503493,0.68944579991512,0.7694394998252392,0.8894481998868287,0.9454808000009507,0.0,theme,medwf,
128,s278,128,belly,be,el,ll,ly,b,e,l,l,y,,0.7095673999283463,0.8056721999309957,0.9415867999196053,1.0936775000300258,1.3337193001061678,0.0,belly,medwf,
129,s278,129,puppy,pu,up,pp,py,p,u,p,p,y,,1.049703599885106,1.281650099903345,1.4736103999894112,1.61755959992297,1.7856395998969674,0.0,puppy,medwf,
130,s278,130,buddy,bu,ud,dd,dy,b,u,d,d,y,,0.8615009998902678,1.0215218998491764,1.1576254998799413,1.3014762999955565,1.4055472000036389,0.0,buddy,highwf,
131,s278,131,faqir,fa,aq,qi,ir,f,a,q,i,r,,1.5135049000382423,1.6416433001868427,2.0574638000689447,2.2894576000981033,2.441540500149131,0.0,faqir,lowwf,
132,s278,132,there,th,he,er,re,t,h,e,r,e,,0.581587300170213,0.7015256001614034,0.7574709001928568,0.837676600087434,0.9255583002232015,0.0,there,highwf,
133,s278,133,heond,he,eo,on,nd,h,e,o,n,d,,0.7773714000359178,1.1133733000606298,1.3054780999664217,1.4335153000429273,1.5375224999152124,0.0,heond,pseudo,
134,s278,134,therm,th,he,er,rm,t,h,e,r,m,,0.6133860000409186,0.7013741000555456,0.7892718999646604,0.8455364999826998,0.9334400000516325,0.0,therm,lowwf,
135,s278,135,kremp,kr,re,em,mp,k,r,e,m,p,,1.1213831999339163,1.2414969000965357,1.2894184000324458,1.4015700998716056,1.537412199890241,0.0,kremp,pseudo,
136,s278,136,zibja,zi,ib,bj,ja,i,b,j,a,,,1.6451252000406384,1.8530204000417143,1.9652719998266548,2.0529898998793215,0.0,0.0,ibja,pseudo,
137,s278,137,buddy,bu,ud,dd,dy,b,u,d,d,y,,1.249309099977836,1.37724049994722,1.4813791001215577,1.6092282999306917,1.7131952000781894,0.0,buddy,highwf,
138,s278,138,vodka,vo,od,dk,ka,v,o,d,k,a,,1.1411852999590337,1.397128399927169,2.26912650000304,2.461147600086406,2.541193899931386,0.0,vodka,medwf,
139,s278,139,lucky,lu,uc,ck,ky,l,u,c,k,y,,1.3852230999618769,1.6731855999678373,1.7535038001369685,1.8732720001135021,2.033421800006181,0.0,lucky,highwf,
140,s278,140,tithe,ti,it,th,he,t,i,t,h,e,,0.7411601999774575,1.485203699907288,1.6131426999345422,1.7492132000625134,1.8373787999153137,0.0,tithe,lowwf,
141,s278,141,heond,he,eo,on,nd,h,e,o,n,d,,0.7771991000045091,0.9133082998450845,1.017443499993533,1.1290889999363571,1.257202300010249,0.0,heond,pseudo,
142,s278,142,champ,ch,ha,am,mp,c,h,a,m,p,,0.6691628999542445,0.7571998999919742,0.8371462000068277,0.9650777000933886,1.1170371000189334,0.0,champ,medwf,
143,s278,143,belly,be,el,ll,ly,b,e,l,l,y,,0.6810435999650508,0.8330492000095546,0.9531302000395954,1.0889930999837816,1.2490087999030948,0.0,belly,medwf,
144,s278,144,there,th,he,er,re,t,h,e,r,e,,0.693110299995169,0.813047599978745,0.9331165999174118,1.005055099958554,1.1250675998162478,0.0,there,highwf,
145,s278,145,cheer,ch,he,ee,er,c,h,e,e,r,,0.7129846999887377,0.8329289997927845,0.9210663000121713,1.0809530999977142,1.1689003999345005,0.0,cheer,medwf,
146,s278,146,lucky,lu,uc,ck,ky,l,u,c,k,y,,0.8050132999196649,0.9809729000553489,1.0689240000210702,1.2049565999768674,1.5009969999082386,0.0,lucky,highwf,
147,s278,147,druze,dr,ru,uz,ze,d,r,u,z,e,,1.160852300003171,1.376822300022468,1.9288824999239296,2.376832799986005,2.5929525000974536,0.0,druze,lowwf,
148,s278,148,buddy,bu,ud,dd,dy,b,u,d,d,y,,0.6448641000315547,0.8368578001391143,0.9487809001002461,1.0929672000929713,1.2369808999355882,0.0,buddy,highwf,
149,s278,149,tithe,ti,it,th,he,t,i,t,h,e,,0.7928981999866664,0.9449191000312567,1.056819099932909,1.2087700001429766,1.3209297000430524,0.0,tithe,lowwf,
150,s278,150,cheer,ch,he,ee,er,c,h,e,e,r,,0.5568160000257194,0.6687334000598639,0.7809014001395553,0.9249211000278592,1.0529128001071513,0.0,cheer,medwf,
151,s278,151,kremp,kr,re,em,mp,l,r,e,m,p,,0.9126792000606656,1.0407612000126392,1.104768600082025,1.2007607999257743,1.3686230999883264,0.0,lremp,pseudo,
152,s278,152,cooed,co,oo,oe,ed,c,o,o,e,d,,0.5806523999199271,0.692692199954763,0.8447532998397946,0.9487208998762071,1.1246978999115527,0.0,cooed,lowwf,
153,s278,153,faqir,fa,aq,qi,ir,f,a,w,i,r,,0.9046950000338256,1.0808107000775635,1.7207064998801798,1.912658599903807,2.0086457999423146,0.0,fawir,lowwf,
154,s278,154,cheer,ch,he,ee,er,c,h,e,e,r,,1.1486953999847174,1.2447448000311852,1.3486237998586148,1.492668499937281,1.5729113998822868,0.0,cheer,medwf,
155,s278,155,druze,dr,ru,uz,ze,d,r,u,z,e,,1.00087060010992,1.240625100210309,2.2646461999975145,2.440646600211039,2.712613700190559,0.0,druze,lowwf,
156,s278,156,theme,th,he,em,me,t,h,e,m,e,,0.6765958999749273,0.8206597999669611,0.9328052999917418,1.092573800124228,1.196579100098461,0.0,theme,medwf,
157,s278,157,would,wo,ou,ul,ld,w,o,u,l,d,,0.600635499926284,0.800612999824807,0.8565897999797016,1.0646652998402715,1.1684782998636365,0.0,would,highwf,
158,s278,158,think,th,hi,in,nk,t,h,i,n,k,,0.5885207999963313,0.6845090999267995,0.7884559999220073,0.9164644000120461,0.9964616999495775,0.0,think,highwf,
159,s278,159,vodka,vo,od,dk,ka,v,i,d,k,a,,1.232504100073129,1.440486100036651,1.776519700186327,1.9764760001562536,2.0966573001351207,0.0,vidka,medwf,
160,s278,160,cooed,co,oo,oe,ed,c,o,o,e,d,,0.980492000002414,1.2444788999855518,1.604481799993664,1.8684746001381427,2.116429900052026,0.0,cooed,lowwf,
161,s278,161,theme,th,he,em,me,t,h,e,m,e,,0.6644078001845628,0.8083335000555962,0.952411700040102,1.1203716001473367,1.232512200018391,0.0,theme,medwf,
162,s278,162,cooed,co,oo,oe,ed,c,o,o,e,d,,0.5644282000139356,0.7163823998998851,0.8683780999854207,1.0125229000113904,1.196532699977979,0.0,cooed,lowwf,
163,s278,163,would,wo,ou,ul,ld,w,o,u,l,d,,0.8883232001680881,1.0883061001077294,1.1603922001086175,1.384319300064817,1.4883214000146836,0.0,would,highwf,
164,s278,164,there,th,he,er,re,t,h,e,r,e,,0.7322700000368059,0.8363606000784785,0.9483740001451224,1.0282083000056446,1.1322428002022207,0.0,there,highwf,
165,s278,165,buddy,bu,ud,dd,dy,b,u,d,d,y,,0.7440114000346512,0.9039362999610603,1.0320950001478195,1.1759803001768887,1.3120441001374274,0.0,buddy,highwf,
166,s278,166,therm,th,he,er,rm,t,h,e,r,m,,0.6922747001517564,0.8122802001889795,0.8842500001192093,0.9323892001993954,1.044367300113663,0.0,therm,lowwf,
167,s278,167,about,ab,bo,ou,ut,a,b,o,u,t,,0.600271699950099,0.696233999915421,0.9043352999724448,0.9682505999226123,1.1042126999236643,0.0,about,highwf,
168,s278,168,haole,ha,ao,ol,le,h,a,o,l,e,,0.8522211001254618,0.9481709999963641,1.1162227001041174,1.3162324000149965,1.3723211002070457,0.0,haole,lowwf,
169,s278,169,cheer,ch,he,ee,er,c,h,e,e,r,,0.6003407998941839,0.7121491997968405,0.8003450999967754,0.9601934999227524,1.0642251998651773,0.0,cheer,medwf,
170,s278,170,faqir,fa,aq,qi,ir,f,a,q,i,r,,1.0441525001078844,1.5002156998962164,2.4360928998794407,2.6520815000403672,2.7322088999208063,0.0,faqir,lowwf,
171,s278,171,zibja,zi,ib,bj,ja,z,i,b,j,a,,2.144061699975282,2.367981299990788,2.5920465998351574,2.7120212998706847,2.807990500004962,0.0,zibja,pseudo,
172,s278,172,vodka,vo,od,dk,ka,v,o,d,k,a,,1.180041000014171,2.1080652000382543,2.22002310003154,2.3400858999229968,2.420133300125599,0.0,vodka,medwf,
173,s278,173,edthe,ed,dt,th,he,e,d,t,h,e,,1.0480591000523418,1.2161904000677168,1.8881415000651032,1.96811530017294,2.032108800020069,0.0,edthe,pseudo,
174,s278,174,vanru,va,an,nr,ru,v,a,n,r,u,,0.8519956001546234,0.9399866999592632,1.0679500000551343,1.1720921001397073,1.3079498000442982,0.0,vanru,pseudo,
175,s278,175,belly,be,el,ll,ly,b,e,l,l,y,,0.6319563998840749,0.7361825997941196,0.8720709998160601,1.0159395998343825,1.207893499871716,0.0,belly,medwf,
176,s278,176,therm,th,he,er,rm,t,h,e,r,m,,0.6039489000104368,0.6841825000010431,0.7960917998570949,0.8599717998877168,0.9318929000291973,0.0,therm,lowwf,
177,s278,177,would,wo,ou,ul,ld,w,o,u,l,d,,0.5680351001210511,0.7198557001538575,0.7759666000492871,0.967810400063172,1.0798353001009673,0.0,would,highwf,
178,s278,178,vanru,va,an,nr,ru,v,a,n,r,u,,1.0038412001449615,1.0841636001132429,1.1959400000050664,1.2599335999693722,1.427766100037843,0.0,vanru,pseudo,
179,s278,179,tithe,ti,it,th,he,t,i,t,h,e,,0.8238237998448312,0.9677654998376966,1.1119071999564767,1.231919099809602,1.3198977999854833,0.0,tithe,lowwf,
180,s278,180,faqir,fa,aq,qi,ir,f,a,q,i,r,,0.8758721000049263,0.9797789000440389,1.8841184000484645,2.259766299976036,2.3398903999477625,0.0,faqir,lowwf,
181,s278,181,theme,th,he,em,me,t,h,e,m,e,,0.6557087001856416,0.7757228000555187,0.8638083999976516,1.0237512001767755,1.055794200161472,0.0,theme,medwf,
182,s278,182,haole,ha,ao,ol,le,h,a,o,l,e,,0.8197166998870671,0.9076012999285012,1.0436370999086648,1.2276057999115437,1.2756608999334276,0.0,haole,lowwf,
183,s278,183,puppy,pu,up,pp,py,p,u,p,p,y,,1.1677325998898596,1.367523199878633,1.5596102999988943,1.7116942999418825,1.8796337998937815,0.0,puppy,medwf,
184,s278,184,belly,be,el,ll,ly,b,e,l,l,y,,0.5876284998375922,0.6996009000577033,0.9396079999860376,1.091569900047034,1.2755543000530452,0.0,belly,medwf,
185,s278,185,think,th,hi,in,nk,t,h,i,n,k,,0.6795328999869525,0.7596269999630749,0.9035139000043273,1.1035725001711398,1.1436324000824243,0.0,think,highwf,
186,s278,186,pykka,py,yk,kk,ka,p,y,k,k,a,,1.1155411000363529,1.9235830001998693,2.4115540999919176,2.5874761000741273,2.6995634001214057,0.0,pykka,pseudo,
187,s278,187,tithe,ti,it,th,he,t,i,t,h,e,,0.871484300121665,0.9755998000036925,1.1195457999128848,1.2394542000256479,1.327581899939105,0.0,tithe,lowwf,
188,s278,188,vodka,vo,od,dk,ka,v,o,d,k,a,,1.1874446000438184,1.4034494999796152,2.0839020998682827,2.3474161999765784,2.4754341999068856,0.0,vodka,medwf,
189,s278,189,haole,ha,ao,ol,le,h,a,o,l,e,,1.0793969999067485,1.2393868998624384,1.3593980998266488,1.5354055999778211,1.591370299924165,0.0,haole,lowwf,
190,s278,190,belly,be,el,ll,ly,b,e,l,l,y,,1.0353913998696953,1.1873168000020087,1.3234002999961376,1.467343800002709,1.723517799982801,0.0,belly,medwf,
191,s278,191,therm,th,he,er,rm,t,h,e,r,m,,0.6793742999434471,0.831485299859196,0.8953568998258561,0.9594564998988062,1.0794632998295128,0.0,therm,lowwf,
192,s278,192,about,ab,bo,ou,ut,a,b,o,u,t,,0.7073036001529545,0.7872576001100242,0.995316400192678,1.0594940001610667,1.1792817001696676,0.0,about,highwf,
193,s278,193,would,wo,ou,ul,ld,w,o,u,l,d,,0.623260400025174,0.7512401000130922,0.8312262000981718,0.9913558000698686,1.095287499949336,0.0,would,highwf,
194,s278,194,edthe,ed,dt,th,he,e,d,t,h,e,,0.6673870999366045,0.859251799993217,1.0512121999636292,1.1792088998481631,1.2675419999286532,0.0,edthe,pseudo,
195,s278,195,champ,ch,ha,am,mp,c,h,a,n,p,y,0.655435899971053,0.8632004000246525,0.9510870999656618,1.1513066000770777,1.383178000105545,1.567411300027743,chanpy,medwf,
196,s278,196,vanru,va,an,nr,ru,v,a,n,r,u,,0.8591598998755217,0.947328899987042,1.0911323998589069,1.1631610998883843,1.315320799825713,0.0,vanru,pseudo,
197,s278,197,buddy,bu,ud,dd,dy,b,u,d,d,y,,0.9431398999877274,1.0791249999310821,1.199235700070858,1.3432211000472307,1.4554093000479043,0.0,buddy,highwf,
198,s278,198,druze,dr,ru,uz,ze,d,r,u,e,,,0.9070805001538247,1.1069773000199348,1.3550915999803692,2.027136400109157,0.0,0.0,drue,lowwf,
199,s278,199,edthe,ed,dt,th,he,e,d,t,h,e,,0.8712879000231624,1.0550424000248313,1.271023399895057,1.3990182999987155,1.4231527000665665,0.0,edthe,pseudo,
200,s278,200,zibja,zi,ib,bj,ja,z,i,b,j,a,,0.8509843999054283,1.0430793999694288,1.250989899970591,1.4029547998216003,1.4832182000391185,0.0,zibja,pseudo,
201,s278,201,about,ab,bo,ou,ut,a,b,o,u,t,,0.7349710001144558,0.8309647999703884,1.2469399000983685,1.3749685001093894,1.5110059001017362,0.0,about,highwf,
202,s278,202,champ,ch,ha,am,mp,c,h,a,m,p,,1.0509728000033647,1.1549570998176932,1.2990222999360412,1.722944299923256,1.9389551000203937,0.0,champ,medwf,
203,s278,203,lucky,lu,uc,ck,ky,l,u,c,k,y,,0.614946800051257,0.8149256000760943,0.9188971999101341,1.0310075001325458,1.23893509991467,0.0,lucky,highwf,
204,s278,204,theme,th,he,em,me,t,h,e,m,e,,0.6908626998774707,0.8347547999583185,0.9788478999398649,1.1468001999892294,1.2429346998687834,0.0,theme,medwf,
205,s278,205,pykka,py,yk,kk,ka,p,y,k,k,a,,0.9669391999486834,1.1428161000367254,1.3588290999177843,1.5028007000219077,1.614795699948445,0.0,pykka,pseudo,
206,s278,206,vanru,va,an,nr,ru,v,a,n,r,u,,0.8508417999837548,0.9867458001244813,1.4828300001099706,1.66672100010328,1.7867125000339001,0.0,vanru,pseudo,
207,s278,207,kremp,kr,re,em,mp,k,r,e,m,p,,0.9027776999864727,1.0066895000636578,1.086707300040871,1.1748444999102503,1.3266793000511825,0.0,kremp,pseudo,
208,s278,208,heond,he,eo,on,nd,h,e,o,n,d,,0.8906622000504285,1.0186296000611037,1.082783400081098,1.2186435000039637,1.2906285000499338,0.0,heond,pseudo,
209,s278,209,think,th,hi,in,nk,t,h,i,n,k,,0.6626955999527127,0.7747007999569178,0.886701500043273,1.0546843998599797,1.102786700008437,0.0,think,highwf,
210,s278,210,druze,dr,ru,uz,ze,d,r,u,z,e,,0.7067423001863062,0.9146202001720667,1.0586282000876963,2.626775300130248,2.906596900196746,0.0,druze,lowwf,
211,s278,211,there,th,he,er,re,t,h,e,r,e,,0.6465771000366658,0.7828122000209987,0.9025554000400007,1.0306027999613434,1.1346195000223815,0.0,there,highwf,
212,s278,212,puppy,pu,up,pp,py,p,u,p,p,y,,1.4266927998978645,1.7385747998487204,1.9305324999149889,2.090527300024405,2.3625461999326944,0.0,puppy,medwf,
213,s278,213,druze,dr,ru,uz,ze,d,u,r,,,,1.1905191000550985,1.6944766000378877,3.406504899961874,0.0,0.0,0.0,dur,lowwf,
214,s278,214,would,wo,ou,ul,ld,w,o,u,l,d,,0.6665169999469072,0.8424772000871599,0.874448399990797,1.10641900007613,1.1864390999544412,0.0,would,highwf,
215,s278,215,champ,ch,ha,am,mp,c,h,a,m,p,,0.7424508999101818,0.8544618000742048,0.9506202000193298,1.102447499986738,1.2945614999625832,0.0,champ,medwf,
216,s278,216,cooed,co,oo,oe,ed,c,o,o,e,d,,0.6509523999411613,0.8104394001420587,0.978540499927476,1.1223808999639004,1.2984337999951094,0.0,cooed,lowwf,
217,s278,217,pykka,py,yk,kk,ka,p,y,k,k,a,,0.9826009999960661,1.494357000105083,1.734576900023967,1.9023637000937015,2.1103937001898885,0.0,pykka,pseudo,
218,s278,218,vodka,vo,od,dk,ka,v,i,d,k,a,,1.0823061000555754,1.2822699001990259,1.3862229001242667,1.5223914000671357,1.626247800188139,0.0,vidka,medwf,
219,s278,219,kremp,kr,re,em,mp,k,r,e,m,p,,0.9420160001609474,1.0939588001929224,1.133965500164777,1.2539763001259416,1.4139862000010908,0.0,kremp,pseudo,
220,s278,220,heond,he,eo,on,nd,h,e,o,n,d,,0.7462607999332249,0.8742716999258846,1.002327400026843,1.1382792999502271,1.2502007000148296,0.0,heond,pseudo,
221,s278,221,edthe,ed,dt,th,he,e,d,t,h,e,,0.7581990999169648,0.9422087999992073,1.0461510999593884,1.2141776999924332,1.2381615000776947,0.0,edthe,pseudo,
222,s278,222,cooed,co,oo,oe,ed,c,o,o,e,d,,0.7142173000611365,0.8823198999743909,1.0261802999302745,1.1381772998720407,1.3061687999870628,0.0,cooed,lowwf,
223,s278,223,lucky,lu,uc,ck,ky,k,e,i,c,k,y,0.9021920999512076,1.0381370999384671,2.7262981000822037,2.9102465000469238,3.054263300029561,3.2863078000955284,keicky,highwf,
224,s278,224,haole,ha,ao,ol,le,h,a,o,l,e,,0.7462705001235008,0.842216799966991,0.9541522001381963,1.1060550000984222,1.1702417000196874,0.0,haole,lowwf,
225,s278,225,pykka,py,yk,kk,ka,p,y,k,k,a,,0.9262359000276774,1.1662109000608325,1.32608040003106,1.4782980000600219,1.590242699952796,0.0,pykka,pseudo,
226,s278,226,champ,ch,ha,am,mp,c,h,a,m,p,,0.6580409000162035,0.7620484000071883,0.8660150999203324,1.0020452998578548,1.1540335998870432,0.0,champ,medwf,
227,s278,227,faqir,fa,aq,qi,ir,f,a,q,i,r,,1.038010099902749,1.1659158999100327,1.910000099800527,2.1341311999130994,2.2700972999446094,0.0,faqir,lowwf,
228,s278,228,think,th,hi,in,nk,t,h,i,n,k,,0.6098100000526756,0.7297630000393838,0.8419113999698311,0.937738599954173,1.033934700069949,0.0,think,highwf,
229,s278,229,kremp,kr,re,em,mp,k,r,e,m,p,,0.7499394998885691,0.8778979999478906,0.9499717999715358,1.045873599825427,1.1979253999888897,0.0,kremp,pseudo,
230,s278,230,haole,ha,ao,ol,le,h,a,o,l,e,,0.7779351000208408,0.8739632000215352,0.9942557001486421,1.177935800049454,1.2501104001421481,0.0,haole,lowwf,
231,s278,231,about,ab,bo,ou,ut,a,b,o,u,t,,0.5578352999873459,0.6618532000575215,0.8458177000284195,0.9100293000228703,1.0138566999230534,0.0,about,highwf,
232,s278,232,zibja,zi,ib,bj,ja,z,i,b,j,a,,1.9698463999666274,2.297792199999094,2.6818057999480516,2.993802099954337,3.1697972000110894,0.0,zibja,pseudo,
233,s278,233,therm,th,he,er,rm,t,h,e,r,m,,0.7097804001532495,0.8138252000790089,0.8939418001100421,0.9418748000171036,1.0379900999832898,0.0,therm,lowwf,
234,s278,234,cheer,ch,he,ee,er,c,h,e,e,r,,0.6257548001594841,0.7538710001390427,0.9138031001202762,1.0737593001686037,1.1698514001909643,0.0,cheer,medwf,
235,s278,235,edthe,ed,dt,th,he,e,d,t,h,e,,0.7175968000665307,0.8776349001564085,1.0695865000598133,1.1895358001347631,1.2455804999917746,0.0,edthe,pseudo,
236,s278,236,vanru,va,an,nr,ru,v,a,n,r,u,,1.281719900202006,1.409698200179264,1.5056644000578672,1.6656307000666857,2.2498668001499027,0.0,vanru,pseudo,
237,s278,237,zibja,zi,ib,bj,ja,z,i,b,j,a,,1.3736592999193817,1.605589599814266,1.8377531999722123,1.9897355998400599,2.109914699802175,0.0,zibja,pseudo,
238,s278,238,puppy,pu,up,pp,py,p,u,p,p,y,,0.9856734999921173,1.1936131999827921,1.3616959999781102,1.5136963999830186,1.7296835000161082,0.0,puppy,medwf,
239,s278,239,tithe,ti,it,th,he,t,i,t,h,e,,0.7815610999241471,0.9017252000048757,1.013650800101459,1.117544800043106,1.1977860999759287,0.0,tithe,lowwf,
