,sID,Trial #,string,bi_1,bi_2,bi_3,bi_4,key_resp.keys.1,key_resp.keys.2,key_resp.keys.3,key_resp.keys.4,key_resp.keys.5,key_resp.keys.6,key_resp.keys.7,key_resp.rt.1,key_resp.rt.2,key_resp.rt.3,key_resp.rt.4,key_resp.rt.5,key_resp.rt.6,key_resp.rt.7,resp_string,WF Type,BF Type
0,p10,0,haole,ha,ao,ol,le,h,a,i,backspace,o,l,e,1.57147740497021,1.7394242929876782,2.019424142956268,2.595436888979748,2.9794780510128476,3.147426854004152,3.227453922969289,haibackspaceole,lowwf,medbf
1,p10,1,buddy,bu,ud,dd,dy,b,u,d,d,y,,,1.2510919829946943,1.5230573980370536,1.8270996750216,2.0030284890090115,2.0910401709843427,0.0,0.0,buddy,highwf,lowbf
2,p10,2,druze,dr,ru,uz,ze,d,r,u,z,e,,,0.9126923400326632,1.1368124230066314,1.320724635035731,1.6647293920395896,1.9527325910166837,0.0,0.0,druze,lowwf,lowbf
3,p10,3,puppy,pu,up,pp,py,p,u,p,p,y,,,1.0122487140470184,1.5163247510208748,1.7962493850500323,1.9402203170466237,2.124186149041634,0.0,0.0,puppy,medwf,lowbf
4,p10,4,therm,th,he,er,rm,t,h,e,r,m,,,1.069384174013976,1.285395770042669,1.413475000008475,1.613925283018034,1.7416556540410966,0.0,0.0,therm,lowwf,highbf
5,p10,5,haole,ha,ao,ol,le,h,a,o,l,e,,,1.138388429011684,1.3385968310176395,1.5943915270036086,1.77038621698739,1.8743997699930333,0.0,0.0,haole,lowwf,medbf
6,p10,6,about,ab,bo,ou,ut,a,b,o,u,t,,,0.8068606700398959,1.0309079220169224,1.2548558380221948,1.4308952889987268,1.5269129510270432,0.0,0.0,about,highwf,medbf
7,p10,7,champ,ch,ha,am,mp,c,h,a,m,p,,,0.9949217810062692,1.1469758560415357,1.3069319530040957,1.4509232630371116,1.6429248250206,0.0,0.0,champ,medwf,medbf
8,p10,8,would,wo,ou,ul,ld,w,o,u,l,d,,,1.0550881139934063,1.6631460990174673,1.8791133550112136,2.247173292969819,2.3590683930087835,0.0,0.0,would,highwf,medbf
9,p10,9,vanru,va,an,nr,ru,v,a,n,r,u,,,1.3694499870180152,1.465441517997533,1.7374493419774808,1.977542602980975,2.1058488939888775,0.0,0.0,vanru,pseudo,medbf
10,p10,10,pykka,py,yk,kk,ka,p,y,k,k,a,f,,1.1427403209963813,1.5107968329684809,1.8227720009745099,1.9427500540041365,2.030796126986388,2.662784610991366,0.0,pykkaf,pseudo,lowbf
11,p10,11,would,wo,ou,ul,ld,w,u,l,d,,,,0.9867430080194026,1.6906834159744903,2.0106899910024367,2.1226846849895082,0.0,0.0,0.0,wuld,highwf,medbf
12,p10,12,cheer,ch,he,ee,er,c,h,e,e,r,,,0.8544838590314612,1.014475753006991,1.1904709150549024,1.3825538420351222,1.5744726289995015,0.0,0.0,cheer,medwf,highbf
13,p10,13,about,ab,bo,ou,ut,a,b,o,u,t,,,0.9706672840402462,1.1786410119966604,1.4586364240385592,1.7786792440456338,1.898713687027339,0.0,0.0,about,highwf,medbf
14,p10,14,zibja,zi,ib,bj,ja,a,b,i,j,,,,1.317280118004419,1.6293155379826203,3.0692737409844995,3.405266560963355,0.0,0.0,0.0,abij,pseudo,lowbf
15,p10,15,druze,dr,ru,uz,ze,d,r,u,z,e,,,1.2660567429848015,1.5140199500019662,1.6420142980059609,1.9140097869676538,2.170062713965308,0.0,0.0,druze,lowwf,lowbf
16,p10,16,vanru,va,an,nr,ru,v,a,n,r,u,,,1.0700766860391013,1.1740288430009969,1.3740181929897517,1.542021363042295,1.670067569008097,0.0,0.0,vanru,pseudo,medbf
17,p10,17,buddy,bu,ud,dd,dy,b,u,d,d,y,,,0.8659401399781927,1.1138953879708424,1.2898578469757922,1.465964952018112,1.561907393974252,0.0,0.0,buddy,highwf,lowbf
18,p10,18,tithe,ti,it,th,he,t,i,t,h,e,,,1.1020637270412408,1.414017639006488,1.7180611380026676,1.942023619019892,2.0540623030392453,0.0,0.0,tithe,lowwf,highbf
19,p10,19,kremp,kr,re,em,mp,k,r,e,m,p,,,1.1700374420033768,1.297976556001231,1.5219770449912176,1.6579890149878338,1.8820166590157896,0.0,0.0,kremp,pseudo,medbf
20,p10,20,cooed,co,oo,oe,ed,c,o,o,e,d,,,1.0220110119553283,1.4140128629514948,1.8460132549516857,2.2300992109812796,2.4540525960037485,0.0,0.0,cooed,lowwf,medbf
21,p10,21,vanru,va,an,nr,ru,v,a,n,r,u,,,1.065948917006608,1.2178781449911185,1.4178795999614522,1.5699347839690745,1.6979093969566748,0.0,0.0,vanru,pseudo,medbf
22,p10,22,puppy,pu,up,pp,py,p,u,p,p,y,,,0.9178700670017861,1.2218199289636686,1.6298723410000093,1.7978222519741394,1.8938456230098382,0.0,0.0,puppy,medwf,lowbf
23,p10,23,faqir,fa,aq,qi,ir,f,a,q,i,r,,,1.857440444000531,1.961440269020386,2.201506461016834,2.4414409280288965,3.09744005597895,0.0,0.0,faqir,lowwf,lowbf
24,p10,24,cooed,co,oo,oe,ed,c,o,o,e,d,,,0.8379664300009608,1.03000572999008,1.1820360079873353,1.349991915980354,1.5660387059906498,0.0,0.0,cooed,lowwf,medbf
25,p10,25,there,th,he,er,re,t,h,e,r,e,,,0.906021717004478,1.10602458298672,1.194027028977871,1.3860753659973852,1.5781271969899535,0.0,0.0,there,highwf,highbf
26,p10,26,puppy,pu,up,pp,py,p,u,p,p,y,,,0.8779879409703426,1.237912462966051,1.6299561189953238,1.78195842000423,1.8779901210218668,0.0,0.0,puppy,medwf,lowbf
27,p10,27,tithe,ti,it,th,he,t,i,t,h,e,,,0.9300783390062861,1.1140887499786913,1.1940386740025133,1.3620392989832908,1.4740399760194123,0.0,0.0,tithe,lowwf,highbf
28,p10,28,lucky,lu,uc,ck,ky,l,u,c,k,y,,,0.9659865919966251,1.2619560689781792,1.4939412110252306,1.637936728016939,1.8939412549952976,0.0,0.0,lucky,highwf,lowbf
29,p10,29,cheer,ch,he,ee,er,c,h,e,e,r,,,0.7459232459659688,0.9219180049840361,1.065965857997071,1.2419331209966913,1.44192968896823,0.0,0.0,cheer,medwf,highbf
30,p10,30,haole,ha,ao,ol,le,h,a,o,l,e,,,0.9816560230101459,1.0696739600389265,1.2696762840496376,1.4376205640146509,1.5176993510103785,0.0,0.0,haole,lowwf,medbf
31,p10,31,puppy,pu,up,pp,py,p,u,p,y,p,,,0.9779562070034444,1.2179661870468408,1.47392984299222,1.753963057009969,1.8899027320439927,0.0,0.0,pupyp,medwf,lowbf
32,p10,32,belly,be,el,ll,ly,b,e,l,l,y,,,0.8939058690448292,1.0539926700294018,1.2619056060211733,1.4139042160240933,1.5339054740034044,0.0,0.0,belly,medwf,medbf
33,p10,33,lucky,lu,uc,ck,ky,l,u,c,h,y,,,1.0180166839854792,1.3939288849942386,1.7939235210069455,1.9699662210186943,3.1619409709819593,0.0,0.0,luchy,highwf,lowbf
34,p10,34,cooed,co,oo,oe,ed,c,o,o,e,d,,,0.8298717039870098,1.0378164639696479,1.1738113450119272,1.301860356994439,1.5498745829681866,0.0,0.0,cooed,lowwf,medbf
35,p10,35,cheer,ch,he,ee,er,c,h,e,e,r,,,0.7378497140016407,0.9058485730201937,1.057853997044731,1.2818898030091077,1.5058509460068308,0.0,0.0,cheer,medwf,highbf
36,p10,36,belly,be,el,ll,ly,b,e,l,l,l,y,,0.7976809140527621,0.9256856780266389,1.173691594041884,1.3177334979991429,1.461695142032113,1.629799175017979,0.0,bellly,medwf,medbf
37,p10,37,vanru,va,an,nr,ru,v,a,n,r,u,,,1.129354499047622,1.2413486370351166,1.4014861360192299,1.5533970820251852,1.6733473120257258,0.0,0.0,vanru,pseudo,medbf
38,p10,38,cooed,co,oo,oe,ed,c,o,o,e,d,,,1.0210668559884652,1.2050459409947507,1.3491051840246655,1.4691119429771788,1.7970365619985387,0.0,0.0,cooed,lowwf,medbf
39,p10,39,would,wo,ou,ul,ld,w,o,u,l,d,,,1.0330603869515471,1.38507594098337,1.640996762958821,1.9770097519503906,2.104993086948525,0.0,0.0,would,highwf,medbf
40,p10,40,about,ab,bo,ou,ut,a,b,o,u,t,,,1.0614029939752072,1.2372439129976556,1.493309966986999,1.701251575956121,1.8053316769655794,0.0,0.0,about,highwf,medbf
41,p10,41,therm,th,he,er,rm,t,h,e,r,m,,,0.9212457190151326,1.1453425079816952,1.2412387789809145,1.4492989580030553,1.5452828059787862,0.0,0.0,therm,lowwf,highbf
42,p10,42,vodka,vo,od,dk,ka,v,o,d,k,a,,,1.0451457020244561,1.7250951300375164,1.845129072025884,1.973064596997574,2.1570672880043276,0.0,0.0,vodka,medwf,lowbf
43,p10,43,tithe,ti,it,th,he,t,i,t,h,e,,,0.8648858270025812,1.0088487190078013,1.1129126320010982,1.2808478130027652,1.4648874970152974,0.0,0.0,tithe,lowwf,highbf
44,p10,44,edthe,ed,dt,th,he,e,d,t,h,e,,,1.4931450330186635,1.6931576530332677,1.7971600760356523,2.021129581029527,2.117134709027596,0.0,0.0,edthe,pseudo,highbf
45,p10,45,zibja,zi,ib,bj,ja,z,i,b,j,,,,2.3129933710442856,2.5369732810067944,3.1049366400111467,3.4650076950201765,0.0,0.0,0.0,zibj,pseudo,lowbf
46,p10,46,cheer,ch,he,ee,er,c,h,e,e,r,,,0.9165378420148045,1.0445625590509735,1.1724887500167824,1.4285205579944886,1.4285205579944886,0.0,0.0,cheer,medwf,highbf
47,p10,47,lucky,lu,uc,ck,ky,l,u,c,k,y,,,0.8083970969892107,1.1923874610220082,1.344437102030497,1.5044091730378568,1.7364315779996105,0.0,0.0,lucky,highwf,lowbf
48,p10,48,about,ab,bo,ou,ut,a,b,o,u,t,,,1.0605277310241945,1.2205131869995967,1.5565140530234203,1.8125167810358107,1.9085270910291001,0.0,0.0,about,highwf,medbf
49,p10,49,champ,ch,ha,am,mp,c,h,a,m,p,,,0.8484592739841901,1.0004122820100747,1.2004157539922744,1.408413007040508,1.7684579310007393,0.0,0.0,champ,medwf,medbf
50,p10,50,heond,he,eo,on,nd,h,e,o,n,d,,,1.651924842968583,2.0439252969808877,2.203839246998541,2.48388855002122,2.89984235400334,0.0,0.0,heond,pseudo,highbf
51,p10,51,vodka,vo,od,dk,ka,v,o,d,k,a,,,1.0165481769945472,1.1685846289619803,1.3285472230054438,1.5605087459553033,1.6644996849936433,0.0,0.0,vodka,medwf,lowbf
52,p10,52,zibja,zi,ib,bj,ja,z,i,b,j,a,,,1.3403620640165173,1.5324116430128925,1.7643616890418343,1.980401219043415,2.0524341740529053,0.0,0.0,zibja,pseudo,lowbf
53,p10,53,about,ab,bo,ou,ut,a,b,o,u,t,,,0.8642130649532191,1.0002221819595434,1.232252471963875,1.4162604910088703,1.4962546739843674,0.0,0.0,about,highwf,medbf
54,p10,54,kremp,kr,re,em,mp,k,r,e,m,p,,,1.0522452130098827,1.1803679619915783,1.4121977500035428,1.5401954149710946,1.7721960519556887,0.0,0.0,kremp,pseudo,medbf
55,p10,55,tithe,ti,it,th,he,t,i,t,h,e,,,1.0003276049974374,1.1043186630122364,1.2003228350076824,1.3603648099815473,1.4803888750029728,0.0,0.0,tithe,lowwf,highbf
56,p10,56,heond,he,eo,on,nd,h,e,o,n,d,,,1.1562568440567702,1.3242589470464736,1.444276983034797,1.67623474705033,1.8202582450467162,0.0,0.0,heond,pseudo,highbf
57,p10,57,there,th,he,er,re,t,h,e,r,e,,,0.7763630470144562,1.1284735670196824,1.2403956460184418,1.4563585930154659,1.6563564520329237,0.0,0.0,there,highwf,highbf
58,p10,58,think,th,hi,in,nk,t,h,i,n,k,,,0.876456385012716,1.1084512550150976,1.3324926089844666,1.5244817130151205,1.748521575005725,0.0,0.0,think,highwf,highbf
59,p10,59,druze,dr,ru,uz,ze,d,r,u,z,e,,,1.0804566229926422,1.3043756569968536,1.432417647971306,1.7043777789804153,1.9763948429608718,0.0,0.0,druze,lowwf,lowbf
60,p10,60,belly,be,el,ll,ly,b,e,l,l,y,,,0.8285769989597611,0.9405366579885595,1.1644935899530537,1.3165391059592366,1.4605164919630624,0.0,0.0,belly,medwf,medbf
61,p10,61,edthe,ed,dt,th,he,e,d,t,h,e,,,0.920482337998692,1.1285233660019003,1.3205502339988016,1.5044673850061372,1.576482489996124,0.0,0.0,edthe,pseudo,highbf
62,p10,62,think,th,hi,in,nk,t,h,i,n,k,,,0.7964252330129966,0.9003861069795676,1.0843758709961548,1.3083776900311932,1.5003490659873933,0.0,0.0,think,highwf,highbf
63,p10,63,theme,th,he,em,me,t,h,e,m,e,,,0.8241307139978744,1.1121849049814045,1.576157154981047,1.7121593710035086,1.8081337719922885,0.0,0.0,theme,medwf,highbf
64,p10,64,think,th,hi,in,nk,t,h,i,n,k,,,0.8764517169911414,1.0285093190032057,1.2044441479956731,1.3965534479939379,1.6044381280080415,0.0,0.0,think,highwf,highbf
65,p10,65,therm,th,he,er,rm,t,h,e,r,m,,,0.8639041180140339,1.0079046980245039,1.1599653779994696,1.4479468979989178,1.6239061870146543,0.0,0.0,therm,lowwf,highbf
66,p10,66,kremp,kr,re,em,mp,k,r,e,m,p,,,0.9154823190183379,1.043503976019565,1.2514428160502575,1.323419702006504,1.5394033130141906,0.0,0.0,kremp,pseudo,medbf
67,p10,67,champ,ch,ha,am,mp,c,h,a,m,p,,,0.8394493570085615,1.0795492970501073,1.2554456480429508,1.4394389580120333,1.6874679640168324,0.0,0.0,champ,medwf,medbf
68,p10,68,faqir,fa,aq,qi,ir,f,a,q,i,r,,,0.9227317799814045,1.3707556659937836,1.6107864390360191,1.7227635980234481,1.9067439869977534,0.0,0.0,faqir,lowwf,lowbf
69,p10,69,therm,th,he,er,rm,t,h,e,r,m,,,0.7991281850263476,1.023083491018042,1.1430409040185623,1.3590411870391108,1.4310321590164676,0.0,0.0,therm,lowwf,highbf
70,p10,70,pykka,py,yk,kk,ka,p,y,k,k,a,,,1.1467387730372138,1.4507424090406857,1.7707363840308972,1.9148124960483983,2.0427472620503977,0.0,0.0,pykka,pseudo,lowbf
71,p10,71,faqir,fa,aq,qi,ir,f,a,q,i,r,,,1.007663264987059,1.3676692789886147,1.591663500003051,1.7197172610322013,1.8797174770152196,0.0,0.0,faqir,lowwf,lowbf
72,p10,72,think,th,hi,in,nk,t,h,i,n,k,,,0.787512078997679,0.9155530880088918,1.4115677360096015,1.643524929007981,1.8675281290197745,0.0,0.0,think,highwf,highbf
73,p10,73,champ,ch,ha,am,mp,c,h,a,m,p,,,0.7357578960363753,0.9597280550515279,1.055711452034302,1.231752977008,1.4797652310226113,0.0,0.0,champ,medwf,medbf
74,p10,74,haole,ha,ao,ol,le,h,a,o,l,e,,,1.0756844870047644,1.203761722019408,1.395723091030959,1.563729442015756,1.667691187991295,0.0,0.0,haole,lowwf,medbf
75,p10,75,pykka,py,yk,kk,ka,p,y,k,k,a,,,0.9983846709947102,1.2783896430046298,1.4623840510030277,1.606337353005074,1.7183843820239417,0.0,0.0,pykka,pseudo,lowbf
76,p10,76,edthe,ed,dt,th,he,e,d,t,h,e,,,0.8987977340002544,1.114772481028922,1.25876363000134,1.4587309689959511,1.5547660710290074,0.0,0.0,edthe,pseudo,highbf
77,p10,77,faqir,fa,aq,qi,ir,f,a,q,i,r,,,0.9346882299869321,1.246802175999619,1.518745785986539,1.70312759000808,1.8627692890004255,0.0,0.0,faqir,lowwf,lowbf
78,p10,78,vodka,vo,od,dk,ka,v,o,d,k,a,,,0.9310667280224152,1.1711229690117761,1.3631055389996618,1.5710441900300793,1.6910446230322123,0.0,0.0,vodka,medwf,lowbf
79,p10,79,pykka,py,yk,kk,ka,p,y,k,k,a,,,1.0630049729952589,1.4070107489824295,1.7830519499839284,1.967004015983548,2.1190873500308953,0.0,0.0,pykka,pseudo,lowbf
80,p10,80,kremp,kr,re,em,mp,k,r,e,m,p,,,1.099017275031656,1.2350226260023192,1.450983131013345,1.53897486301139,1.8030247549759224,0.0,0.0,kremp,pseudo,medbf
81,p10,81,vodka,vo,od,dk,ka,v,o,d,k,a,,,1.1348758779931813,2.0787877980037592,2.2227888929774053,2.5268021369702183,2.6147880269563757,0.0,0.0,vodka,medwf,lowbf
82,p10,82,cheer,ch,he,ee,er,c,h,e,e,r,,,1.0987795619876124,1.314814520010259,1.6028248729999177,1.8187814780394547,2.0747331370366737,0.0,0.0,cheer,medwf,highbf
83,p10,83,cooed,co,oo,oe,ed,c,o,o,e,d,,,0.8226111860130914,1.038646791013889,1.2226098229875788,1.3266381219727919,1.56661154597532,0.0,0.0,cooed,lowwf,medbf
84,p10,84,faqir,fa,aq,qi,ir,f,a,q,i,r,,,0.8748448819969781,1.3068423889926635,1.5868866199743934,1.7388545769499615,1.8908389499993064,0.0,0.0,faqir,lowwf,lowbf
85,p10,85,there,th,he,er,re,t,h,e,r,e,,,0.8949573769932613,1.1108676150324754,1.230904144991655,1.4228701239917427,1.6229265650035813,0.0,0.0,there,highwf,highbf
86,p10,86,would,wo,ou,ul,ld,w,o,u,l,d,,,0.8189349389867857,1.0349776379880495,1.2829301980091259,1.6189362870063633,1.7309101840364747,0.0,0.0,would,highwf,medbf
87,p10,87,belly,be,el,ll,ly,b,e,l,l,y,,,0.814597287971992,0.934602310997434,1.1665637120022438,1.3106219919864088,1.4946181990089826,0.0,0.0,belly,medwf,medbf
88,p10,88,buddy,bu,ud,dd,dy,b,u,d,d,y,,,0.738863569975365,0.9868826160090975,1.1308372389758006,1.3068384409998544,1.3949057729914784,0.0,0.0,buddy,highwf,lowbf
89,p10,89,there,th,he,er,re,t,h,e,r,e,,,0.7826703949831426,0.9746925589861348,1.0786121189594269,1.262612550985068,1.4626091429963708,0.0,0.0,there,highwf,highbf
90,p10,90,lucky,lu,uc,ck,ky,l,u,c,k,y,,,0.7948726619943045,1.114816894987598,1.3148577010142617,1.4668210559757426,1.754809155012481,0.0,0.0,lucky,highwf,lowbf
91,p10,91,would,wo,ou,ul,ld,w,o,u,l,d,,,0.8862076040240936,1.1101498090429232,1.4941358320065774,1.9021926849964075,2.038130101049319,0.0,0.0,would,highwf,medbf
92,p10,92,buddy,bu,ud,dd,dy,b,u,d,d,y,,,0.8741419700090773,1.1862134159891866,1.4261532030068338,1.6021852070116438,1.698188501992263,0.0,0.0,buddy,highwf,lowbf
93,p10,93,heond,he,eo,on,nd,h,e,o,n,d,,,0.9498559820349328,1.037858606025111,1.221855140000116,1.4618580430396833,1.621849671995733,0.0,0.0,heond,pseudo,highbf
94,p10,94,edthe,ed,dt,th,he,e,d,t,h,e,,,0.8339437570539303,1.049935766030103,1.1540186130441725,1.345976191048976,1.409941564023029,0.0,0.0,edthe,pseudo,highbf
95,p10,95,buddy,bu,ud,dd,dy,b,u,d,d,y,,,0.7741468289750628,0.9821647189673968,1.126128115982283,1.2941716489731334,1.3821632459876128,0.0,0.0,buddy,highwf,lowbf
96,p10,96,vodka,vo,od,dk,ka,v,o,d,j,k,a,,0.8658845800091513,1.4979022560291924,1.6258533879881725,1.7858917160192505,2.76184985000873,2.8898435109877028,0.0,vodjka,medwf,lowbf
97,p10,97,edthe,ed,dt,th,he,e,d,t,h,e,,,0.9172737299813889,1.1172928619780578,1.2133126700064167,1.373264173977077,1.421291103004478,0.0,0.0,edthe,pseudo,highbf
98,p10,98,kremp,kr,re,em,mp,k,r,e,m,p,,,0.9121099800104275,1.1361403670161963,1.3361994579900056,1.4000794640160166,1.5601248209713958,0.0,0.0,kremp,pseudo,medbf
99,p10,99,theme,th,he,em,me,t,h,e,m,e,,,0.8032707250094973,0.9872548659914173,1.099252347019501,1.2353769580367953,1.3392862459877506,0.0,0.0,theme,medwf,highbf
100,p10,100,heond,he,eo,on,nd,h,e,o,n,d,,,0.9199077599914744,1.1119901919737458,1.2799143269658089,1.5279505910002626,1.6558511559851468,0.0,0.0,heond,pseudo,highbf
101,p10,101,puppy,pu,up,pp,py,p,u,p,p,y,,,0.9873730659601279,1.275375481985975,1.6753774069948122,1.8674554649624042,1.9794157720170915,0.0,0.0,puppy,medwf,lowbf
102,p10,102,pykka,py,yk,kk,ka,p,y,k,k,k,a,,1.1439932229695842,1.4559353619697504,1.751980968983844,1.8719607180100866,2.111938479996752,2.2799774109735154,0.0,pykkka,pseudo,lowbf
103,p10,103,druze,dr,ru,uz,ze,d,r,u,z,e,,,1.0679217069991864,1.2679604559671134,1.3638817659812048,1.6118880189605989,1.9078757489915006,0.0,0.0,druze,lowwf,lowbf
104,p10,104,lucky,lu,uc,ck,ky,l,u,c,k,y,,,0.9280463519971818,1.343987233005464,1.4960230609867722,1.62398687901441,1.7759810449788347,0.0,0.0,lucky,highwf,lowbf
105,p10,105,zibja,zi,ib,bj,ja,z,i,b,j,a,,,1.6281833809916861,1.8361970179830678,2.148099640966393,2.4040967879700474,2.5481027250061743,0.0,0.0,zibja,pseudo,lowbf
106,p10,106,theme,th,he,em,me,t,h,e,m,e,,,0.8799675280461088,1.1119502070359886,1.2239222450298257,1.3519745020312257,1.4559290570323355,0.0,0.0,theme,medwf,highbf
107,p10,107,therm,th,he,er,rm,t,h,e,r,m,,,0.79607511498034,1.004072169016581,1.132114990032278,1.3161517860135064,1.4121667710132897,0.0,0.0,therm,lowwf,highbf
108,p10,108,vanru,va,an,nr,ru,v,a,n,r,u,,,1.223942401993554,1.3439454679610208,1.5360222949529998,1.6879409679677337,1.8079776469967328,0.0,0.0,vanru,pseudo,medbf
109,p10,109,zibja,zi,ib,bj,ja,z,i,b,j,a,,,1.147970564023126,1.3079712039907463,1.5720438350108452,1.8280312020215206,1.9320341960410587,0.0,0.0,zibja,pseudo,lowbf
110,p10,110,tithe,ti,it,th,he,t,i,t,h,,,,1.127135073998943,1.2870689659612253,1.3830775310052559,1.5191331509849988,0.0,0.0,0.0,tith,lowwf,highbf
111,p10,111,haole,ha,ao,ol,le,h,a,o,l,e,,,1.2033791049616411,1.3313011419959366,1.523303217953071,1.7233026309986599,1.8193454190040939,0.0,0.0,haole,lowwf,medbf
112,p10,112,druze,dr,ru,uz,ze,d,r,u,z,e,,,1.0231314490083605,1.271125129016582,1.3991706459783018,1.719222933985293,1.9911261620000005,0.0,0.0,druze,lowwf,lowbf
113,p10,113,there,th,he,er,re,t,h,e,r,e,,,0.7711368120508268,0.9631505850120448,1.0351753210416064,1.235153576999437,1.4191522800247185,0.0,0.0,there,highwf,highbf
114,p10,114,theme,th,he,em,me,t,h,e,m,e,,,0.8232830649940297,1.0072789959958754,1.1273232660023496,1.295291134971194,1.3592862390214577,0.0,0.0,theme,medwf,highbf
115,p10,115,champ,ch,ha,am,mp,c,h,a,m,p,,,0.7072189899627119,0.8832661539781839,1.0512941419729032,1.1792205259553157,1.4112780939904042,0.0,0.0,champ,medwf,medbf
116,p10,116,think,th,hi,in,nk,t,h,i,n,k,,,0.7194613799802028,0.903470255958382,1.1274193749995902,1.3115342750097625,1.5034734809887595,0.0,0.0,think,highwf,highbf
117,p10,117,heond,he,eo,on,nd,h,e,o,n,d,,,0.9073133199708536,1.363357633992564,1.5233145169913769,1.8273175199865364,2.0433291539666243,0.0,0.0,heond,pseudo,highbf
118,p10,118,theme,th,he,em,me,t,h,e,m,e,,,0.8392052769777365,1.0312017329852097,1.1352473839651793,1.2952347309910692,1.3752384369727224,0.0,0.0,theme,medwf,highbf
119,p10,119,belly,be,el,ll,ly,b,e,l,l,y,,,0.7632696639630012,0.9152406019857153,1.2672032609698363,1.4592036429676227,1.5792018189677037,0.0,0.0,belly,medwf,medbf
120,p10,120,lucky,lu,uc,ck,ky,l,u,c,k,y,,,0.981735578039661,1.2777863850351423,1.4217831150162965,1.5977461939910427,1.861746957001742,0.0,0.0,lucky,highwf,lowbf
121,p10,121,faqir,fa,aq,qi,ir,f,a,q,i,r,,,0.9784719190211035,1.1145083350129426,1.3545566109823994,1.5384667689795606,1.7064691680134274,0.0,0.0,faqir,lowwf,lowbf
122,p10,122,zibja,zi,ib,bj,ja,z,i,b,j,a,,,1.1415516539709643,1.3495482630096376,1.6136314009781927,1.8695388429914601,1.981556584010832,0.0,0.0,zibja,pseudo,lowbf
123,p10,123,therm,th,he,er,rm,t,h,e,m,r,,,0.7706115060136653,0.9705443800194189,1.074543952010572,1.2985852750134654,1.4025933840312064,0.0,0.0,themr,lowwf,highbf
124,p10,124,about,ab,bo,ou,ut,a,b,o,u,t,,,0.8226558360038325,0.9426785599789582,1.206657806003932,1.398696631018538,1.4867154560051858,0.0,0.0,about,highwf,medbf
125,p10,125,tithe,ti,it,th,he,t,i,t,h,e,,,0.7454129830002785,0.8893697959720157,0.9693703780067153,1.129371393006295,1.2333815699676052,0.0,0.0,tithe,lowwf,highbf
126,p10,126,theme,th,he,em,me,t,h,e,m,e,,,0.757889143016655,0.9499361679772846,1.0540024079964496,1.2058872429770418,1.3019063679967076,0.0,0.0,theme,medwf,highbf
127,p10,127,druze,dr,ru,uz,ze,d,r,i,z,e,,,0.8891497069853358,1.1211447169771418,1.2411599239567295,1.9451523079769686,2.249273783992976,0.0,0.0,drize,lowwf,lowbf
128,p10,128,cheer,ch,he,ee,er,c,h,e,e,r,,,0.6929854930494912,0.8690589740290307,1.1809714680421166,1.365011673013214,1.5730035680462606,0.0,0.0,cheer,medwf,highbf
129,p10,129,heond,he,eo,on,nd,h,e,o,n,d,,,1.0810757220024243,1.153069073043298,1.3450820360449143,1.5611081279930659,1.665059460035991,0.0,0.0,heond,pseudo,highbf
130,p10,130,champ,ch,ha,am,mp,c,h,a,m,p,,,0.8451607379829511,1.021115332026966,1.133156432013493,1.2691607940359972,1.4611751409829594,0.0,0.0,champ,medwf,medbf
131,p10,131,there,th,he,er,re,t,h,e,r,e,,,0.8492584520136006,1.0732170630362816,1.265262998000253,1.3613172310288064,1.5852565290406346,0.0,0.0,there,highwf,highbf
132,p10,132,champ,ch,ha,am,mp,c,h,a,m,p,,,0.813207870000042,0.9891722940374166,1.2212336880038492,1.453248808044009,1.7571672380436212,0.0,0.0,champ,medwf,medbf
133,p10,133,edthe,ed,dt,th,he,e,d,t,h,e,,,0.9597275879932567,1.3836883339681663,1.5597601240151562,1.7356436100089923,1.8637033349950798,0.0,0.0,edthe,pseudo,highbf
134,p10,134,vanru,va,an,nr,ru,c,v,a,n,r,u,,0.8205855879932642,1.9725526599795558,2.284560011990834,2.4686194239766337,2.6045568239642307,2.7085577149991877,0.0,cvanru,pseudo,medbf
135,p10,135,faqir,fa,aq,qi,ir,f,a,q,i,r,,,0.9186404240317643,1.31865612603724,1.5506024680216797,1.7346930149942636,1.8946568390238099,0.0,0.0,faqir,lowwf,lowbf
136,p10,136,lucky,lu,uc,ck,ky,l,u,c,k,y,,,1.6446165770175867,1.9405267179827206,2.1325644070166163,2.236572558991611,2.5085216559818946,0.0,0.0,lucky,highwf,lowbf
137,p10,137,think,th,hi,in,nk,t,h,i,n,k,,,0.9123141909949481,1.0643058349960484,1.304307812009938,1.5923125519766472,1.7603135249810293,0.0,0.0,think,highwf,highbf
138,p10,138,belly,be,el,ll,ly,b,e,l,l,y,,,0.8602366710547358,1.0522694300161675,1.2762278590234928,1.4523399290046655,1.7402578570181504,0.0,0.0,belly,medwf,medbf
139,p10,139,puppy,pu,up,pp,py,p,u,p,p,y,,,1.144288097973913,1.4803144210018218,1.7283276889938861,1.944274419976864,2.104278903978411,0.0,0.0,puppy,medwf,lowbf
140,p10,140,tithe,ti,it,th,he,t,i,t,h,e,,,0.9405510979704559,1.1085528699913993,1.2366027159732766,1.3805914389668033,1.5405868560192175,0.0,0.0,tithe,lowwf,highbf
141,p10,141,theme,th,he,em,me,t,h,e,m,e,,,0.7924283680040389,1.0724200569675304,1.2484696849714965,1.424420288996771,1.5364691019640304,0.0,0.0,theme,medwf,highbf
142,p10,142,there,th,he,er,re,t,h,e,r,e,,,0.9484461580286734,1.0843835470150225,1.236418362997938,1.460383752011694,1.6043813910218887,0.0,0.0,there,highwf,highbf
143,p10,143,theme,th,he,em,me,t,h,e,m,e,,,0.8002812920021825,0.9443777339765802,1.0323222479782999,1.2323201579856686,1.3363407119759358,0.0,0.0,theme,medwf,highbf
144,p10,144,buddy,bu,ud,dd,dy,b,u,f,f,y,,,0.772361823997926,0.9723374390159734,1.0843443360063247,1.2603532550274394,1.3883392959833145,0.0,0.0,buffy,highwf,lowbf
145,p10,145,puppy,pu,up,pp,py,p,u,p,p,y,,,0.9197121320175938,1.191661414981354,1.4317214579787105,1.6157482889830135,1.7197304840083234,0.0,0.0,puppy,medwf,lowbf
146,p10,146,zibja,zi,ib,bj,ja,z,i,b,j,a,,,1.5153164630173706,1.7713129870244302,2.0113354310160503,2.3232917499844916,2.451287064002827,0.0,0.0,zibja,pseudo,lowbf
147,p10,147,haole,ha,ao,ol,le,h,a,o,l,e,,,0.9115162090165541,1.4954600630444475,1.6954575609997846,1.903516018006485,2.0234548180014826,0.0,0.0,haole,lowwf,medbf
148,p10,148,there,th,he,er,re,t,h,e,r,e,,,0.8418562990264036,0.9618824099889025,1.16984541103011,1.3058424009941518,1.4578562790411524,0.0,0.0,there,highwf,highbf
149,p10,149,haole,ha,ao,ol,le,h,a,o,l,e,,,0.9587198559893295,1.102764290990308,1.2947225020034239,1.5587457360234112,1.6627639140351675,0.0,0.0,haole,lowwf,medbf
150,p10,150,there,th,he,er,re,t,h,e,r,e,,,0.8116725200088695,0.9555734590394422,1.0756013850332238,1.227593199990224,1.4116349529940635,0.0,0.0,there,highwf,highbf
151,p10,151,vanru,va,an,nr,ru,v,a,n,r,u,,,0.9419182279962115,1.0859293010435067,1.3659131940221414,1.5659023100160994,1.7739441450103186,0.0,0.0,vanru,pseudo,medbf
152,p10,152,puppy,pu,up,pp,py,p,u,p,p,y,,,1.239639682986308,1.5356259339605458,1.8476281019975431,2.0156743559637107,2.1356152249500155,0.0,0.0,puppy,medwf,lowbf
153,p10,153,would,wo,ou,ul,ld,w,o,u,l,d,,,0.9978121719905175,1.173730559006799,1.4057301110005938,1.765731256979052,1.877740869007539,0.0,0.0,would,highwf,medbf
154,p10,154,theme,th,he,em,me,t,h,e,m,e,,,0.7872040920192376,0.9230829660082236,1.0590874910121784,1.219136112020351,1.2991262630093843,0.0,0.0,theme,medwf,highbf
155,p10,155,heond,he,eo,on,nd,h,e,o,n,d,,,1.0949189370148815,1.2228573019965552,1.4388144119875506,1.7508479470270686,1.990813787037041,0.0,0.0,heond,pseudo,highbf
156,p10,156,belly,be,el,ll,ly,b,e,l,l,y,,,0.7948691069614142,0.9148428600165062,1.1707842979812995,1.3468292269972153,1.4828257029876113,0.0,0.0,belly,medwf,medbf
157,p10,157,zibja,zi,ib,bj,ja,z,i,b,j,a,,,1.2627815050072968,1.45473136898363,1.7027807799750008,1.9827733209822327,2.0867744460119866,0.0,0.0,zibja,pseudo,lowbf
158,p10,158,theme,th,he,em,me,t,h,e,m,e,,,0.8661559830070473,1.0261122590163723,1.1541625040117651,1.3621277139754966,1.7381160960067064,0.0,0.0,theme,medwf,highbf
159,p10,159,vodka,vo,od,dk,ka,v,o,d,k,a,,,1.0208924309699796,1.2451844830065966,1.4450714719714597,1.7009354120236821,1.9809330009738915,0.0,0.0,vodka,medwf,lowbf
160,p10,160,druze,dr,ru,uz,ze,d,r,u,z,e,,,1.0763199729844928,1.276323384954594,1.4203233389998786,1.6771888780058362,1.948314038978424,0.0,0.0,druze,lowwf,lowbf
161,p10,161,buddy,bu,ud,dd,dy,b,u,d,d,y,,,0.8066078850533813,1.0626452320138924,1.1745957450475544,1.3586027760175057,1.4385965980472974,0.0,0.0,buddy,highwf,lowbf
162,p10,162,zibja,zi,ib,bj,ja,z,i,b,j,a,,,1.4169798599905334,1.6569856510031968,1.9529318339773454,2.3369345599785447,2.5289917010231875,0.0,0.0,zibja,pseudo,lowbf
163,p10,163,think,th,hi,in,nk,t,h,i,n,k,,,0.7814226579503156,0.9173922789632343,1.0774762429646216,1.2934970279457048,1.4294372579897754,0.0,0.0,think,highwf,highbf
164,p10,164,haole,ha,ao,ol,le,h,a,o,l,e,,,0.7779917330481112,1.1859866400482133,1.3700217030127533,1.5939693480031565,1.705952029034961,0.0,0.0,haole,lowwf,medbf
165,p10,165,there,th,he,er,re,t,h,e,r,e,,,0.8782341899932362,1.0060787289985456,1.1981687049847096,1.3500882519874722,1.5661349250003695,0.0,0.0,there,highwf,highbf
166,p10,166,haole,ha,ao,ol,le,h,a,o,l,e,,,0.8181870479602367,0.9701830939739011,1.1541771809570491,1.3701860589790158,1.4901767809642479,0.0,0.0,haole,lowwf,medbf
167,p10,167,think,th,hi,in,nk,t,h,i,n,k,,,0.8862924280110747,0.9502502189716324,1.182292615994811,1.4862914719851688,1.7182889949763194,0.0,0.0,think,highwf,highbf
168,p10,168,belly,be,el,ll,ly,b,e,l,l,y,,,0.8715069239842705,1.0395065479679033,1.2955135939992033,1.4715109499520622,1.5915258139721118,0.0,0.0,belly,medwf,medbf
169,p10,169,cooed,co,oo,oe,ed,c,o,o,e,d,,,0.941657786956057,1.1896580909960903,1.3497019069618545,1.4697376609547064,1.6777058109873906,0.0,0.0,cooed,lowwf,medbf
170,p10,170,therm,th,he,er,rm,t,h,e,r,m,,,1.1776224119821563,1.4255587519728579,1.5776138149667531,1.697560077009257,1.9296128959977068,0.0,0.0,therm,lowwf,highbf
171,p10,171,vodka,vo,od,dk,ka,v,o,f,d,k,a,,0.9894141799886711,1.1414815459866077,1.357397233019583,2.1413967279950157,2.373400298994966,2.781467247987166,0.0,vofdka,medwf,lowbf
172,p10,172,faqir,fa,aq,qi,ir,f,a,w,i,,,,1.2327709979726933,1.8886954669724219,2.672690537991002,3.2007007770007476,0.0,0.0,0.0,fawi,lowwf,lowbf
173,p10,173,heond,he,eo,on,nd,h,e,o,n,d,,,0.9648880550521426,1.1728873359970748,1.5729093000409193,2.0689444960444234,2.236962224007584,0.0,0.0,heond,pseudo,highbf
174,p10,174,vanru,va,an,nr,ru,v,a,n,r,u,,,0.9928757270099595,1.0728646770003252,1.5209470379631966,1.8489042019937187,2.400881095963996,0.0,0.0,vanru,pseudo,medbf
175,p10,175,therm,th,he,er,rm,t,h,e,r,m,,,0.9569246810278855,1.0689781110268086,1.236982454021927,1.3809236459783278,1.5329847669927403,0.0,0.0,therm,lowwf,highbf
176,p10,176,champ,ch,ha,am,mp,c,h,a,m,p,,,0.7847568999859504,0.9687615259899758,1.0407118709990755,1.2647107639932074,1.512752358976286,0.0,0.0,champ,medwf,medbf
177,p10,177,would,wo,ou,ul,ld,w,o,u,l,d,,,0.9965772700379603,1.2845749040134251,1.6125288250041194,2.0525797310401686,2.1565306190168485,0.0,0.0,would,highwf,medbf
178,p10,178,pykka,py,yk,kk,ka,p,y,k,k,a,s,,0.9688931929995306,1.3449059830163606,1.6008593009901233,1.7528842930332758,1.872840473020915,1.872840473020915,0.0,pykkas,pseudo,lowbf
179,p10,179,zibja,zi,ib,bj,ja,z,i,b,j,a,,,1.237007426971104,1.5728095999802463,1.8448665289906785,2.1248088129796088,2.2448780609993264,0.0,0.0,zibja,pseudo,lowbf
180,p10,180,vanru,va,an,nr,ru,v,a,n,r,u,,,0.9207815859699622,1.0568034559837542,1.2407710360130295,1.4007762349792756,1.61677319399314,0.0,0.0,vanru,pseudo,medbf
181,p10,181,buddy,bu,ud,dd,dy,b,u,d,d,y,,,0.7968263800139539,1.0368211260065436,1.2368273480096832,1.4208278340520337,1.484829000022728,0.0,0.0,buddy,highwf,lowbf
182,p10,182,haole,ha,ao,ol,le,h,a,o,l,e,,,0.7847542520030402,0.8886874979943968,1.1206563619780354,1.3367088719969615,1.4327061150106601,0.0,0.0,haole,lowwf,medbf
183,p10,183,think,th,hi,in,nk,t,h,i,n,k,,,0.8365785470232368,1.0045318739721552,1.380530837981496,1.5885295799816959,1.7725303070037626,0.0,0.0,think,highwf,highbf
184,p10,184,edthe,ed,dt,th,he,e,d,t,h,e,,,1.2807860000175424,1.5448048429680057,1.6567473559989594,1.8487911180127412,1.8887469199835323,0.0,0.0,edthe,pseudo,highbf
185,p10,185,therm,th,he,er,rm,t,h,e,r,m,,,0.8609107870142907,1.0527007229975425,1.1406293300096877,1.332678641017992,1.7326997100026347,0.0,0.0,therm,lowwf,highbf
186,p10,186,would,wo,ou,ul,ld,w,o,u,l,d,,,0.9448213939904235,1.128765920002479,1.3528088689781725,1.6887603779905476,1.7767828709911555,0.0,0.0,would,highwf,medbf
187,p10,187,edthe,ed,dt,th,he,e,d,t,h,e,,,0.9567201030440629,1.1086854330496863,1.2847034130245447,1.4687283390085213,1.572686206025537,0.0,0.0,edthe,pseudo,highbf
188,p10,188,cheer,ch,he,ee,er,c,h,e,e,r,,,0.8567162880208343,1.0328512280248106,1.5447751060128212,1.7287143520079553,1.8727244210313074,0.0,0.0,cheer,medwf,highbf
189,p10,189,pykka,py,yk,kk,ka,p,y,k,k,a,,,1.4927246599690989,1.8687707119970582,2.1487718650023453,2.2927532399771735,2.3967785249697044,0.0,0.0,pykka,pseudo,lowbf
190,p10,190,lucky,lu,uc,ck,ky,l,u,c,k,y,,,1.608590534015093,1.9366014350089245,2.344741275010165,2.528604927007109,2.824553658021614,0.0,0.0,lucky,highwf,lowbf
191,p10,191,faqir,fa,aq,qi,ir,f,a,q,i,r,,,1.0367282590013929,1.1246310519636609,1.7006368509610184,1.972632528981194,2.2206357499817386,0.0,0.0,faqir,lowwf,lowbf
192,p10,192,tithe,ti,it,th,he,t,i,t,h,e,,,0.8968515089945868,1.0888411899795756,1.216799028974492,1.3848553269635886,1.5608065010164864,0.0,0.0,tithe,lowwf,highbf
193,p10,193,druze,dr,ru,uz,ze,d,r,u,z,e,,,1.004715285031125,1.2447881550178863,1.324720660049934,1.8287416280363686,2.5407204390503466,0.0,0.0,druze,lowwf,lowbf
194,p10,194,tithe,ti,it,th,he,t,i,t,h,e,,,0.9047360820113681,1.0487925339839421,1.1367890469846316,1.2727027779910713,1.3847514549852349,0.0,0.0,tithe,lowwf,highbf
195,p10,195,about,ab,bo,ou,ut,a,b,o,u,t,,,0.7724918419844471,0.9084917159634642,1.188524475961458,1.4045220759580843,1.5244929799810052,0.0,0.0,about,highwf,medbf
196,p10,196,edthe,ed,dt,th,he,e,d,t,h,e,,,0.9926213779835962,1.2486862699734047,1.3926182870054618,1.7046141489990987,1.9126173529657535,0.0,0.0,edthe,pseudo,highbf
197,p10,197,about,ab,bo,ou,ut,a,b,o,u,t,,,0.8445780749898404,1.0125243999646045,1.3005284239770845,1.4846122899907641,1.5805745020043105,0.0,0.0,about,highwf,medbf
198,p10,198,druze,dr,ru,uz,ze,d,r,u,z,e,,,0.9606089529697783,1.2085658819996752,1.3446156819700263,1.6166204269975424,1.9125636299722828,0.0,0.0,druze,lowwf,lowbf
199,p10,199,therm,th,he,er,rm,t,h,e,r,m,,,0.8526627449900843,0.9886086360202171,1.1486707649892196,1.3646082520135678,1.524608089006506,0.0,0.0,therm,lowwf,highbf
200,p10,200,tithe,ti,it,th,he,t,i,t,h,e,,,0.7690258639631793,0.9448846819577739,1.0008353719604202,1.168874684954062,1.2808608849882148,0.0,0.0,tithe,lowwf,highbf
201,p10,201,champ,ch,ha,am,mp,c,h,a,m,p,,,0.7405904540210031,0.9565875120460987,1.0765959780546837,1.2206705250428058,1.4686423900420777,0.0,0.0,champ,medwf,medbf
202,p10,202,belly,be,el,ll,ly,b,e,l,l,y,,,0.7685478369821794,0.9124979600310326,1.1765176770277321,1.328549475001637,1.4244966210098937,0.0,0.0,belly,medwf,medbf
203,p10,203,kremp,kr,re,em,mp,k,r,e,m,p,,,1.0677526780054905,1.2357913440209813,1.4277254689950496,1.5318402380216867,1.7557445249985904,0.0,0.0,kremp,pseudo,medbf
204,p10,204,edthe,ed,dt,th,he,e,d,t,h,e,,,0.8246330689871684,1.0886759199784137,1.2166341089759953,1.3926336609874852,1.4646693160175346,0.0,0.0,edthe,pseudo,highbf
205,p10,205,kremp,kr,re,em,mp,k,r,e,m,p,,,1.060591476969421,1.3326585209579207,1.5086016249842942,1.5885867399629205,1.8206476079649292,0.0,0.0,kremp,pseudo,medbf
206,p10,206,cheer,ch,he,ee,er,c,h,e,r,,,,0.8883953919867054,1.0964738560141996,1.2324408380081877,1.4404320999747142,0.0,0.0,0.0,cher,medwf,highbf
207,p10,207,would,wo,ou,ul,ld,w,o,u,d,l,,,0.9486788860522211,1.140638683049474,1.276654398010578,1.412644113006536,1.5646638790494762,0.0,0.0,woudl,highwf,medbf
208,p10,208,druze,dr,ru,uz,ze,d,r,u,z,e,,,0.9124207649729215,1.1843886809656397,1.2883771059568971,1.5684448469546624,2.1684216339490376,0.0,0.0,druze,lowwf,lowbf
209,p10,209,vodka,vo,od,dk,ka,v,o,d,k,a,,,1.1390239129541442,1.315022433991544,1.5150641019572504,1.8030257429927588,1.907029355992563,0.0,0.0,vodka,medwf,lowbf
210,p10,210,kremp,kr,re,em,mp,k,r,e,m,o,,,1.3200093780178577,1.6239367530215532,1.9039858560427092,2.095960292033851,2.447938604047522,0.0,0.0,kremo,pseudo,medbf
211,p10,211,cooed,co,oo,oe,ed,c,o,o,e,d,,,0.9959020669921301,1.332121344981715,1.5239008129574358,1.8679756009951234,2.099944212997798,0.0,0.0,cooed,lowwf,medbf
212,p10,212,would,wo,ou,ul,ld,w,o,u,l,d,,,1.1118345170398243,1.359778233047109,1.6477591360453516,2.103761630016379,2.2237589150317945,0.0,0.0,would,highwf,medbf
213,p10,213,pykka,py,yk,kk,ka,p,y,k,k,a,,,1.1398901289794594,1.3238930499646813,1.5238918180111796,1.6758987400098704,2.0839026059838943,0.0,0.0,pykka,pseudo,lowbf
214,p10,214,about,ab,bo,ou,ut,a,b,o,u,t,,,0.8319585129502229,0.9758967589586973,1.2558897259877995,1.4718957679579034,1.5519438879564404,0.0,0.0,about,highwf,medbf
215,p10,215,puppy,pu,up,pp,py,p,u,p,p,y,,,1.0119398140232079,1.427944466995541,1.6359278539894149,1.7958727690274827,2.0199622840154916,0.0,0.0,puppy,medwf,lowbf
216,p10,216,lucky,lu,uc,ck,ky,l,u,v,c,k,,,2.2240521400235593,2.4639838470029645,2.9519889859948307,2.991956438985653,3.343944036983885,0.0,0.0,luvck,highwf,lowbf
217,p10,217,think,th,hi,in,nk,t,h,i,n,k,,,0.986992169986479,1.147004446014762,1.5150381780113094,1.7709563160315156,1.9469780179788359,0.0,0.0,think,highwf,highbf
218,p10,218,buddy,bu,ud,dd,dy,b,u,d,d,y,,,0.8153388500213623,1.031317986024078,1.175342031987384,1.639298090012744,1.7753407059935853,0.0,0.0,buddy,highwf,lowbf
219,p10,219,kremp,kr,re,em,mp,k,r,e,m,o,p,,1.1551637410302646,1.4751849920139648,1.73916331800865,1.8671688430476934,2.091165752033703,3.043174117046874,0.0,kremop,pseudo,medbf
220,p10,220,buddy,bu,ud,dd,dy,b,u,d,d,y,,,0.9351760090212338,1.1751139410189353,1.3271049680188298,1.4951618679915555,1.6231250269920565,0.0,0.0,buddy,highwf,lowbf
221,p10,221,lucky,lu,uc,ck,ky,l,u,c,k,y,,,1.1149451460223645,1.4589052670053206,1.6589088669861667,1.8029531959909946,2.090901523013599,0.0,0.0,lucky,highwf,lowbf
222,p10,222,pykka,py,yk,kk,ka,p,y,k,k,a,,,1.1270862080273218,1.383047350042034,1.5270526320091449,1.6550277520436794,2.1031162720173597,0.0,0.0,pykka,pseudo,lowbf
223,p10,223,cooed,co,oo,oe,ed,c,o,o,e,d,,,0.8509660690324381,0.9871431060018949,1.1470036930404603,1.2669661830295809,1.4830150560010225,0.0,0.0,cooed,lowwf,medbf
224,p10,224,about,ab,bo,ou,ut,a,b,o,u,t,,,0.7430837569991127,0.9031797049683519,1.1430324889952317,1.3510586639749818,1.4550290589686483,0.0,0.0,about,highwf,medbf
225,p10,225,faqir,fa,aq,qi,ir,f,a,q,i,r,,,1.0100883919512853,1.6580353699973784,2.09810722398106,2.4660323369898833,2.5941170509904623,0.0,0.0,faqir,lowwf,lowbf
226,p10,226,pykka,py,yk,kk,ka,p,y,k,k,a,,,1.1342271390021779,1.3262259130133316,1.5102336769923568,1.6703553330153227,2.0142159669776447,0.0,0.0,pykka,pseudo,lowbf
227,p10,227,cheer,ch,he,ee,er,c,h,e,e,r,,,0.8343969470006414,1.0344353779801168,1.1703872790094465,1.618452946015168,1.9064265019842423,0.0,0.0,cheer,medwf,highbf
228,p10,228,kremp,kr,re,em,mp,k,r,e,m,p,,,1.0864934379933402,1.3584422009880655,1.5104609210393392,1.7104479930130765,2.4865377040114254,0.0,0.0,kremp,pseudo,medbf
229,p10,229,vodka,vo,od,dk,ka,v,o,d,k,a,,,0.9704114390187897,1.10640341299586,1.378514920012094,1.6424129140214063,1.9704578089877032,0.0,0.0,vodka,medwf,lowbf
230,p10,230,heond,he,eo,on,nd,h,e,o,n,d,,,1.0705053600249812,1.1664992820005864,1.3664560709730722,1.9984740350046195,2.150435246003326,0.0,0.0,heond,pseudo,highbf
231,p10,231,puppy,pu,up,pp,py,p,u,p,p,y,,,1.0025970060378313,1.322554462007247,1.6425535280141048,1.8745216809911653,2.010547502024565,0.0,0.0,puppy,medwf,lowbf
232,p10,232,vodka,vo,od,dk,ka,v,o,d,k,a,,,1.1902520909789018,1.3422477340209298,1.534235548984725,1.7262408590177074,1.8462706339778379,0.0,0.0,vodka,medwf,lowbf
233,p10,233,cooed,co,oo,oe,ed,c,o,o,e,d,,,0.8182942940038629,0.9461975329904817,1.0901569839916192,1.2341355489916168,1.3782755159772933,0.0,0.0,cooed,lowwf,medbf
234,p10,234,vanru,va,an,nr,ru,v,a,n,r,u,,,0.7891634789993986,1.141175040975213,1.3493031230173074,1.525177443982102,1.7173710080096498,0.0,0.0,vanru,pseudo,medbf
235,p10,235,heond,he,eo,on,nd,e,h,e,o,n,d,,1.1465486240340397,1.7865493730059825,1.9384958060109057,2.066536058031488,2.298548261052929,2.4265102090430446,0.0,eheond,pseudo,highbf
236,p10,236,champ,ch,ha,am,mp,c,h,a,m,p,,,0.8223480540327728,1.0143501780112274,1.1103626160183921,1.2784481139970012,1.5184007490170188,0.0,0.0,champ,medwf,medbf
237,p10,237,cheer,ch,he,ee,er,c,h,h,e,e,r,,0.7846825449960306,0.9286933349794708,1.088631386985071,1.3767290759715252,1.7286785449832678,1.9606334249838255,0.0,chheer,medwf,highbf
238,p10,238,cooed,co,oo,oe,ed,c,o,o,e,d,,,0.9097563329851255,1.0857917829998769,1.213800951023586,1.3257525120279752,1.6057441880111583,0.0,0.0,cooed,lowwf,medbf
239,p10,239,belly,be,el,ll,ly,b,e,l,l,y,,,0.8176523949950933,0.9536769650294445,1.1856750550214201,1.3536874889978208,1.4496685939957388,0.0,0.0,belly,medwf,medbf
