,sID,Trial #,string,bi_1,bi_2,bi_3,bi_4,key_resp.keys.1,key_resp.keys.2,key_resp.keys.3,key_resp.keys.4,key_resp.keys.5,key_resp.keys.6,key_resp.keys.7,key_resp.rt.1,key_resp.rt.2,key_resp.rt.3,key_resp.rt.4,key_resp.rt.5,key_resp.rt.6,key_resp.rt.7,resp_string,WF Type,BF Type
0,s175,0,cooed,co,oo,oe,ed,c,o,o,e,d,,,0.7763660770142451,1.0164104790019337,1.1523716490046354,1.2643633260013303,1.448365250005736,0.0,0.0,cooed,lowwf,medbf
1,s175,1,there,th,he,er,re,t,h,e,r,e,,,0.7753348959959112,0.8953326080081752,1.0473305189952953,1.1913600980042247,1.3433447050047107,0.0,0.0,there,highwf,highbf
2,s175,2,puppy,pu,up,pp,py,p,u,p,p,y,u,,0.8113002640020568,1.1951972890092293,1.5472360660060076,1.6671986419969471,1.9711914409999736,1.9873435519984923,0.0,puppyu,medwf,lowbf
3,s175,3,druze,dr,ru,uz,ze,d,r,u,z,e,,,0.8681700110028032,1.0602407660044264,1.3881695320014842,1.7162011790060205,1.9322442209959263,0.0,0.0,druze,lowwf,lowbf
4,s175,4,vodka,vo,od,dk,ka,v,o,d,k,a,,,0.8731645489897346,1.0331892789981794,1.3531327139935456,1.5691383689991198,1.7611659299873281,0.0,0.0,vodka,medwf,lowbf
5,s175,5,zibja,zi,ib,bj,ja,z,i,b,j,a,,,0.8284369569882983,1.0684619749954436,1.6124751979950815,2.0524346299935132,2.172433675994398,0.0,0.0,zibja,pseudo,lowbf
6,s175,6,would,wo,ou,ul,ld,w,o,u,l,d,,,0.7943231770041166,0.9543038410047302,1.1623112840024987,1.402321194007527,1.5382705009978963,0.0,0.0,would,highwf,medbf
7,s175,7,champ,ch,ha,am,mp,c,h,a,m,p,,,0.7503130760014756,0.8703585140028736,1.1343187599995872,1.246356404008111,1.7183650829974795,0.0,0.0,champ,medwf,medbf
8,s175,8,would,wo,ou,ul,ld,w,o,u,y,l,d,,0.7609261210018303,0.9529237420065328,1.2169998890021816,1.2249363949958934,1.5850546099973144,1.7529552769992733,0.0,wouyld,highwf,medbf
9,s175,9,druze,dr,ru,uz,ze,d,r,u,z,e,,,0.7971336159971543,0.9891310749953846,1.301183208997827,1.581173671002034,1.8131922650063643,0.0,0.0,druze,lowwf,lowbf
10,s175,10,haole,ha,ao,ol,le,h,a,o,l,e,,,0.9767919169971719,1.2650310850003734,1.5367335399932927,1.7287915350025287,1.800785523999366,0.0,0.0,haole,lowwf,medbf
11,s175,11,therm,th,he,er,rm,t,h,e,r,m,,,0.8054820889956318,0.9254936289944453,1.17350376000104,1.325499137994484,1.4454851799964672,0.0,0.0,therm,lowwf,highbf
12,s175,12,belly,be,el,ll,ly,b,e,l,l,y,,,0.8326254650019109,1.0165293470054166,1.2885359640058596,1.4245335379964672,1.560607531995629,0.0,0.0,belly,medwf,medbf
13,s175,13,vanru,va,an,nr,ru,v,a,a,n,r,u,,0.8519000509986654,1.0918740409979364,1.9639039079920622,2.0839238280022983,2.459931207995396,2.7638822400040226,0.0,vaanru,pseudo,medbf
14,s175,14,zibja,zi,ib,bj,ja,z,i,b,j,a,,,0.9439141850016313,1.1439127060002647,1.4718736880022334,1.7998636190022808,1.927915649008355,0.0,0.0,zibja,pseudo,lowbf
15,s175,15,belly,be,el,ll,ly,b,e,l,l,y,,,0.8283123599976534,1.0602543160057394,1.3082465250045061,1.4443408149963943,1.5963015409943182,0.0,0.0,belly,medwf,medbf
16,s175,16,haole,ha,ao,ol,le,h,a,o,l,e,,,0.9357042199990246,1.1517559030035045,1.415691959002288,1.6156995259952964,1.7197058169986121,0.0,0.0,haole,lowwf,medbf
17,s175,17,heond,he,eo,on,nd,h,e,o,n,d,,,0.948253164999187,1.1722114290023455,1.3882095750013832,1.6842218849924393,1.884248150003259,0.0,0.0,heond,pseudo,highbf
18,s175,18,edthe,ed,dt,th,he,e,d,t,h,e,,,0.7360043879889417,0.9280472169921268,1.2079344139929162,1.3200711629906436,1.4559396769909654,0.0,0.0,edthe,pseudo,highbf
19,s175,19,think,th,hi,in,nk,t,h,i,n,k,,,0.7399198600032832,0.8359921509982087,1.1639123729983112,1.3559478649985977,1.507913004999864,0.0,0.0,think,highwf,highbf
20,s175,20,champ,ch,ha,am,mp,c,h,a,m,p,,,0.7921625610033516,0.9601430230104597,1.1921161190111889,1.3201665790111292,1.688151653012028,0.0,0.0,champ,medwf,medbf
21,s175,21,kremp,kr,re,em,mp,k,r,e,m,p,,,0.9715221899969038,1.1635209399973974,1.3395235649950337,1.4515677099989261,1.8115636730071856,0.0,0.0,kremp,pseudo,medbf
22,s175,22,puppy,pu,up,pp,py,p,u,p,p,y,,,0.7921509310108377,1.1361125710100168,1.5120640940003796,1.640064589009853,1.8801179959991714,0.0,0.0,puppy,medwf,lowbf
23,s175,23,lucky,lu,uc,ck,ky,l,u,c,k,y,,,0.7481112060049782,1.0760776849929243,1.3560725040006218,1.4840747050038772,1.7560698309971485,0.0,0.0,lucky,highwf,lowbf
24,s175,24,would,wo,ou,ul,ld,w,o,u,l,d,,,0.8321174729935592,0.9681197079917183,1.2400890469871229,1.4720571569923777,1.5920576569915283,0.0,0.0,would,highwf,medbf
25,s175,25,think,th,hi,in,nk,t,h,i,n,k,,,0.8119649739965098,0.8999680480046663,1.2200125730014406,1.3879886450013146,1.5480022150004515,0.0,0.0,think,highwf,highbf
26,s175,26,about,ab,bo,ou,ut,a,b,o,u,t,,,0.8319695469981525,0.9759349700034363,1.3599592130049132,1.5599406469991663,1.6719282139965799,0.0,0.0,about,highwf,medbf
27,s175,27,faqir,fa,aq,qi,ir,f,a,q,i,r,,,0.9698661510046804,1.2578747210063739,1.4898673240095377,1.8098681560077239,1.9618608290038537,0.0,0.0,faqir,lowwf,lowbf
28,s175,28,haole,ha,ao,ol,le,h,a,o,l,e,,,0.862929915994755,1.030975435001892,1.2629307220049668,1.4229416930029402,1.5109464109991677,0.0,0.0,haole,lowwf,medbf
29,s175,29,buddy,bu,ud,dd,dy,b,n,u,d,d,d,y,1.147391232996597,1.1553901950101135,1.7793882450059755,2.107342053001048,2.179339823007467,2.4274280539975734,2.699371645998326,bnudddy,highwf,lowbf
30,s175,30,vanru,va,an,nr,ru,v,a,n,r,u,,,0.8547858200035989,0.990778881998267,1.2948454340075841,1.510853355997824,1.6627819440036546,0.0,0.0,vanru,pseudo,medbf
31,s175,31,therm,th,he,er,rm,t,h,e,r,m,,,0.7465274039859651,0.8424571819923585,1.0424538879888132,1.2184964129992295,1.3224488069972722,0.0,0.0,therm,lowwf,highbf
32,s175,32,about,ab,bo,ou,ut,a,b,o,u,t,,,0.7980704680085182,0.9820608190057101,1.3180447680060752,1.550032701008604,1.6700002690049587,0.0,0.0,about,highwf,medbf
33,s175,33,therm,th,he,er,rm,t,h,e,r,m,,,0.7945163090043934,0.8664038720016833,1.042410445996211,1.1944541279954137,1.2904305700067198,0.0,0.0,therm,lowwf,highbf
34,s175,34,tithe,ti,it,th,he,t,i,t,h,e,,,0.8784680889948504,0.9985007380018942,1.1105176620039856,1.2864947659982136,1.478469118999783,0.0,0.0,tithe,lowwf,highbf
35,s175,35,therm,th,he,er,rm,t,h,e,r,m,,,0.7699355619988637,0.8659460180060705,1.0259533010103041,1.2259570530004567,1.3059464020043379,0.0,0.0,therm,lowwf,highbf
36,s175,36,faqir,fa,aq,qi,ir,f,a,q,i,r,,,0.8937072030093987,1.2136898230091901,1.4296511190041201,1.7177228890068363,1.8376503769977717,0.0,0.0,faqir,lowwf,lowbf
37,s175,37,puppy,pu,up,pp,py,p,u,p,p,y,,,0.8105151030031266,1.7465410940058064,2.1064892249996774,2.234540265009855,2.4825391140038846,0.0,0.0,puppy,medwf,lowbf
38,s175,38,lucky,lu,uc,ck,ky,l,u,c,k,y,,,0.781815338996239,1.0697099039971363,1.3577345439989585,1.4697693979978794,1.7097688319918234,0.0,0.0,lucky,highwf,lowbf
39,s175,39,cheer,ch,he,ee,er,c,h,e,e,r,,,0.7946517040109029,0.906556318004732,1.1385616280022077,1.2585576030105585,1.4186866680101957,0.0,0.0,cheer,medwf,highbf
40,s175,40,therm,th,he,er,rm,t,h,e,r,m,,,0.7180910889874212,0.7900766469974769,0.9500713439920219,1.0861487309884978,1.1740637369948672,0.0,0.0,therm,lowwf,highbf
41,s175,41,zibja,zi,ib,bj,ja,z,i,b,j,a,,,0.808882765006274,0.9690498179988936,1.3128498139994917,1.6408558700059075,1.7608516500040423,0.0,0.0,zibja,pseudo,lowbf
42,s175,42,belly,be,el,ll,ly,b,e,l,l,y,,,0.7579155620042002,0.9660432380042039,1.2059304590075044,1.341940861006151,1.4779945949994726,0.0,0.0,belly,medwf,medbf
43,s175,43,think,th,hi,in,nk,t,h,i,n,k,,,0.704881325000315,0.7929574869922362,1.072868898001616,1.2568713669897988,1.4088860679912614,0.0,0.0,think,highwf,highbf
44,s175,44,druze,dr,ru,uz,ze,d,r,u,z,e,,,0.9817183229897637,1.1576140010001836,1.4777490139967995,1.7016221539961407,1.941639144992223,0.0,0.0,druze,lowwf,lowbf
45,s175,45,buddy,bu,ud,dd,dy,b,u,d,d,y,,,0.7844994210026925,1.1524837269971613,1.4164394450053805,1.5204524290020345,1.6805403600010322,0.0,0.0,buddy,highwf,lowbf
46,s175,46,edthe,ed,dt,th,he,e,d,t,h,e,,,0.8609236129996134,1.1328900030057412,1.3728414130018791,1.476912138008629,1.6128972000005888,0.0,0.0,edthe,pseudo,highbf
47,s175,47,kremp,kr,re,em,mp,k,r,e,m,p,,,0.76911613100674,0.9770707480056444,1.1531201059988234,1.2730691250035306,1.6250683550024405,0.0,0.0,kremp,pseudo,medbf
48,s175,48,cheer,ch,he,ee,er,c,h,e,e,r,,,0.7332834660046501,0.861315187998116,1.0532967820035992,1.1813160220044665,1.333254372002557,0.0,0.0,cheer,medwf,highbf
49,s175,49,would,wo,ou,ul,ld,w,o,u,l,d,,,0.8732362790033221,1.0412302699987777,1.3132759430009173,1.5772908070066478,1.729234856000403,0.0,0.0,would,highwf,medbf
50,s175,50,cheer,ch,he,ee,er,c,h,e,e,r,,,0.7972139220073586,0.9891898839996429,1.2051621120044729,1.3411595210054656,1.4852258890023222,0.0,0.0,cheer,medwf,highbf
51,s175,51,pykka,py,yk,kk,ka,p,y,k,k,a,,,0.8013840640051058,1.3452986269985558,1.6572984660015209,1.7693412130029174,1.897308667001198,0.0,0.0,pykka,pseudo,lowbf
52,s175,52,puppy,pu,up,pp,py,p,u,p,p,y,,,0.8613207849994069,1.4051560160005465,1.7651907749968814,1.8931601399963256,2.2051556289952714,0.0,0.0,puppy,medwf,lowbf
53,s175,53,vodka,vo,od,dk,ka,v,o,d,k,a,,,0.9130729329917813,1.0650705079897307,1.433035779002239,1.6010784249956487,1.7450358359928941,0.0,0.0,vodka,medwf,lowbf
54,s175,54,theme,th,he,em,me,t,h,e,m,e,,,0.7889488079963485,0.8690233469969826,1.0209433849959169,1.180946866996237,1.285000691001187,0.0,0.0,theme,medwf,highbf
55,s175,55,haole,ha,ao,ol,le,h,a,o,l,e,,,0.8094053090026136,1.0733978280040901,1.2174120069976198,1.385447656008182,1.5214030310016824,0.0,0.0,haole,lowwf,medbf
56,s175,56,faqir,fa,aq,qi,ir,f,a,q,i,r,,,1.1080948099988746,1.268134519996238,2.508086952002486,2.6280918549891794,2.9321351669932483,0.0,0.0,faqir,lowwf,lowbf
57,s175,57,pykka,py,yk,kk,ka,p,u,k,k,a,,,0.8243337749881903,1.1523777299880749,1.440332378988387,1.5843333469965728,1.6803690059896326,0.0,0.0,pukka,pseudo,lowbf
58,s175,58,cooed,co,oo,oe,ed,c,o,o,e,d,,,0.8365556789940456,0.9965272539993748,1.1245142049883725,1.2525419399898965,1.436532351988717,0.0,0.0,cooed,lowwf,medbf
59,s175,59,tithe,ti,it,th,he,t,i,t,h,e,,,0.7521822340058861,0.8961517800053116,0.9841508800018346,1.176156561006792,1.3842053930129623,0.0,0.0,tithe,lowwf,highbf
60,s175,60,there,th,he,er,re,t,h,e,r,e,,,0.6925243760051671,0.7805224000039743,0.9165240599977551,1.0765307809924707,1.2125253239937592,0.0,0.0,there,highwf,highbf
61,s175,61,pykka,py,yk,kk,ka,p,y,k,k,a,,,0.7925408750015777,1.4405356030038092,1.8245336430118186,1.9765447579993634,2.072537297004601,0.0,0.0,pykka,pseudo,lowbf
62,s175,62,buddy,bu,ud,dd,dy,b,u,d,d,y,,,0.7724090330011677,1.164404884999385,1.4204040210024687,1.5324515179963782,1.6604090180044295,0.0,0.0,buddy,highwf,lowbf
63,s175,63,would,wo,ou,ul,ld,w,o,u,l,d,,,0.7922486610041233,0.9762449989939341,1.232295574998716,1.5042444499995327,1.6242431729915552,0.0,0.0,would,highwf,medbf
64,s175,64,about,ab,bo,ou,ut,a,b,o,u,t,,,0.7245188060041983,0.8525992360082455,1.1885207750019617,1.3805199290072778,1.484579110998311,0.0,0.0,about,highwf,medbf
65,s175,65,lucky,lu,uc,ck,ky,l,u,c,k,y,,,0.7683473020006204,1.0803539749904303,1.360300507993088,1.4402966259949608,1.6562915729882661,0.0,0.0,lucky,highwf,lowbf
66,s175,66,cooed,co,oo,oe,ed,c,o,o,e,d,,,0.6925748780049616,0.8686322870053118,1.0045793449971825,1.1085950459964806,1.2605798010044964,0.0,0.0,cooed,lowwf,medbf
67,s175,67,pykka,py,yk,kk,ka,p,u,k,k,a,,,0.7843220500071766,1.1683932570012985,1.448360145004699,1.5763498529995559,1.6963843359990278,0.0,0.0,pukka,pseudo,lowbf
68,s175,68,tithe,ti,it,th,he,t,i,t,h,e,,,0.8365875919989776,0.9485608930117451,1.0365613070025574,1.22058955700777,1.3645590150117641,0.0,0.0,tithe,lowwf,highbf
69,s175,69,champ,ch,ha,am,mp,c,h,a,m,p,,,0.9523813999985578,1.1523927219968755,1.3763405780046014,1.5043404530006228,1.8164308099949267,0.0,0.0,champ,medwf,medbf
70,s175,70,edthe,ed,dt,th,he,e,d,t,h,e,,,0.8282712130021537,1.0283092099998612,1.2362945750064682,1.3082710620074067,1.4042711259971838,0.0,0.0,edthe,pseudo,highbf
71,s175,71,vanru,va,an,nr,ru,v,a,n,r,u,,,0.9042749229993206,1.0243003880023025,1.2483192310028244,1.544329423995805,1.8162926969962427,0.0,0.0,vanru,pseudo,medbf
72,s175,72,there,th,he,er,re,t,h,e,r,e,,,0.7005219169950578,0.7805094299983466,0.9165044999972451,1.0525863280054182,1.1965525859995978,0.0,0.0,there,highwf,highbf
73,s175,73,vodka,vo,od,dk,ka,v,o,d,k,a,,,0.8163034039898776,0.9523771499953,1.248355712988996,1.6003012169967405,1.712306018001982,0.0,0.0,vodka,medwf,lowbf
74,s175,74,heond,he,eo,on,nd,h,e,o,n,d,,,0.7644581009953981,0.9404636539984494,1.2285335210035555,1.5084776309959125,1.6924716939975042,0.0,0.0,heond,pseudo,highbf
75,s175,75,lucky,lu,uc,ck,ky,l,u,c,k,y,,,0.7203344690060476,0.9603594170039287,1.1683828539971728,1.2883357160026208,1.5203353870019782,0.0,0.0,lucky,highwf,lowbf
76,s175,76,vodka,vo,od,dk,ka,v,o,d,k,a,,,0.7962971590022789,1.1803210240032058,1.4202495400095358,1.5402508440020029,1.6843196880072355,0.0,0.0,vodka,medwf,lowbf
77,s175,77,about,ab,bo,ou,ut,a,b,o,u,t,,,0.7681095019943314,0.8640492709964747,1.1920564909960376,1.3920532549964264,1.4961026980017778,0.0,0.0,about,highwf,medbf
78,s175,78,cooed,co,oo,oe,ed,c,o,o,e,d,,,0.7483819009939907,0.9163850280019687,1.0603427879977971,1.148382056999253,1.2923381629952928,0.0,0.0,cooed,lowwf,medbf
79,s175,79,faqir,fa,aq,qi,ir,f,a,q,i,r,,,1.184561696005403,1.320505502008018,1.6484385869989637,1.8804532520007342,2.0324335799959954,0.0,0.0,faqir,lowwf,lowbf
80,s175,80,heond,he,eo,on,nd,h,e,o,n,d,,,0.8763499579945346,1.1643534030008595,1.2843626859976212,1.5643497679993743,1.7003508070047246,0.0,0.0,heond,pseudo,highbf
81,s175,81,zibja,zi,ib,bj,ja,z,i,b,j,a,,,1.1763560640101787,1.3603664900001604,1.67235709700617,2.0164289960084716,2.1524189760093577,0.0,0.0,zibja,pseudo,lowbf
82,s175,82,cheer,ch,he,ee,er,c,h,e,e,e,r,,0.771704299011617,0.9317214290058473,1.1236715470004128,1.235720434007817,1.3716758220107295,1.6677218840050045,0.0,cheeer,medwf,highbf
83,s175,83,tithe,ti,it,th,he,t,i,t,h,e,,,0.7835208309988957,0.9195638410019455,1.0235160059964983,1.1275756399991224,1.239516621993971,0.0,0.0,tithe,lowwf,highbf
84,s175,84,there,th,he,er,re,t,h,e,r,e,,,0.8117438350018347,0.8836983579967637,1.0357458169892197,1.1797368679981446,1.3076904199988348,0.0,0.0,there,highwf,highbf
85,s175,85,belly,be,el,ll,ly,b,e,l,l,y,,,0.8232779069949174,0.9832829520019004,1.2552591510029742,1.3993056649924256,1.5033169800008181,0.0,0.0,belly,medwf,medbf
86,s175,86,buddy,bu,ud,dd,dy,b,i,d,d,y,,,0.9554001649958082,1.1713944029906997,2.163429416003055,2.3154282509931363,2.4434147809952265,0.0,0.0,biddy,highwf,lowbf
87,s175,87,edthe,ed,dt,th,he,e,d,t,h,e,,,0.8229389320040355,1.0069375509920064,1.2069374029961182,1.2869962900003884,1.3830478839954594,0.0,0.0,edthe,pseudo,highbf
88,s175,88,pykka,py,yk,kk,ka,p,y,k,k,a,,,0.8189103629993042,1.322835352999391,1.7388609220070066,1.8668385740020312,1.9548381150088971,0.0,0.0,pykka,pseudo,lowbf
89,s175,89,about,ab,bo,ou,ut,a,b,o,u,t,,,0.8787198820064077,0.9987546040065354,1.2787110200006282,1.4867901660036296,1.5747087390045635,0.0,0.0,about,highwf,medbf
90,s175,90,druze,dr,ru,uz,ze,d,r,u,z,e,,,0.9145673890016042,1.090589416999137,1.4505678960122168,1.642571279007825,1.8425701150117675,0.0,0.0,druze,lowwf,lowbf
91,s175,91,theme,th,he,em,me,t,h,e,m,e,,,0.726984717999585,0.8230115050100721,0.9669796030066209,1.1110618829989107,1.2150257980101742,0.0,0.0,theme,medwf,highbf
92,s175,92,think,th,hi,in,nk,t,h,i,n,k,,,0.7782878180005355,0.8343412880058168,1.1302973349957028,1.2983393489994342,1.4423041450063465,0.0,0.0,think,highwf,highbf
93,s175,93,cooed,co,oo,oe,ed,c,o,o,e,d,,,0.7189279650046956,0.870884283009218,1.006828558005509,1.1108930610062089,1.2628084640018642,0.0,0.0,cooed,lowwf,medbf
94,s175,94,kremp,kr,re,em,mp,k,r,e,m,p,,,0.842618978000246,1.0666906289989129,1.3786176659923512,1.466717813993455,1.7386213319987291,0.0,0.0,kremp,pseudo,medbf
95,s175,95,heond,he,eo,on,nd,h,e,o,n,d,,,0.7987732920009876,0.9586813200003235,1.0948028290004004,1.294759370997781,1.47867477699765,0.0,0.0,heond,pseudo,highbf
96,s175,96,haole,ha,ao,ol,le,h,a,o,l,e,,,0.8666820999933407,1.0666810690017883,1.2027393570024287,1.3706794530007755,1.4586981409956934,0.0,0.0,haole,lowwf,medbf
97,s175,97,edthe,ed,dt,th,he,e,d,t,h,e,,,0.7746300470025744,0.9506853850034531,1.1506415750045562,1.2386403950076783,1.3186426480096998,0.0,0.0,edthe,pseudo,highbf
98,s175,98,think,th,hi,in,nk,t,h,i,n,k,,,0.7783388880052371,0.8583451680024154,1.0903359090007143,1.2664037219947204,1.3943954580026912,0.0,0.0,think,highwf,highbf
99,s175,99,faqir,fa,aq,qi,ir,f,a,q,i,r,,,0.8468736459908541,0.9748237019957742,1.2149166019953554,1.4468940059887245,1.5668258989899186,0.0,0.0,faqir,lowwf,lowbf
100,s175,100,vanru,va,an,nr,ru,v,a,n,r,u,,,0.88244203600334,1.0104784190043574,1.3144174430053681,1.5544126060121926,1.7303769800055306,0.0,0.0,vanru,pseudo,medbf
101,s175,101,there,th,he,er,re,t,h,e,r,e,,,0.6868207549996441,0.7588419929961674,0.878826547996141,1.0148605269932887,1.174852149997605,0.0,0.0,there,highwf,highbf
102,s175,102,theme,th,he,em,me,t,h,e,m,e,,,0.7386660170013783,0.8266742859996157,0.9546636940067401,1.0906634970015148,1.25868348700169,0.0,0.0,theme,medwf,highbf
103,s175,103,champ,ch,ha,am,mp,c,h,a,m,p,,,0.7744850529998075,0.9345614649937488,1.0784870630013756,1.1744923759979429,1.5025365699984832,0.0,0.0,champ,medwf,medbf
104,s175,104,theme,th,he,em,me,t,h,e,m,e,,,0.762872419989435,0.8188676680001663,0.9708272319985554,1.0908219549892237,1.282868171998416,0.0,0.0,theme,medwf,highbf
105,s175,105,kremp,kr,re,em,mp,k,r,e,m,p,,,0.8869796140061226,1.0709650290082209,1.2788843550079037,1.4548640100110788,1.7268749680079054,0.0,0.0,kremp,pseudo,medbf
106,s175,106,cheer,ch,he,ee,er,c,h,e,e,r,,,0.7147539559955476,0.8427190029906342,0.9947858660016209,1.1147410019912058,1.2667094560019905,0.0,0.0,cheer,medwf,highbf
107,s175,107,druze,dr,ru,uz,ze,d,r,u,z,e,,,0.8776015610055765,1.0215432820114074,1.2135951050004223,1.5495644309994532,1.7336066860007122,0.0,0.0,druze,lowwf,lowbf
108,s175,108,belly,be,el,ll,ly,b,e,l,l,y,,,0.824862896988634,1.000898813988897,1.2568545669928426,1.3929077969951322,1.520856939998339,0.0,0.0,belly,medwf,medbf
109,s175,109,puppy,pu,up,pp,py,p,u,p,p,y,,,0.7981400400021812,1.1261034990020562,1.4540961669990793,1.5900934169912944,1.7821374769991962,0.0,0.0,puppy,medwf,lowbf
110,s175,110,lucky,lu,uc,ck,ky,l,u,c,k,y,,,0.7220307039970066,1.010040573994047,1.2661039579979843,1.3620335489977151,1.5620374819991412,0.0,0.0,lucky,highwf,lowbf
111,s175,111,champ,ch,ha,am,mp,c,h,a,m,p,,,0.7020851520064753,0.8220441270095762,0.9900321340101073,1.0460787500051083,1.374031803003163,0.0,0.0,champ,medwf,medbf
112,s175,112,theme,th,he,em,me,t,h,e,m,,,,0.7379516739893006,0.8019660619902425,0.9300004879914923,1.017970847999095,0.0,0.0,0.0,them,medwf,highbf
113,s175,113,kremp,kr,re,em,mp,k,r,e,m,p,,,0.9020225659915013,1.0539553470007377,1.2059598399937386,1.294009091987391,1.549957169991103,0.0,0.0,kremp,pseudo,medbf
114,s175,114,vodka,vo,od,dk,ka,v,o,d,k,a,,,0.8901697469991632,1.1621729469916318,1.3862190389918396,1.586328354998841,1.7221687339915661,0.0,0.0,vodka,medwf,lowbf
115,s175,115,vanru,va,an,nr,ru,v,a,n,r,u,,,0.8861473360011587,1.0140716310124844,1.2140750220132759,1.430129812011728,1.6781643560098018,0.0,0.0,vanru,pseudo,medbf
116,s175,116,buddy,bu,ud,dd,dy,b,u,d,d,y,,,0.8020341520023067,1.209989505005069,1.42598409501079,1.546057739004027,1.6419785510079237,0.0,0.0,buddy,highwf,lowbf
117,s175,117,heond,he,eo,on,nd,h,e,o,n,d,,,0.7980932999926154,0.990024564001942,1.2220227910001995,1.4780871429975377,1.6460333860013634,0.0,0.0,heond,pseudo,highbf
118,s175,118,zibja,zi,ib,bj,ja,z,i,b,n,j,a,,0.8579722510039574,1.0580028309923364,1.3700196260033408,1.3780652749992441,1.7540000139997574,1.8740020010009175,0.0,zibnja,pseudo,lowbf
119,s175,119,tithe,ti,it,th,he,t,i,t,h,e,,,0.7499000999960117,0.8538947619963437,0.9418949159880867,1.117942396987928,1.2539091649960028,0.0,0.0,tithe,lowwf,highbf
120,s175,120,vodka,vo,od,dk,ka,v,o,d,k,,,,0.8653874790034024,1.233315813995432,1.4014019559981534,1.5533743839914678,0.0,0.0,0.0,vodk,medwf,lowbf
121,s175,121,kremp,kr,re,em,mp,k,r,e,m,p,,,0.7785517619922757,0.930555055005243,1.0905450129939709,1.1785516599920811,1.418620454001939,0.0,0.0,kremp,pseudo,medbf
122,s175,122,pykka,py,yk,kk,ka,p,u,k,k,a,,,0.76631414599251,1.1263145800039638,1.3663140909920912,1.502398026001174,1.598347348990501,0.0,0.0,pukka,pseudo,lowbf
123,s175,123,cheer,ch,he,ee,er,c,h,e,e,r,,,0.7784734080050839,0.890467235003598,1.0664735850004945,1.2105033430125332,1.4345198200026061,0.0,0.0,cheer,medwf,highbf
124,s175,124,haole,ha,ao,ol,le,h,a,o,l,e,,,0.8947443659999408,1.6708426179975504,1.758709538000403,1.9426903779967688,2.030688314989675,0.0,0.0,haole,lowwf,medbf
125,s175,125,about,ab,bo,ou,ut,a,b,o,u,t,,,0.7626801129954401,0.8586803739890456,1.1626931709906785,1.410733723998419,1.4827241159946425,0.0,0.0,about,highwf,medbf
126,s175,126,edthe,ed,dt,th,he,e,d,t,h,e,,,0.7505446169961942,0.9905668769933982,1.2545365120022325,1.3665463880024618,1.454538699996192,0.0,0.0,edthe,pseudo,highbf
127,s175,127,haole,ha,ao,ol,le,h,a,o,l,e,,,0.8826196199952392,1.2585729629936395,1.3786199999885866,1.5385788379935548,1.626594628993189,0.0,0.0,haole,lowwf,medbf
128,s175,128,zibja,zi,ib,bj,ja,z,i,b,j,a,,,0.88619595199998,1.046203678008169,1.3341966650041286,1.5501554110087454,1.6542041880020406,0.0,0.0,zibja,pseudo,lowbf
129,s175,129,heond,he,eo,on,nd,h,e,o,n,d,,,0.7941570709954249,1.426106348997564,1.5220954039978096,1.786149794002995,1.9220948709989898,0.0,0.0,heond,pseudo,highbf
130,s175,130,pykka,py,yk,kk,ka,p,y,j,j,a,,,0.9507473320118152,1.4947974210081156,1.8147631090105278,1.950773268006742,2.5907437080022646,0.0,0.0,pyjja,pseudo,lowbf
131,s175,131,buddy,bu,ud,dd,dy,b,u,d,d,y,,,0.7866305150091648,1.2186551630002214,1.4745790750021115,1.5866309650009498,1.6905790550081292,0.0,0.0,buddy,highwf,lowbf
132,s175,132,champ,ch,ha,am,mp,c,h,g,a,m,p,,0.7345004849921679,0.8864963669911958,0.8945645829953719,1.0624501690035686,1.1584664649999468,1.5504728849919047,0.0,chgamp,medwf,medbf
133,s175,133,therm,th,he,er,rm,t,h,e,r,m,,,0.7624414160090964,0.8264489490102278,1.002493496009265,1.162441469001351,1.2904688200069359,0.0,0.0,therm,lowwf,highbf
134,s175,134,heond,he,eo,on,nd,h,e,o,n,d,,,0.9344595989969093,1.270415827006218,1.4544564130046638,1.6704732880025404,1.798458250996191,0.0,0.0,heond,pseudo,highbf
135,s175,135,theme,th,he,em,me,t,h,e,m,e,,,0.7304131239943672,0.8104607139975997,0.9544171460001962,1.0345016630017199,1.7544411830022,0.0,0.0,theme,medwf,highbf
136,s175,136,vodka,vo,od,dk,ka,v,o,d,k,a,,,0.8453890399978263,1.0853539249947062,1.389301675997558,1.493368412993732,1.6373373870010255,0.0,0.0,vodka,medwf,lowbf
137,s175,137,tithe,ti,it,th,he,t,i,t,h,e,,,0.7537910639948677,0.9138142580050044,1.009804383997107,1.1537945230084006,1.2898232830048073,0.0,0.0,tithe,lowwf,highbf
138,s175,138,vodka,vo,od,dk,ka,v,o,d,k,a,,,0.8297188410069793,0.9256611870077904,1.7256581370020285,1.8056576270028017,1.9736516650009435,0.0,0.0,vodka,medwf,lowbf
139,s175,139,would,wo,ou,ul,ld,w,p,o,u,l,d,,0.8338862719974713,0.9299256649974268,0.9458813749952242,1.4179283800040139,1.6258874030027073,1.7779454330011504,0.0,wpould,highwf,medbf
140,s175,140,vanru,va,an,nr,ru,v,a,n,r,u,,,0.9017356600088533,1.0536901470040902,1.2697243250004249,1.5336900999973295,1.701729054999305,0.0,0.0,vanru,pseudo,medbf
141,s175,141,puppy,pu,up,pp,py,p,u,p,p,y,,,0.8260035270068329,1.2020798230078071,1.553991581997252,1.6660465480090352,1.8500097580108559,0.0,0.0,puppy,medwf,lowbf
142,s175,142,cooed,co,oo,oe,ed,c,o,o,e,d,,,0.7899047910032095,0.9578766350023216,1.0859295830014162,1.173886599004618,1.341886031004833,0.0,0.0,cooed,lowwf,medbf
143,s175,143,there,th,he,er,re,t,h,e,r,e,,,0.7537906099896645,0.8178328479989432,0.9458255109930178,1.1138497939973604,1.2977979360002792,0.0,0.0,there,highwf,highbf
144,s175,144,faqir,fa,aq,qi,ir,f,a,q,i,r,,,0.8850791879958706,1.0210049349989276,1.269104111008346,1.5650826010096353,1.6691231779986992,0.0,0.0,faqir,lowwf,lowbf
145,s175,145,about,ab,bo,ou,ut,a,b,o,u,t,,,0.7859851300017908,0.8739149659959367,1.2019431509979768,1.4179886119964067,1.5059154960035812,0.0,0.0,about,highwf,medbf
146,s175,146,therm,th,he,er,rm,t,h,e,r,m,,,0.6938678940059617,0.7578498080110876,0.9018784270010656,1.037822906000656,1.1018693720106967,0.0,0.0,therm,lowwf,highbf
147,s175,147,druze,dr,ru,uz,ze,d,r,u,z,e,,,0.9126491739880294,1.1045627470011823,1.4725743489980232,1.6965531059977366,2.000591258998611,0.0,0.0,druze,lowwf,lowbf
148,s175,148,would,wo,ou,ul,ld,w,o,u,l,d,,,0.7965725819958607,0.9165410560090095,1.124559871997917,1.3085476429987466,1.4365474410005845,0.0,0.0,would,highwf,medbf
149,s175,149,cooed,co,oo,oe,ed,c,o,o,e,e,d,,0.6801505420007743,0.8401416589913424,0.9761170449928613,1.0641732799995225,1.2241394400043646,1.2241394400043646,0.0,cooeed,lowwf,medbf
150,s175,150,druze,dr,ru,uz,ze,d,r,u,z,e,,,0.9403458750020945,1.15635295699758,1.4923472139926162,1.708325044994126,1.9163254039885942,0.0,0.0,druze,lowwf,lowbf
151,s175,151,lucky,lu,uc,ck,ky,l,u,c,k,y,,,0.768105190989445,1.0641113159945235,1.336081714995089,1.4160570209933212,1.6480923779890873,0.0,0.0,lucky,highwf,lowbf
152,s175,152,kremp,kr,re,em,mp,k,r,e,m,p,,,1.0923509150015889,1.3804362930095522,1.5483895460056374,1.612389523012098,1.9643424810055876,0.0,0.0,kremp,pseudo,medbf
153,s175,153,there,th,he,er,re,t,h,e,r,e,,,0.7364320249907905,0.8084511219931301,0.9444610159989679,1.0723961159965256,1.2164703699963866,0.0,0.0,there,highwf,highbf
154,s175,154,about,ab,bo,ou,ut,a,b,o,u,t,,,0.8204212080017896,0.940364848007448,1.2524005000013858,1.4444586320023518,1.5324053229996935,0.0,0.0,about,highwf,medbf
155,s175,155,buddy,bu,ud,dd,dy,b,u,d,d,y,,,0.9432031540054595,1.2871436650020769,1.5111470260017086,1.6151557370030787,1.7271999410004355,0.0,0.0,buddy,highwf,lowbf
156,s175,156,think,th,hi,in,nk,t,h,i,n,k,,,0.7073028329905355,0.7793716509913793,1.0113095790002262,1.1953025369875832,1.3313677789992653,0.0,0.0,think,highwf,highbf
157,s175,157,lucky,lu,uc,ck,ky,l,u,c,k,y,,,0.7118478399934247,0.9837360069941496,1.1998092249996262,1.271773396001663,1.5437388739956077,0.0,0.0,lucky,highwf,lowbf
158,s175,158,heond,he,eo,on,nd,h,e,o,n,d,,,0.8196613159961998,1.1236299729935126,1.243627405987354,1.507616787988809,1.6436721649952233,0.0,0.0,heond,pseudo,highbf
159,s175,159,tithe,ti,it,th,he,t,i,t,h,e,,,0.7596583939885022,0.8476459499943303,0.9516499919991475,1.0796872399951098,1.2236443439905997,0.0,0.0,tithe,lowwf,highbf
160,s175,160,faqir,fa,aq,qi,ir,f,a,q,i,r,,,0.9620497019932372,1.1059830809972482,1.2899796340061584,1.5460225800052285,1.6579747380019398,0.0,0.0,faqir,lowwf,lowbf
161,s175,161,theme,th,he,em,me,t,h,e,m,e,,,0.7029435330041451,0.7829693319945363,0.9189368520019343,1.014980876003392,1.2228640940011246,0.0,0.0,theme,medwf,highbf
162,s175,162,tithe,ti,it,th,he,t,i,t,h,e,,,0.7792463170044357,0.8672397670015926,0.9551992620108649,1.0751967899996089,1.2192880410002545,0.0,0.0,tithe,lowwf,highbf
163,s175,163,there,th,he,er,re,t,h,e,r,e,,,0.7191210739983944,0.8070244770060526,0.9350712460000068,1.11133078399871,1.2310707389988238,0.0,0.0,there,highwf,highbf
164,s175,164,cheer,ch,he,ee,er,c,h,e,e,r,,,0.74776595000003,0.9237130550027359,1.0757233390031615,1.1877100950077875,1.3477498420106713,0.0,0.0,cheer,medwf,highbf
165,s175,165,belly,be,el,ll,ly,b,e,l,l,y,,,0.7506138010066934,0.9106346689950442,1.1665831249993062,1.3026225659996271,1.446602277996135,0.0,0.0,belly,medwf,medbf
166,s175,166,theme,th,he,em,me,t,h,e,m,e,,,0.7151745720038889,0.7951870020042406,0.915177961011068,1.0751219100056915,1.171122056999593,0.0,0.0,theme,medwf,highbf
167,s175,167,there,th,he,er,re,t,h,e,r,r,e,,0.7189682620082749,0.7989493839995703,0.9589163729979191,1.0949723469966557,1.2309382550010923,1.2389107830094872,0.0,therre,highwf,highbf
168,s175,168,edthe,ed,dt,th,he,e,d,t,h,e,,,0.8270186980080325,1.0030662150093121,1.2270259520009859,1.331063992009149,1.4430236519983737,0.0,0.0,edthe,pseudo,highbf
169,s175,169,vodka,vo,od,dk,ka,v,o,d,k,a,,,0.8387511499895481,1.0307517499895766,1.3348057229886763,1.4787560289987596,1.6387486879975768,0.0,0.0,vodka,medwf,lowbf
170,s175,170,therm,th,he,er,rm,t,h,e,r,m,,,0.7469263400125783,0.8189159180037677,0.9469101840077201,1.0908617860113736,1.2189329680113588,0.0,0.0,therm,lowwf,highbf
171,s175,171,kremp,kr,re,em,mp,k,r,e,m,p,,,0.8383345170004759,1.030328221997479,1.198374565996346,1.3024043710029218,1.5663328990049195,0.0,0.0,kremp,pseudo,medbf
172,s175,172,puppy,pu,up,pp,py,p,u,p,p,y,,,0.7627916599885793,1.050821469994844,1.3707267559948377,1.5067264809913468,1.7067264059878653,0.0,0.0,puppy,medwf,lowbf
173,s175,173,cooed,co,oo,oe,ed,c,o,o,e,d,,,0.7588978720013984,0.9268987380055478,1.0708963119977852,1.1189681910036597,1.2869336270086933,0.0,0.0,cooed,lowwf,medbf
174,s175,174,tithe,ti,it,th,he,t,i,t,h,e,,,0.7626954750012374,0.9066530919953948,1.0426701419928577,1.1306589320010971,1.2506619129999308,0.0,0.0,tithe,lowwf,highbf
175,s175,175,edthe,ed,dt,th,he,e,d,t,h,e,,,0.7348235170065891,0.9188453130045673,1.174776647996623,1.2628211870032828,1.3747862400050508,0.0,0.0,edthe,pseudo,highbf
176,s175,176,champ,ch,ha,am,mp,c,h,a,m,p,,,0.7068020430015167,0.8108571030024905,0.9628648619982414,1.0188700830040034,1.426843719003955,0.0,0.0,champ,medwf,medbf
177,s175,177,about,ab,bo,ou,ut,a,b,o,u,t,,,0.7747522290010238,0.8787604719982482,1.182831090001855,1.3988319999916712,1.486752766999416,0.0,0.0,about,highwf,medbf
178,s175,178,edthe,ed,dt,th,he,e,d,t,h,w,e,,0.7069181359984213,0.8829637419985374,1.0829657690046588,1.1469688289944315,1.2509376240050187,1.2509376240050187,0.0,edthwe,pseudo,highbf
179,s175,179,faqir,fa,aq,qi,ir,f,a,q,i,r,,,0.9029185819963459,1.0308117519889493,1.2068095579888904,1.5748424669873202,1.694880775990896,0.0,0.0,faqir,lowwf,lowbf
180,s175,180,champ,ch,ha,am,mp,c,h,a,m,p,,,0.7788643579988275,0.9388632710033562,1.08291580399964,1.1629115440009627,1.5548915240069618,0.0,0.0,champ,medwf,medbf
181,s175,181,puppy,pu,up,pp,py,p,u,p,p,y,,,0.8061780060088495,1.7022581460041692,2.10225235701364,2.2381809480139054,2.534248378011398,0.0,0.0,puppy,medwf,lowbf
182,s175,182,zibja,zi,ib,bj,ja,z,i,b,j,a,,,0.9461032129911473,1.0420836819976103,1.3300768549961504,1.5942179229896283,1.698142156994436,0.0,0.0,zibja,pseudo,lowbf
183,s175,183,think,th,hi,in,nk,t,h,i,n,k,,,0.7427662889967905,0.790759547991911,1.0707607029908104,1.2387614489998668,1.3587701829965226,0.0,0.0,think,highwf,highbf
184,s175,184,pykka,py,yk,kk,ka,p,u,,,,,,0.882843237995985,1.4907789499993669,0.0,0.0,0.0,0.0,0.0,pu,pseudo,lowbf
185,s175,185,theme,th,he,em,me,t,h,e,m,e,,,0.7587700559961377,0.8307553139893571,0.9507705799915129,1.0387631449993933,1.1667627779970644,0.0,0.0,theme,medwf,highbf
186,s175,186,buddy,bu,ud,dd,dy,b,u,d,d,y,,,1.0428444409917574,1.3388221839995822,1.5788257270032773,1.69889307799167,1.8268797749915393,0.0,0.0,buddy,highwf,lowbf
187,s175,187,vanru,va,an,nr,ru,v,a,n,r,u,,,1.1426149909966625,1.262665197995375,1.6146558780019404,1.8706353040033719,2.030661284996313,0.0,0.0,vanru,pseudo,medbf
188,s175,188,zibja,zi,ib,bj,ja,z,i,b,j,a,,,0.8748513430036837,1.0989018359978218,1.442867670004489,1.770855141003267,1.8908481340040453,0.0,0.0,zibja,pseudo,lowbf
189,s175,189,would,wo,ou,ul,ld,w,o,u,l,d,,,0.8307639209961053,1.0227557339967461,1.262803935998818,1.4948267470026622,1.6147913500026334,0.0,0.0,would,highwf,medbf
190,s175,190,haole,ha,ao,ol,le,h,a,o,l,e,,,0.7386343160032993,1.1306690250057727,1.2666347510094056,1.4107069700112334,1.4906296930130338,0.0,0.0,haole,lowwf,medbf
191,s175,191,there,th,he,er,re,t,h,e,r,e,,,0.7424374700058252,0.8064179500070168,0.9664184150024084,1.1184924990084255,1.2464673979993677,0.0,0.0,there,highwf,highbf
192,s175,192,haole,ha,ao,ol,le,h,a,o,l,e,,,0.8030771090125199,0.9710274070093874,1.1550309610029217,1.323030106999795,1.3790395590040134,0.0,0.0,haole,lowwf,medbf
193,s175,193,think,th,hi,in,nk,t,h,i,n,k,,,0.7586419510043925,0.8306000970042078,1.0546018210006878,1.2225976010086015,1.3506140820099972,0.0,0.0,think,highwf,highbf
194,s175,194,pykka,py,yk,kk,ka,p,y,k,k,a,,,0.9707921289955266,1.5868463729857467,1.9227921639976557,2.058787408997887,2.162875896989135,0.0,0.0,pykka,pseudo,lowbf
195,s175,195,therm,th,he,er,rm,t,h,e,m,r,,,0.8147096840111772,0.8867090710118646,1.038661957005388,1.2066608940076549,1.214718636998441,0.0,0.0,themr,lowwf,highbf
196,s175,196,vanru,va,an,nr,ru,v,a,n,r,u,,,1.0665259079978568,1.186578452005051,1.354523510002764,1.6585210549965268,1.7946274940040894,0.0,0.0,vanru,pseudo,medbf
197,s175,197,champ,ch,ha,am,mp,c,h,a,m,p,,,0.710608259003493,0.8146202710049693,0.9745592510007555,1.0305630220100284,1.3745624489965849,0.0,0.0,champ,medwf,medbf
198,s175,198,pykka,py,yk,kk,ka,p,y,j,k,a,,,0.8186077290010871,1.3866145219944883,1.74660123900685,1.9225603219965706,2.1626106490002712,0.0,0.0,pyjka,pseudo,lowbf
199,s175,199,would,wo,ou,ul,ld,w,o,u,l,d,,,0.8225596889969893,1.0545611359993927,1.2946201169979759,1.518609238002682,1.6306050639977911,0.0,0.0,would,highwf,medbf
200,s175,200,belly,be,el,ll,ly,b,e,l,l,y,,,0.8026593009999488,0.9705599389999406,1.3065602610004134,1.44257079999079,1.5545631299901288,0.0,0.0,belly,medwf,medbf
201,s175,201,heond,he,eo,on,nd,h,e,o,n,d,,,0.750351987007889,0.9263601819984615,1.1824225620075595,1.3903486339986557,1.5263771750032902,0.0,0.0,heond,pseudo,highbf
202,s175,202,druze,dr,ru,uz,ze,d,r,u,z,e,,,0.8506940289953491,1.0189002480037743,1.298730638998677,1.6347325020033168,1.8426907579996623,0.0,0.0,druze,lowwf,lowbf
203,s175,203,puppy,pu,up,pp,py,p,u,p,p,y,,,0.8146042370062787,1.110665259999223,1.4466894820070593,1.5666127709991997,1.7426110689993948,0.0,0.0,puppy,medwf,lowbf
204,s175,204,edthe,ed,dt,th,he,e,d,t,h,w,e,,0.7305079039942939,0.8905074299982516,1.074509523998131,1.1545075089961756,1.2745102339977166,1.2745102339977166,0.0,edthwe,pseudo,highbf
205,s175,205,kremp,kr,re,em,mp,k,r,e,m,p,,,0.8781807920022402,1.0462258530023973,1.2142141060030553,1.2942732889932813,1.5582214589958312,0.0,0.0,kremp,pseudo,medbf
206,s175,206,zibja,zi,ib,bj,ja,z,i,b,j,a,,,0.8985826519929105,1.0826030040043406,1.554543026999454,1.7465926900040358,1.8986138479958754,0.0,0.0,zibja,pseudo,lowbf
207,s175,207,would,wo,ou,ul,ld,w,o,u,l,d,,,0.830921169006615,0.9668732490099501,1.19891569801257,1.3908816640032455,1.510947116999887,0.0,0.0,would,highwf,medbf
208,s175,208,cheer,ch,he,ee,er,c,h,e,e,r,,,0.7065824029996293,0.8186304029950406,0.9946465789980721,1.1225827640009811,1.274579981007264,0.0,0.0,cheer,medwf,highbf
209,s175,209,tithe,ti,it,th,he,t,i,t,h,e,,,0.7265524469985394,0.8385392359923571,0.9105515919945901,1.062586891988758,1.1425400389998686,0.0,0.0,tithe,lowwf,highbf
210,s175,210,belly,be,el,ll,ly,b,e,l,l,y,,,0.9064626689942088,1.0345266299991636,1.3544480919954367,1.4744492399913725,1.6024974570027553,0.0,0.0,belly,medwf,medbf
211,s175,211,therm,th,he,er,rm,t,h,e,r,m,,,0.7106342039915035,0.8066465479932958,0.9346667849895312,1.094685453994316,1.1667089089896763,0.0,0.0,therm,lowwf,highbf
212,s175,212,think,th,hi,in,nk,t,h,i,h,n,k,,0.6426590690098237,0.7066798910091165,0.8987211019993993,1.1386482539965073,1.1386482539965073,1.2987179680058034,0.0,thihnk,highwf,highbf
213,s175,213,cheer,ch,he,ee,er,c,h,e,e,r,,,0.6785350569989532,0.8385598610038869,0.9745598790032091,1.1025803959928453,1.2545329760032473,0.0,0.0,cheer,medwf,highbf
214,s175,214,druze,dr,ru,uz,ze,d,r,u,z,e,,,0.7948028870014241,0.9787165750021813,1.2027357289916836,1.602740909991553,1.8987209789920598,0.0,0.0,druze,lowwf,lowbf
215,s175,215,about,ab,bo,ou,ut,a,b,o,u,t,,,0.7186315589933656,0.8146184520010138,1.1346003929938888,1.3425852939981269,1.4305832980026025,0.0,0.0,about,highwf,medbf
216,s175,216,vodka,vo,od,dk,ka,v,o,d,k,a,,,1.0102286470064428,1.1222555980057223,1.698305234007421,1.7943082640122157,1.9782933420065092,0.0,0.0,vodka,medwf,lowbf
217,s175,217,belly,be,el,ll,ly,b,e,l,l,y,,,0.8704283480037702,1.0224116540048271,1.2544473000016296,1.4144182590098353,1.4945099370088428,0.0,0.0,belly,medwf,medbf
218,s175,218,vanru,va,an,nr,ru,v,a,n,r,u,,,0.9288967419997789,1.0249107550043846,1.248898083998938,1.4728934519953327,1.816943170997547,0.0,0.0,vanru,pseudo,medbf
219,s175,219,cooed,co,oo,oe,ed,c,o,o,e,d,,,0.6941979310067836,0.8381074560020352,0.9741026210103882,1.0621119150018785,1.2140988590108464,0.0,0.0,cooed,lowwf,medbf
220,s175,220,cheer,ch,he,ee,er,c,h,e,e,r,,,0.6507341879914748,0.7547105709963944,0.8988249739923049,1.0267204959964147,1.1867724850017112,0.0,0.0,cheer,medwf,highbf
221,s175,221,faqir,fa,aq,qi,ir,f,a,q,i,r,,,0.894375781994313,1.0302677620056784,1.2062743660062551,1.5742685470031574,1.6782739040063461,0.0,0.0,faqir,lowwf,lowbf
222,s175,222,lucky,lu,uc,ck,ky,l,u,c,k,y,,,0.778493810998043,1.0584833600005368,1.298539092997089,1.370532444998389,1.69853217099444,0.0,0.0,lucky,highwf,lowbf
223,s175,223,belly,be,el,ll,ly,b,e,l,l,y,,,0.7103127620066516,0.8623153220105451,1.118398108999827,1.2543151460122317,1.3583124639990274,0.0,0.0,belly,medwf,medbf
224,s175,224,theme,th,he,em,me,t,h,e,m,e,,,0.7366594070044812,0.8086588800069876,0.952667844001553,1.0486590939981397,1.1606615259952378,0.0,0.0,theme,medwf,highbf
225,s175,225,haole,ha,ao,ol,le,h,a,o,l,e,,,0.7658131060015876,1.253753406010219,1.5417434350092662,1.6937986250122776,1.7657879990001675,0.0,0.0,haole,lowwf,medbf
226,s175,226,vanru,va,an,nr,ru,b,v,a,n,r,u,,0.8976224249927327,1.7537012609973317,1.9456250579969492,2.2176328859932255,2.449685044994112,2.6176841120031895,0.0,bvanru,pseudo,medbf
227,s175,227,buddy,bu,ud,dd,dy,b,u,d,d,y,,,0.6774563619983383,1.125412415000028,1.389430324008572,1.5014752179995412,1.5814833790063858,0.0,0.0,buddy,highwf,lowbf
228,s175,228,think,th,hi,in,nk,t,h,i,n,k,,,0.7218447839986766,0.7779376109974692,1.0258528779959306,1.1779023749986663,1.3218486649857368,0.0,0.0,think,highwf,highbf
229,s175,229,kremp,kr,re,em,mp,k,r,e,m,p,,,0.8059884660033276,1.0059596789942589,1.1660326580022229,1.2619883339939406,1.4780859329912346,0.0,0.0,kremp,pseudo,medbf
230,s175,230,faqir,fa,aq,qi,ir,f,a,q,i,r,,,0.9613056000089273,1.2732927309989464,1.4653395200002706,1.8013440040085698,1.8732923600036884,0.0,0.0,faqir,lowwf,lowbf
231,s175,231,champ,ch,ha,am,mp,c,h,a,m,p,,,0.6859867939929245,0.7899168650037609,0.9579142860020511,1.06193519399676,1.381957154997508,0.0,0.0,champ,medwf,medbf
232,s175,232,druze,dr,ru,uz,ze,d,r,u,z,e,,,0.7936965109984158,0.9777572629973292,1.249757564990432,1.5376962459995411,1.753768422990106,0.0,0.0,druze,lowwf,lowbf
233,s175,233,heond,he,eo,on,nd,h,e,o,n,d,,,0.7977145110053243,1.0778076620044885,1.1737726690043928,1.3657816009945236,1.5017732510023052,0.0,0.0,heond,pseudo,highbf
234,s175,234,lucky,lu,uc,ck,ky,l,u,c,k,y,,,0.7216230360063491,1.00963118999789,1.2736208810092648,1.345624621011666,1.5616386150068138,0.0,0.0,lucky,highwf,lowbf
235,s175,235,buddy,bu,ud,dd,dy,b,u,d,d,y,,,1.0295592129987199,1.4535273980000056,1.685572839996894,1.805514444000437,1.90952743399248,0.0,0.0,buddy,highwf,lowbf
236,s175,236,zibja,zi,ib,bj,ja,z,i,b,j,a,,,0.9297980569972424,1.273755447997246,1.5377639689977514,1.7377528869983507,1.857754771001055,0.0,0.0,zibja,pseudo,lowbf
237,s175,237,puppy,pu,up,pp,py,p,u,p,p,y,,,0.7417002650036011,1.029734712006757,1.30969182800618,1.4297393380111316,1.6056865569989895,0.0,0.0,puppy,medwf,lowbf
238,s175,238,cooed,co,oo,oe,ed,c,o,o,e,d,,,0.7457386909954948,0.865781340005924,1.001821548998123,1.0817794120084727,1.241742914004135,0.0,0.0,cooed,lowwf,medbf
239,s175,239,lucky,lu,uc,ck,ky,l,u,c,k,y,,,0.7017745860066498,0.9817217200034065,1.229724630000419,1.3096912000037264,1.5017352279974148,0.0,0.0,lucky,highwf,lowbf
