,sID,Trial #,string,bi_1,bi_2,bi_3,bi_4,key_resp.keys.1,key_resp.keys.2,key_resp.keys.3,key_resp.keys.4,key_resp.keys.5,key_resp.keys.6,key_resp.keys.7,key_resp.rt.1,key_resp.rt.2,key_resp.rt.3,key_resp.rt.4,key_resp.rt.5,key_resp.rt.6,key_resp.rt.7,resp_string,WF Type,BF Type
0,s180,0,therm,th,he,er,rm,t,h,e,r,m,,,0.6543957379999483,0.7664705489996777,0.8864179689999219,0.9823634169997604,1.0944655900002545,0.0,0.0,therm,lowwf,highbf
1,s180,1,puppy,pu,up,pp,py,p,u,u,p,y,,,1.3379396640002597,1.7700327310003559,1.930055163000361,2.3459104600005958,2.5219595560001835,0.0,0.0,puupy,medwf,lowbf
2,s180,2,there,th,he,er,re,t,h,e,r,e,,,0.5977495840006668,0.7097352580003644,0.8057128080008624,0.8777895140001419,0.981767764000324,0.0,0.0,there,highwf,highbf
3,s180,3,buddy,bu,ud,dd,dy,b,u,d,d,y,,,0.5932394160008698,0.8013464720006596,0.9612887380008033,1.1053391580007883,1.177335229000164,0.0,0.0,buddy,highwf,lowbf
4,s180,4,faqir,fa,aq,qi,ir,f,a,q,i,r,,,0.5339403279995167,0.7339435180001601,1.1420260439999765,1.30996013999993,1.421968927999842,0.0,0.0,faqir,lowwf,lowbf
5,s180,5,edthe,ed,dt,th,he,e,d,t,h,e,,,0.6256730900004186,0.8176217680002082,0.9536971520001316,1.0656874129999778,1.1536696210005175,0.0,0.0,edthe,pseudo,highbf
6,s180,6,vodka,vo,od,dk,ka,v,o,d,k,a,,,0.5897733040001185,0.7337712299995474,0.8778974549995837,1.005926637999437,1.0937730729992836,0.0,0.0,vodka,medwf,lowbf
7,s180,7,cheer,ch,he,ee,er,c,h,e,e,r,,,0.5455513759998212,0.6656095879998247,0.8015401259999635,1.0015425479996338,1.0575163040002735,0.0,0.0,cheer,medwf,highbf
8,s180,8,buddy,bu,ud,dd,dy,b,u,d,d,y,,,0.5260785500004204,0.7101100540003245,0.8622114990002956,0.9981571640000766,1.134088120999877,0.0,0.0,buddy,highwf,lowbf
9,s180,9,there,th,he,er,re,t,h,e,r,e,,,0.4980058020000797,0.6019331300003614,0.6820476490001965,0.7780321340005685,0.8580522980000751,0.0,0.0,there,highwf,highbf
10,s180,10,kremp,kr,re,em,mp,k,r,e,m,p,,,0.5021207580002738,0.7100233119999757,0.8140866040002948,0.9900860999996439,1.2540160629996535,0.0,0.0,kremp,pseudo,medbf
11,s180,11,cooed,co,oo,oe,ed,c,o,o,e,d,,,0.5461518289994274,0.7142377509999278,0.8902334899994457,0.9861919400000261,1.1542367919992103,0.0,0.0,cooed,lowwf,medbf
12,s180,12,tithe,ti,it,th,he,t,i,t,h,e,,,0.5262839369997891,0.6622372000001633,0.7981669480004712,0.9262846430001446,0.982239140999809,0.0,0.0,tithe,lowwf,highbf
13,s180,13,belly,be,el,ll,ly,b,e,l,l,y,,,0.49754022200067993,0.6736571790006565,0.9136075000005803,1.0496055680005156,1.1376577840001119,0.0,0.0,belly,medwf,medbf
14,s180,14,about,ab,bo,ou,ut,a,b,o,t,,,,0.49394203599968023,0.5979819399999542,0.8220351299996764,1.0939218470002743,0.0,0.0,0.0,abot,highwf,medbf
15,s180,15,therm,th,he,er,rm,t,h,e,r,m,,,0.4979276590001973,0.5699721499995576,0.7139917349995812,0.7779148290001103,0.8900128569994195,0.0,0.0,therm,lowwf,highbf
16,s180,16,cheer,ch,he,ee,er,c,h,e,e,r,,,0.501691493999715,0.6055975369999942,0.7335615459996916,0.9175846349999119,0.9737069379998502,0.0,0.0,cheer,medwf,highbf
17,s180,17,cooed,co,oo,oe,ed,c,o,o,e,d,,,0.5056659620004211,0.6816466000000219,0.8497197349997805,1.2897373929999958,1.4818056459998843,0.0,0.0,cooed,lowwf,medbf
18,s180,18,buddy,bu,ud,dd,dy,b,u,d,d,y,,,0.517538701000376,0.6935668070000247,0.8935571460006031,1.0296869640005752,1.1656151480001427,0.0,0.0,buddy,highwf,lowbf
19,s180,19,cheer,ch,he,ee,er,c,h,e,e,r,,,0.46569477499997447,0.553746081999634,0.6817079259999446,0.8177349359993968,0.9136729989995729,0.0,0.0,cheer,medwf,highbf
20,s180,20,edthe,ed,dt,th,he,e,d,t,h,e,,,0.5574936299999536,0.7333855980004955,0.8375080000005255,0.9333832490001441,1.0213868470000307,0.0,0.0,edthe,pseudo,highbf
21,s180,21,tithe,ti,it,th,he,t,i,t,h,e,,,0.4738700300003984,0.5619358280000597,0.6819157570007519,0.7619415330000265,0.8419328250001854,0.0,0.0,tithe,lowwf,highbf
22,s180,22,therm,th,he,er,rm,t,h,e,r,m,,,0.47760330399978557,0.5496543910003311,0.6696406210003261,0.7416750359998332,0.8536229979999916,0.0,0.0,therm,lowwf,highbf
23,s180,23,zibja,zi,ib,bj,ja,z,i,b,j,a,,,0.6555828930004282,0.8875819060003778,1.0314595840000038,1.3276103469997906,1.6394880090001607,0.0,0.0,zibja,pseudo,lowbf
24,s180,24,champ,ch,ha,am,mp,c,h,a,m,p,,,0.5019783590005318,0.6220304810003654,0.7580197349998343,0.9259143270001005,1.1259767789997568,0.0,0.0,champ,medwf,medbf
25,s180,25,lucky,lu,uc,ck,ky,l,u,c,k,y,,,0.5216634620001059,0.7457308259999991,0.9297004950003611,1.0497639250006614,1.2177305940003862,0.0,0.0,lucky,highwf,lowbf
26,s180,26,there,th,he,er,re,t,h,e,r,e,,,0.4535498010000083,0.549530469000274,0.6454566620004698,0.7334381340006075,0.8375656600001093,0.0,0.0,there,highwf,highbf
27,s180,27,haole,ha,ao,ol,le,h,a,o,l,w,,,0.48185877299965796,0.6337890200002221,0.7858319859997209,1.057863680999617,1.2577934000000823,0.0,0.0,haolw,lowwf,medbf
28,s180,28,vanru,va,an,nr,ru,v,a,n,r,u,,,0.5576209250002648,0.7496104110005035,0.8776262670007782,1.0295672930005821,1.1574911650004651,0.0,0.0,vanru,pseudo,medbf
29,s180,29,heond,he,eo,on,nd,h,e,o,n,d,,,0.5058502560004854,0.6257626309998159,0.7698383160004596,0.9618513490004261,1.0737918530003299,0.0,0.0,heond,pseudo,highbf
30,s180,30,haole,ha,ao,ol,le,h,a,o,l,e,,,0.5258294770001157,0.6778825070005041,0.8138981740003146,1.1178330890006691,1.3019705699998667,0.0,0.0,haole,lowwf,medbf
31,s180,31,zibja,zi,ib,bj,ja,z,i,b,j,a,,,0.6576102919998448,0.8174944040001719,0.9375031700001273,1.161602158000278,1.2495730589998857,0.0,0.0,zibja,pseudo,lowbf
32,s180,32,vanru,va,an,nr,ru,v,a,n,r,u,,,0.5176037170003838,0.6697105040002498,0.7816767100002835,0.9096054139999978,1.0296474110000418,0.0,0.0,vanru,pseudo,medbf
33,s180,33,druze,dr,ru,uz,ze,d,r,u,z,e,,,0.4654177160000472,0.641365604999919,0.7855081830002746,0.9134625420001612,1.489467250999951,0.0,0.0,druze,lowwf,lowbf
34,s180,34,pykka,py,yk,kk,ka,p,y,k,k,a,,,0.7898925689996759,1.0139895839993187,1.1418786599997475,1.2859227660001125,1.365951156999472,0.0,0.0,pykka,pseudo,lowbf
35,s180,35,puppy,pu,up,pp,py,p,u,p,p,y,,,0.5376562030005516,1.0176336499998797,1.1936505780004154,1.3217051940000601,1.4976486860005025,0.0,0.0,puppy,medwf,lowbf
36,s180,36,vodka,vo,od,dk,ka,v,o,d,k,a,,,0.5339922270004536,0.6781063329999597,0.7980532080000557,0.9180006880005749,1.0061059360004947,0.0,0.0,vodka,medwf,lowbf
37,s180,37,think,th,hi,in,nk,t,h,i,n,k,e,,0.4659797750000507,0.5539824790002967,0.6579802899996139,0.7379569579998133,0.8659790720003002,0.977940337000291,0.0,thinke,highwf,highbf
38,s180,38,belly,be,el,ll,ly,b,e,l,l,y,,,0.4858594620000076,0.6298202140005742,0.7978014910004276,0.933744963999743,1.0138635949997479,0.0,0.0,belly,medwf,medbf
39,s180,39,theme,th,he,em,me,t,h,e,m,e,,,0.4816275989996939,0.5696354840001732,0.6896126880001248,0.7935491770003864,0.8895570349995978,0.0,0.0,theme,medwf,highbf
40,s180,40,kremp,kr,re,em,mp,k,r,e,m,p,,,0.5974044049999065,0.813409364999643,0.8854479089995948,0.9814303129996915,1.1333700770001087,0.0,0.0,kremp,pseudo,medbf
41,s180,41,buddy,bu,ud,dd,dy,b,u,d,d,y,,,0.4733757880003395,0.8332508900002722,1.0413775799997893,1.1932498719997966,1.2653331009996691,0.0,0.0,buddy,highwf,lowbf
42,s180,42,there,th,he,er,re,t,h,e,r,e,,,0.43766506100018887,0.525633060000473,0.6056751200003418,0.7096474130003116,0.7976971389998653,0.0,0.0,there,highwf,highbf
43,s180,43,pykka,py,yk,kk,ka,p,y,k,k,a,,,0.6737886830005664,0.8417828150004425,0.9857848990004641,1.1217993050004225,1.177743697000551,0.0,0.0,pykka,pseudo,lowbf
44,s180,44,therm,th,he,er,rm,t,h,e,r,m,,,0.4854496600000857,0.5814521160000368,0.6854471520000516,0.7654900890001954,0.877423058000204,0.0,0.0,therm,lowwf,highbf
45,s180,45,haole,ha,ao,ol,le,h,a,o,l,e,,,0.4974362699995254,0.6253544809997038,0.7693876630000887,0.9533906779997778,1.0173365789996751,0.0,0.0,haole,lowwf,medbf
46,s180,46,druze,dr,ru,uz,ze,d,r,u,z,e,,,0.5252128109996193,0.6373293319993536,0.7332042879997971,0.8932334169994647,1.1812870509993445,0.0,0.0,druze,lowwf,lowbf
47,s180,47,champ,ch,ha,am,mp,c,h,a,m,p,,,0.5216789579999386,0.6016345490006643,0.7376950409998244,0.8576455840002382,1.0175722590001897,0.0,0.0,champ,medwf,medbf
48,s180,48,theme,th,he,em,me,t,h,e,m,e,,,0.48578143600025214,0.5577568990001964,0.669828938000137,0.7738181490003626,0.8538141019998875,0.0,0.0,theme,medwf,highbf
49,s180,49,think,th,hi,in,nk,t,h,i,n,k,,,0.4494157010003619,0.5214267319997816,0.6173063300002468,0.7134163999999146,0.8173063379999803,0.0,0.0,think,highwf,highbf
50,s180,50,vanru,va,an,nr,ru,v,a,n,r,u,,,0.46939620899956935,0.621358663999672,0.7574131840001428,0.9092895189996852,1.0454066619995501,0.0,0.0,vanru,pseudo,medbf
51,s180,51,belly,be,el,ll,ly,b,e,l,l,y,,,0.47329334299956827,0.6012220869997691,0.7452384959997289,0.8892784509998819,0.9452122789998612,0.0,0.0,belly,medwf,medbf
52,s180,52,would,wo,ou,ul,ld,e,w,o,u,l,d,,0.677852324000014,0.685796210999797,1.1658861509995404,1.2298177249995206,1.3978041089994804,1.4699054309994608,0.0,ewould,highwf,medbf
53,s180,53,cooed,co,oo,oe,ed,c,o,o,e,d,,,0.5773390730000756,0.7614670550001392,0.8893762920006338,0.9773514409998825,1.1453856220005036,0.0,0.0,cooed,lowwf,medbf
54,s180,54,cheer,ch,he,ee,er,c,h,e,e,r,,,0.46931503399991925,0.6612963859997762,0.757267628999216,0.9092143959996974,0.9893205249991297,0.0,0.0,cheer,medwf,highbf
55,s180,55,druze,dr,ru,uz,ze,d,r,u,z,e,,,0.41735989399967366,0.5775274489997173,0.6894972639993284,0.7933520659998976,1.0013633399994433,0.0,0.0,druze,lowwf,lowbf
56,s180,56,zibja,zi,ib,bj,ja,z,i,b,j,a,,,0.7253143110001474,0.8534381990002657,0.9654298860004928,1.1414272319998418,1.229352014000142,0.0,0.0,zibja,pseudo,lowbf
57,s180,57,haole,ha,ao,ol,le,h,a,o,l,e,,,0.4893694909997066,0.5772876329992869,0.7452302159999817,0.9453277849997903,1.033262690999436,0.0,0.0,haole,lowwf,medbf
58,s180,58,cheer,ch,he,ee,er,c,h,e,e,r,,,0.47757260900016263,0.6055173550003019,0.7174406590002036,0.8616490740005247,0.957449577999796,0.0,0.0,cheer,medwf,highbf
59,s180,59,about,ab,bo,ou,ut,a,b,o,u,t,,,0.4414818139994168,0.5614811959994768,0.7774947799998699,0.889513457999783,0.9855058949997328,0.0,0.0,about,highwf,medbf
60,s180,60,druze,dr,ru,uz,ze,d,r,u,z,e,,,0.4611978069997349,0.5971733520000271,0.7090988859999925,1.429121527999996,1.6532063630002085,0.0,0.0,druze,lowwf,lowbf
61,s180,61,heond,he,eo,on,nd,h,e,o,n,h,d,,0.545260796000548,0.6572660440006075,0.7772558180004125,0.9291866520006806,0.9372667460002049,0.985265392000656,0.0,heonhd,pseudo,highbf
62,s180,62,edthe,ed,dt,th,he,e,d,t,h,e,,,0.6454403110001294,0.8294696269995256,0.9655583049998313,1.069559302000016,1.1254451459999473,0.0,0.0,edthe,pseudo,highbf
63,s180,63,heond,he,eo,on,nd,h,e,o,n,d,,,0.6418115189999298,0.7936940750005306,0.9296888130002117,1.0176797930007524,1.1138044200006334,0.0,0.0,heond,pseudo,highbf
64,s180,64,faqir,fa,aq,qi,ir,f,a,q,i,r,,,0.4934733899999628,0.6536159520001092,1.3815641700002743,1.5416195280004104,1.6696052450006391,0.0,0.0,faqir,lowwf,lowbf
65,s180,65,vanru,va,an,nr,ru,v,a,n,r,u,,,0.5214573670000391,0.689374700999906,0.8093433290005123,0.9534212099997603,1.057434488000581,0.0,0.0,vanru,pseudo,medbf
66,s180,66,faqir,fa,aq,qi,ir,f,a,q,i,r,,,0.4768691220006076,0.5808708439999464,0.9809103719999257,1.1248722099999213,1.2528761600005964,0.0,0.0,faqir,lowwf,lowbf
67,s180,67,lucky,lu,uc,ck,ky,l,u,c,k,y,,,0.5534141320003982,0.8014516160001222,0.9613946980007313,1.0733715930000471,1.2333012910003163,0.0,0.0,lucky,highwf,lowbf
68,s180,68,kremp,kr,re,em,mp,k,e,backspace,r,e,m,p,0.5253017889999683,0.7252892160004194,1.1813085650001085,1.325337256000239,1.3733631630002492,1.7092899600002056,1.8854038960007529,kebackspaceremp,pseudo,medbf
69,s180,69,think,th,hi,in,nk,t,h,i,n,k,,,0.4975721529999646,0.5535765790000369,0.681569970000055,0.7536335300001156,0.881518989000142,0.0,0.0,think,highwf,highbf
70,s180,70,champ,ch,ha,am,mp,c,h,a,m,p,,,0.4935195250000106,0.5574959049999961,0.6776231429994368,0.7736150659993655,0.9174850829995194,0.0,0.0,champ,medwf,medbf
71,s180,71,heond,he,eo,on,nd,h,e,o,n,d,,,0.4732601559999239,0.5932005130007383,0.6972418390005259,0.7692556830006652,0.8652550169999813,0.0,0.0,heond,pseudo,highbf
72,s180,72,lucky,lu,uc,ck,ky,l,u,c,k,y,,,1.0853635889998259,1.2932835199999317,1.3812984189999042,1.5092931849994784,1.629322165999838,0.0,0.0,lucky,highwf,lowbf
73,s180,73,champ,ch,ha,am,mp,c,h,a,m,p,,,0.4810478100007458,0.5451559279999856,1.3930497060000562,1.497086429000774,1.6010628980002366,0.0,0.0,champ,medwf,medbf
74,s180,74,zibja,zi,ib,bj,ja,z,i,b,j,a,,,0.7014650940000138,0.8535513489996447,1.0375513589997354,1.2294641079997746,1.3094288920001418,0.0,0.0,zibja,pseudo,lowbf
75,s180,75,puppy,pu,up,pp,py,p,u,p,p,y,,,0.6252926690003733,0.8972804659997564,1.1532750320002378,1.2972215330000836,1.385337269000047,0.0,0.0,puppy,medwf,lowbf
76,s180,76,would,wo,ou,ul,ld,w,o,u,l,d,,,0.565682483999808,0.7417213099997753,0.805722063999383,0.957685864999803,1.0537236549998852,0.0,0.0,would,highwf,medbf
77,s180,77,about,ab,bo,ou,ut,a,b,o,u,t,,,0.4575904100001935,0.553641460000108,0.7775963610001781,0.8415994800006956,0.9456306170004609,0.0,0.0,about,highwf,medbf
78,s180,78,cooed,co,oo,oe,ed,c,o,o,e,d,,,0.485231345000102,0.6291932859994631,0.7572329630002059,0.8131787889997213,0.9892332130002615,0.0,0.0,cooed,lowwf,medbf
79,s180,79,kremp,kr,re,em,mp,k,r,e,m,p,,,0.5213308400007008,0.6893394720000288,0.761424693000663,0.8413676410000335,0.9693782069998633,0.0,0.0,kremp,pseudo,medbf
80,s180,80,cooed,co,oo,oe,ed,c,o,o,e,d,,,0.4846567429995048,0.6287627149995387,0.7647501669998746,0.8447443769991878,1.0126611169998796,0.0,0.0,cooed,lowwf,medbf
81,s180,81,would,wo,ou,ul,ld,w,o,u,l,d,,,0.5207319040000584,0.6647279380003965,0.75277658899995,0.9048103210006957,0.9766550940003071,0.0,0.0,would,highwf,medbf
82,s180,82,haole,ha,ao,ol,le,h,q,a,o,l,e,,0.5164613739998458,0.8924332039996443,1.492432215000008,1.6365333639996607,1.812467364999975,1.8684907440001552,0.0,hqaole,lowwf,medbf
83,s180,83,champ,ch,ha,am,mp,c,h,a,m,p,,,0.5923720850005338,0.6804615840001134,1.0085198450005919,1.112452991000282,1.240386655000293,0.0,0.0,champ,medwf,medbf
84,s180,84,would,wo,ou,ul,ld,w,o,u,l,d,,,0.5730069400005959,0.7169069650008169,0.7729048310002327,0.9729240270007722,1.068896637000762,0.0,0.0,would,highwf,medbf
85,s180,85,faqir,fa,aq,qi,ir,f,a,q,i,r,,,0.5604132150001533,0.8004112090002309,1.1924069000006057,1.448513868000191,1.5764213270003893,0.0,0.0,faqir,lowwf,lowbf
86,s180,86,tithe,ti,it,th,he,t,i,t,h,e,,,0.4844886119999501,0.6525773399998798,0.7885311529998944,0.8525797820002481,0.9325331239997467,0.0,0.0,tithe,lowwf,highbf
87,s180,87,think,th,hi,in,nk,t,h,i,n,k,,,0.4489437230004114,0.5049599040003159,0.6008375560004424,0.6969429450000462,0.792842974999985,0.0,0.0,think,highwf,highbf
88,s180,88,tithe,ti,it,th,he,t,i,t,h,e,,,0.4529065080005239,0.5167949779997798,0.6528815990004659,0.7007977769999343,0.7648136030002206,0.0,0.0,tithe,lowwf,highbf
89,s180,89,about,ab,bo,ou,ut,a,b,o,u,t,,,0.4807924369997636,0.5527903450001759,0.744768352000392,0.8407049309998911,0.9047829070004809,0.0,0.0,about,highwf,medbf
90,s180,90,druze,dr,ru,uz,ze,d,r,u,z,e,,,0.46848184400005266,0.6284932030002892,0.7003916289995686,0.8604591280000022,1.1003923150001356,0.0,0.0,druze,lowwf,lowbf
91,s180,91,theme,th,he,em,me,t,h,e,m,e,,,0.480305433000467,0.5683035370002472,0.6722055110003566,0.7762016690003293,0.8642425530006221,0.0,0.0,theme,medwf,highbf
92,s180,92,vodka,vo,od,dk,ka,v,o,d,k,a,,,0.5725193300004321,0.7565477469997859,0.9485013960002107,1.0685512720001498,1.1484994169995844,0.0,0.0,vodka,medwf,lowbf
93,s180,93,lucky,lu,uc,ck,ky,l,u,c,k,y,,,0.5847022039997682,0.8006986139998844,0.9368153960003838,1.048774326000057,1.18469489600011,0.0,0.0,lucky,highwf,lowbf
94,s180,94,belly,be,el,ll,ly,b,e,l,l,y,,,0.5246883310001067,0.684578672000498,0.8206930650003414,0.9726274560007369,1.028712397000163,0.0,0.0,belly,medwf,medbf
95,s180,95,about,ab,bo,ou,ut,a,b,o,u,t,,,0.4883508040002198,0.6244884119996641,0.8003587260000131,0.9123860429999695,0.9763733359995967,0.0,0.0,about,highwf,medbf
96,s180,96,zibja,zi,ib,bj,ja,z,i,b,j,a,,,0.5968511020000733,0.75686997000048,0.9248513980001007,1.0767487090006398,1.1407368620002671,0.0,0.0,zibja,pseudo,lowbf
97,s180,97,kremp,kr,re,em,mp,k,r,e,m,p,,,0.5206007899996621,0.6565676190002705,0.7286510410003757,0.808675256999777,0.9365907589999551,0.0,0.0,kremp,pseudo,medbf
98,s180,98,pykka,py,yk,kk,ka,p,y,k,k,a,,,0.5482086049996724,0.740138088999629,0.8841414429998622,1.036249626999961,1.0841423920001034,0.0,0.0,pykka,pseudo,lowbf
99,s180,99,puppy,pu,up,pp,py,p,u,p,p,y,,,0.5122858830000041,0.8163849469992783,0.9204265699991083,1.0563205059997927,1.208223258999169,0.0,0.0,puppy,medwf,lowbf
100,s180,100,buddy,bu,ud,dd,dy,b,u,d,d,y,,,0.5407781450003313,0.6846730430006573,0.8207358460003888,0.972792109000693,0.9807842830005029,0.0,0.0,buddy,highwf,lowbf
101,s180,101,belly,be,el,ll,ly,b,e,l,l,y,,,0.4724405150000166,0.5763870509999833,0.7124161780002396,0.856497787999615,0.9043681430002835,0.0,0.0,belly,medwf,medbf
102,s180,102,there,th,he,er,re,t,h,e,r,e,,,0.48434706699936214,0.5564037269996334,0.6524104390000502,0.7003436029999648,0.796503744999427,0.0,0.0,there,highwf,highbf
103,s180,103,pykka,py,yk,kk,ka,p,y,k,k,a,,,0.5364874159995452,0.7124308630000087,0.8485071309996783,0.984415701999751,1.0644455860001472,0.0,0.0,pykka,pseudo,lowbf
104,s180,104,heond,he,eo,on,nd,h,e,o,n,d,,,0.48443933199996536,0.580505574000199,0.6924259269999311,0.7805466999998316,0.8764469119996647,0.0,0.0,heond,pseudo,highbf
105,s180,105,puppy,pu,up,pp,py,p,u,p,p,y,,,0.4965405010007089,0.8165027780005403,1.0086019530008343,1.1604263700000956,1.224417671000083,0.0,0.0,puppy,medwf,lowbf
106,s180,106,therm,th,he,er,rm,t,h,e,r,m,,,0.4846163849997538,0.5485763279993989,0.6605137249998734,0.7245172949997141,0.8286371579997649,0.0,0.0,therm,lowwf,highbf
107,s180,107,faqir,fa,aq,qi,ir,f,a,q,i,r,,,0.5364378630001738,0.696512870999868,1.0965030120005395,1.2484465810002803,1.3444672129999162,0.0,0.0,faqir,lowwf,lowbf
108,s180,108,edthe,ed,dt,th,he,e,d,t,h,e,,,0.5083832060008717,0.7085338260003482,0.8123728880000272,0.9083767860001899,0.9804749080003603,0.0,0.0,edthe,pseudo,highbf
109,s180,109,vodka,vo,od,dk,ka,v,o,d,k,a,,,0.5284284140007003,0.6484667970007649,0.7683640109999033,0.9044815320003181,0.9843604289999348,0.0,0.0,vodka,medwf,lowbf
110,s180,110,theme,th,he,em,me,t,h,e,m,e,,,0.47601099199982855,0.5720546459997422,0.7321133909999844,0.8760119709995706,1.0041676659993755,0.0,0.0,theme,medwf,highbf
111,s180,111,pykka,py,yk,kk,ka,p,y,k,k,a,,,0.5599214260000736,0.7040097899998727,0.856060707999859,1.0159428639999533,1.0560265309995884,0.0,0.0,pykka,pseudo,lowbf
112,s180,112,theme,th,he,em,me,t,h,e,m,e,,,0.4362884460006171,0.5322593470000356,0.6202723630003675,0.7402841439998156,0.8122285460003695,0.0,0.0,theme,medwf,highbf
113,s180,113,lucky,lu,uc,ck,ky,l,u,c,k,y,,,0.5206880879995879,0.6966790910000782,0.8006124929997895,0.9527062789993579,1.024654637999447,0.0,0.0,lucky,highwf,lowbf
114,s180,114,edthe,ed,dt,th,he,e,d,t,h,e,,,0.540265257000101,0.7403180740002426,0.852277721000064,0.9403169759998491,0.9963146730005974,0.0,0.0,edthe,pseudo,highbf
115,s180,115,would,wo,ou,ul,ld,w,o,u,l,d,,,0.5605091340003128,0.7046114759996271,0.7845230319999246,0.9446044859996618,0.9925501739999163,0.0,0.0,would,highwf,medbf
116,s180,116,vanru,va,an,nr,ru,v,a,n,r,,,,0.5003247029999329,0.6364201920005144,0.748462550000113,0.8603637280002658,0.0,0.0,0.0,vanr,pseudo,medbf
117,s180,117,vodka,vo,od,dk,ka,v,o,d,k,a,,,0.48850094099998387,0.6003274019994933,0.7123727560001498,0.8643508710001697,0.9284968249994563,0.0,0.0,vodka,medwf,lowbf
118,s180,118,tithe,ti,it,th,he,t,i,t,h,e,,,0.5003526090004016,0.6123412420001841,0.6843510660000902,0.7884605560002456,0.836462510000274,0.0,0.0,tithe,lowwf,highbf
119,s180,119,think,th,hi,in,nk,t,h,i,n,k,,,0.4804529189996174,0.5603323349996572,0.6884524019997116,0.7524616780001452,0.8643403200003377,0.0,0.0,think,highwf,highbf
120,s180,120,puppy,pu,up,pp,py,p,u,p,p,y,,,0.8481332409992319,1.0641261439996015,1.672147307999694,1.8080587710001055,1.8721047139997609,0.0,0.0,puppy,medwf,lowbf
121,s180,121,cheer,ch,he,ee,er,c,h,e,e,r,,,0.4817056069996397,0.5857313050000812,0.6577448109992474,0.8017314139997325,0.8897068930000387,0.0,0.0,cheer,medwf,highbf
122,s180,122,would,wo,ou,ul,ld,w,o,u,l,d,,,0.5095823870005916,0.6456683100004739,0.7175759850006216,0.8696940919999179,0.9496844960003727,0.0,0.0,would,highwf,medbf
123,s180,123,edthe,ed,dt,th,he,e,d,t,h,e,,,0.5052865790003125,0.6972710510008255,0.7852022090000901,0.8893416210003124,0.9532881420000194,0.0,0.0,edthe,pseudo,highbf
124,s180,124,vodka,vo,od,dk,ka,v,o,d,k,a,,,0.6617883620001521,0.7817707059994063,1.0137181959998998,1.1577638210001169,1.2456772349996754,0.0,0.0,vodka,medwf,lowbf
125,s180,125,belly,be,el,ll,ly,b,e,l,l,y,,,0.48165809599959175,0.5936160579994976,0.7376220899996042,0.8736328389995833,0.9295768430001772,0.0,0.0,belly,medwf,medbf
126,s180,126,vanru,va,an,nr,ru,v,a,n,r,u,,,0.4691900580000947,0.6051206299998739,0.7331169260005481,0.8532332620006855,0.9412235059999148,0.0,0.0,vanru,pseudo,medbf
127,s180,127,lucky,lu,uc,ck,ky,l,u,c,k,y,,,0.5059089939995829,0.6977900259998933,0.793779394000012,0.9298823199997059,1.0419077219994506,0.0,0.0,lucky,highwf,lowbf
128,s180,128,would,wo,ou,ul,ld,w,o,u,l,d,,,0.5898621629994523,0.7658104879992607,0.8138492279995262,0.9578647789994648,1.0138488239999788,0.0,0.0,would,highwf,medbf
129,s180,129,cooed,co,oo,oe,ed,c,o,o,e,d,,,0.5453698519995669,0.7054117730003782,0.8573675159996128,0.9134007049997308,1.0973268030002146,0.0,0.0,cooed,lowwf,medbf
130,s180,130,tithe,ti,it,th,he,t,i,t,h,e,,,0.4856919710000511,0.6055930970005647,0.7016873729999134,0.797575665000295,0.88568926500011,0.0,0.0,tithe,lowwf,highbf
131,s180,131,puppy,pu,up,pp,py,p,u,p,p,y,,,0.5215477149995422,0.7696453079997809,1.0175341710000794,1.1775565139996615,1.2576595170003202,0.0,0.0,puppy,medwf,lowbf
132,s180,132,pykka,py,yk,kk,ka,p,y,k,k,a,,,0.53334200900008,0.7894182909994925,1.0773882299999968,1.2933120339994275,1.4534060879996105,0.0,0.0,pykka,pseudo,lowbf
133,s180,133,puppy,pu,up,pp,py,p,u,p,p,y,,,0.537642675000825,0.769654169000205,1.0016406520007877,1.1376338860000033,1.2175794060003682,0.0,0.0,puppy,medwf,lowbf
134,s180,134,edthe,ed,dt,th,he,e,d,t,h,e,,,0.4698198069991122,0.6616591009997137,0.7816281649993471,0.869672317999175,0.9496590819999255,0.0,0.0,edthe,pseudo,highbf
135,s180,135,buddy,bu,ud,dd,dy,b,u,d,d,y,,,0.5054122090004967,0.6494706160001442,0.7854721240000799,0.9053565519998301,0.9774332610004421,0.0,0.0,buddy,highwf,lowbf
136,s180,136,cheer,ch,he,ee,er,c,h,e,e,r,,,0.509077009000066,0.6291047159993468,0.71738792799988,0.8451015619993996,0.9331518219996724,0.0,0.0,cheer,medwf,highbf
137,s180,137,pykka,py,yk,kk,ka,p,u,k,k,a,,,0.5216783019996001,0.745684595000057,1.2736319509995155,1.401643442999557,1.465663391999442,0.0,0.0,pukka,pseudo,lowbf
138,s180,138,cheer,ch,he,ee,er,c,h,e,e,r,,,0.4935901090002517,0.6137182480006231,0.7176173960006054,0.8456080619998829,0.9417087319998245,0.0,0.0,cheer,medwf,highbf
139,s180,139,heond,he,eo,on,nd,h,e,o,n,d,,,0.5293840080003065,0.6173244080000586,0.7134098770002311,0.801435235000099,0.8893229690002045,0.0,0.0,heond,pseudo,highbf
140,s180,140,druze,dr,ru,uz,ze,d,r,u,z,e,,,0.46149671400053194,0.5974497570005042,0.7014032540000699,0.8375089990004199,1.1654698339998504,0.0,0.0,druze,lowwf,lowbf
141,s180,141,cooed,co,oo,oe,ed,c,o,o,e,d,,,0.44952374499916914,0.6014226609995603,0.745515295999212,0.793419193999398,0.9695798799994009,0.0,0.0,cooed,lowwf,medbf
142,s180,142,would,wo,ou,ul,ld,w,o,u,l,d,,,0.5255583690004642,0.6295765559998472,0.7015764590005347,0.8295280009997441,0.8934951090004688,0.0,0.0,would,highwf,medbf
143,s180,143,about,ab,bo,ou,ut,a,b,o,u,t,,,0.6415824539999448,0.7374864699995669,0.9135516249998545,0.9695648199995048,1.0335469679994276,0.0,0.0,about,highwf,medbf
144,s180,144,vanru,va,an,nr,ru,v,a,n,r,u,,,0.5411134249998213,0.6690253749993644,0.7730352439994022,0.9009587619993908,0.9809613389998049,0.0,0.0,vanru,pseudo,medbf
145,s180,145,champ,ch,ha,am,mp,c,h,a,m,p,,,0.4654413320004096,0.5614872480000486,0.6654742320006335,0.7933611620001102,0.9294005230003677,0.0,0.0,champ,medwf,medbf
146,s180,146,buddy,bu,ud,dd,dy,b,i,u,d,d,y,,0.46969728899966867,0.6456810370000312,0.6456810370000312,0.7496640179997485,0.8856935679996241,0.9336606280003252,0.0,biuddy,highwf,lowbf
147,s180,147,about,ab,bo,ou,ut,a,b,o,u,t,,,0.5055275409995375,0.6255012579995309,0.8255390140002419,0.8734769639995648,0.969576927000162,0.0,0.0,about,highwf,medbf
148,s180,148,think,th,hi,in,nk,t,h,i,n,k,,,0.5250157939999553,0.5971345520001705,0.7090189770005964,0.7890433150005265,0.9010315229998014,0.0,0.0,think,highwf,highbf
149,s180,149,haole,ha,ao,ol,le,h,a,o,l,e,,,0.5532033180006692,0.6571813360005763,0.7691344830000162,0.9452499930002887,1.025126051999905,0.0,0.0,haole,lowwf,medbf
150,s180,150,think,th,hi,in,nk,t,h,i,n,k,,,0.49350684199998796,0.5655974359997344,0.6935623019999184,0.7656178440001895,0.8775412040004085,0.0,0.0,think,highwf,highbf
151,s180,151,therm,th,he,er,rm,t,h,e,r,m,,,0.46547658700001193,0.5774519030001102,0.6735189209994132,0.74547086199982,0.8495089709995227,0.0,0.0,therm,lowwf,highbf
152,s180,152,would,wo,ou,ul,ld,w,o,u,l,d,,,0.7093682210006591,0.9173103120001542,0.9733250899998893,1.1253826640004263,1.1893830190001609,0.0,0.0,would,highwf,medbf
153,s180,153,buddy,bu,ud,dd,dy,b,u,d,d,y,,,0.5137648560003072,0.6417218610004056,0.7537235300005705,0.8817158970005039,0.9217503970003236,0.0,0.0,buddy,highwf,lowbf
154,s180,154,pykka,py,yk,kk,ka,p,y,k,k,w,,,0.6935467349994724,0.965616542999669,1.133578474999922,1.2856267779998234,1.4056333759999688,0.0,0.0,pykkw,pseudo,lowbf
155,s180,155,therm,th,he,er,rm,t,h,e,r,m,,,0.44954033400063054,0.553556899000796,0.6415615660007461,0.7136165990004883,0.8174350090002918,0.0,0.0,therm,lowwf,highbf
156,s180,156,kremp,kr,re,em,mp,k,r,e,m,p,,,0.517171468000015,0.6612613190000047,0.733281884000462,0.8292385149998154,0.9412977419997333,0.0,0.0,kremp,pseudo,medbf
157,s180,157,druze,dr,ru,uz,ze,d,r,u,z,e,,,0.47348313400016195,0.6334550540004784,0.7614465779997772,0.8814366710003014,1.1454582180003854,0.0,0.0,druze,lowwf,lowbf
158,s180,158,kremp,kr,re,em,mp,k,r,e,m,p,,,0.5251458390002881,0.685047931000554,0.7331259410002531,0.8291039420000743,0.9571293349999905,0.0,0.0,kremp,pseudo,medbf
159,s180,159,vodka,vo,od,dk,ka,v,o,d,k,a,,,0.5132890800005043,0.6493374840001707,0.7853512940000655,0.9053106280007341,1.0012426400007826,0.0,0.0,vodka,medwf,lowbf
160,s180,160,therm,th,he,er,rm,t,h,e,r,m,,,0.5010928850006167,0.6211745179998616,0.7171098839999104,0.7652176850006072,0.8771438300000227,0.0,0.0,therm,lowwf,highbf
161,s180,161,haole,ha,ao,ol,le,h,a,o,l,e,,,0.5213805249995858,0.6253618459995778,0.7214119129994288,0.9133479139991323,0.9613381789995401,0.0,0.0,haole,lowwf,medbf
162,s180,162,about,ab,bo,ou,ut,a,b,o,u,t,,,0.4211210149996987,0.5331202849993133,0.7090157859993269,0.7810755079999581,0.8850899059998483,0.0,0.0,about,highwf,medbf
163,s180,163,theme,th,he,em,me,t,h,e,m,e,,,0.4649358500000744,0.5848803230001067,0.6730125600006431,0.7928823250003916,1.3289231670005393,0.0,0.0,theme,medwf,highbf
164,s180,164,edthe,ed,dt,th,he,e,d,t,h,e,,,0.5016066140005933,0.6615879569999379,0.7656040190004205,0.8455459289998544,0.9174992289999864,0.0,0.0,edthe,pseudo,highbf
165,s180,165,kremp,kr,re,em,mp,k,r,e,m,p,,,0.4573656229995322,0.5773169459998826,0.625265085999672,0.7292959970000084,0.849364324999442,0.0,0.0,kremp,pseudo,medbf
166,s180,166,think,th,hi,in,nk,t,h,i,n,k,,,0.509175872999549,0.5732894200000374,0.7091718179999589,0.7573023439999815,0.8692256499998621,0.0,0.0,think,highwf,highbf
167,s180,167,druze,dr,ru,uz,ze,d,u,r,z,e,,,0.44126029900053254,0.6572009760002402,0.7212103470001239,0.9612735079999766,1.1213059080000676,0.0,0.0,durze,lowwf,lowbf
168,s180,168,tithe,ti,it,th,he,t,i,t,h,e,,,0.445301001000189,0.5572757469999488,0.6533104010004536,0.7493176660000245,0.845314228999996,0.0,0.0,tithe,lowwf,highbf
169,s180,169,theme,th,he,em,me,t,h,e,m,e,,,0.43335240299984434,0.5614317910003592,0.6333890180003436,0.7693878959998983,0.8254393670003992,0.0,0.0,theme,medwf,highbf
170,s180,170,haole,ha,ao,ol,le,h,a,o,l,e,,,0.5334612910000942,1.0853860279994478,1.533381504999852,1.701332908999575,1.74930186399979,0.0,0.0,haole,lowwf,medbf
171,s180,171,belly,be,el,ll,ly,b,e,l,l,y,,,0.5044132479997643,0.592382877000091,0.7923705599996538,0.9524558839993915,1.0083435739998095,0.0,0.0,belly,medwf,medbf
172,s180,172,there,th,he,er,re,t,h,e,r,e,,,0.42900716599979205,0.5490153219998319,0.6050703769997199,0.6929484289994434,0.7650550520002071,0.0,0.0,there,highwf,highbf
173,s180,173,theme,th,he,em,me,t,h,e,m,e,,,0.45735595200039825,0.5693241760000092,0.6412933820001854,0.8013160640002752,0.881239313000151,0.0,0.0,theme,medwf,highbf
174,s180,174,champ,ch,ha,am,mp,c,h,a,m,p,,,0.5008813610002107,0.6288891940002941,0.7569036160002725,0.8768784029998642,1.0050031649998346,0.0,0.0,champ,medwf,medbf
175,s180,175,belly,be,el,ll,ly,b,e,l,l,y,,,0.46507203100009065,0.5450581189998047,0.704985170999862,0.8410390349999943,0.905087743999502,0.0,0.0,belly,medwf,medbf
176,s180,176,faqir,fa,aq,qi,ir,f,a,q,i,r,,,0.581430119000288,0.6773654509997868,1.0053593590000673,1.1574346340003103,1.2454822500003502,0.0,0.0,faqir,lowwf,lowbf
177,s180,177,cheer,ch,he,ee,er,c,h,e,e,r,,,0.5289473009997891,0.6489781959999164,0.7449543779994201,0.8889388279994819,0.9768688679996558,0.0,0.0,cheer,medwf,highbf
178,s180,178,puppy,pu,up,pp,py,p,u,p,p,y,,,0.5415575790002549,0.7814830670004085,1.0135429250003654,1.157551524000155,1.2615214120005476,0.0,0.0,puppy,medwf,lowbf
179,s180,179,faqir,fa,aq,qi,ir,f,a,q,i,r,,,0.5773329109997576,0.7693953549996877,1.0733996499993737,1.22541919699961,1.313424610999391,0.0,0.0,faqir,lowwf,lowbf
180,s180,180,heond,he,eo,on,nd,h,e,o,n,d,,,0.565393187999689,0.6854359439994369,0.8054347999996025,0.8773141699994085,0.9734120019993497,0.0,0.0,heond,pseudo,highbf
181,s180,181,there,th,he,er,re,t,h,e,r,e,,,0.5211053860002721,0.6251299440000366,0.697213063000163,0.7771046389998446,0.86521779099985,0.0,0.0,there,highwf,highbf
182,s180,182,faqir,fa,aq,qi,ir,f,a,q,i,r,,,0.5094100119995346,0.7973745029994461,1.1413078569994468,1.269348844999513,1.3653485109998655,0.0,0.0,faqir,lowwf,lowbf
183,s180,183,buddy,bu,ud,dd,dy,b,u,d,d,y,,,0.5212314820000756,0.6573656849996041,0.7932512340003086,0.9373622670000259,1.0172561560002578,0.0,0.0,buddy,highwf,lowbf
184,s180,184,kremp,kr,re,em,mp,k,r,e,m,p,,,0.5091963300001225,0.6290791519995764,0.6930605809993722,0.7971820610000577,0.9091161090000242,0.0,0.0,kremp,pseudo,medbf
185,s180,185,tithe,ti,it,th,he,t,i,t,h,e,,,0.4972545529999479,0.6572699409998677,0.7451962369996181,0.8332504499994684,0.8972139839997908,0.0,0.0,tithe,lowwf,highbf
186,s180,186,about,ab,bo,ou,ut,a,b,o,u,t,,,0.7013720430004469,0.8133637139999337,0.9892576820002432,1.0613704170000346,1.1333473220001906,0.0,0.0,about,highwf,medbf
187,s180,187,vodka,vo,od,dk,ka,v,o,d,k,a,,,0.513134361000084,0.6731048089995966,0.7611575900000389,0.9131115700001828,1.065188630999728,0.0,0.0,vodka,medwf,lowbf
188,s180,188,zibja,zi,ib,bj,ja,z,i,b,j,a,,,0.5971139590001258,0.7570762639998065,0.9490707569993901,1.1251528539996798,1.2130944290001935,0.0,0.0,zibja,pseudo,lowbf
189,s180,189,there,th,he,er,re,t,h,e,r,e,,,0.4573410190005234,0.5613439670005391,0.6493699310003649,0.7133716650005226,0.7932631180001408,0.0,0.0,there,highwf,highbf
190,s180,190,heond,he,eo,on,nd,h,e,o,n,d,,,0.5329639120000138,0.6610384079995129,0.8048555509994912,0.8529356629996983,0.9329278679997515,0.0,0.0,heond,pseudo,highbf
191,s180,191,cooed,co,oo,oe,ed,c,o,o,e,d,,,0.4893003460001637,0.6571870050001962,0.7931924600006823,0.8572551460001705,1.033302697000181,0.0,0.0,cooed,lowwf,medbf
192,s180,192,vanru,va,an,nr,ru,v,a,n,r,u,,,0.5493958380002368,0.8453691610002352,1.0292851029998928,1.1413345170003595,1.2613219080003546,0.0,0.0,vanru,pseudo,medbf
193,s180,193,heond,he,eo,on,nd,h,e,o,n,d,,,0.5123165029999655,0.6083330040000874,0.7363953759995638,0.7763424899994789,0.8804449849994853,0.0,0.0,heond,pseudo,highbf
194,s180,194,zibja,zi,ib,bj,ja,a,i,b,j,a,,,0.813373945999956,1.045305162000659,1.1012150370006566,1.3973212670007342,1.5333184820001406,0.0,0.0,aibja,pseudo,lowbf
195,s180,195,druze,dr,ru,uz,ze,d,r,u,z,e,,,0.5931159150004532,0.8170872959999542,0.921225539000261,1.057228652000049,1.3132481900001949,0.0,0.0,druze,lowwf,lowbf
196,s180,196,buddy,bu,ud,dd,dy,b,u,d,d,y,,,0.5009074390000023,0.6289924989996507,0.7889239100004488,0.916901806000169,0.9809679589998268,0.0,0.0,buddy,highwf,lowbf
197,s180,197,champ,ch,ha,am,mp,c,h,a,m,p,,,0.4890699229999882,0.609072438000112,0.7450304720005079,0.8969745430003968,1.0089540150001994,0.0,0.0,champ,medwf,medbf
198,s180,198,puppy,pu,up,pp,py,p,u,p,p,y,,,0.5410173100008251,0.8050581290008267,1.0130526010007088,1.1569805120007004,1.2130648010006553,0.0,0.0,puppy,medwf,lowbf
199,s180,199,think,th,hi,in,nk,t,h,i,n,k,,,0.45717201299976296,0.5451559169996472,0.6652057419996709,0.7290811869997924,0.8411229169996659,0.0,0.0,think,highwf,highbf
200,s180,200,pykka,py,yk,kk,ka,p,y,k,k,a,,,0.5887565819994052,0.788785837999967,0.964878568000131,1.0767667079999228,1.1648792300002242,0.0,0.0,pykka,pseudo,lowbf
201,s180,201,zibja,zi,ib,bj,ja,z,i,b,j,a,,,0.6089138469997124,0.7609245690000535,0.8569857470001807,1.0089642089997142,1.1049986500001978,0.0,0.0,zibja,pseudo,lowbf
202,s180,202,kremp,kr,re,em,mp,k,r,e,m,p,,,0.5410833559999446,0.7010376409998571,0.7730222810005216,0.877014390000113,0.9971262730005037,0.0,0.0,kremp,pseudo,medbf
203,s180,203,pykka,py,yk,kk,ka,p,y,k,k,a,,,0.6490502269998615,0.8090128149997327,0.9450356399993325,1.0809932490001302,1.1210092450000957,0.0,0.0,pykka,pseudo,lowbf
204,s180,204,lucky,lu,uc,ck,ky,l,u,c,k,y,,,0.5891533680005523,0.8211081899999044,0.9650970499997129,1.0770242630005669,1.2210981730004278,0.0,0.0,lucky,highwf,lowbf
205,s180,205,cheer,ch,he,ee,er,c,h,e,e,r,,,0.6090752000000066,0.6891022509998947,0.7770780979999472,0.9210895179994623,0.9930891919993883,0.0,0.0,cheer,medwf,highbf
206,s180,206,edthe,ed,dt,th,he,e,d,t,h,e,,,0.5008759930005908,0.6849578460005432,0.8369758180006102,0.9329569880001145,1.0129611130005287,0.0,0.0,edthe,pseudo,highbf
207,s180,207,therm,th,he,er,rm,t,h,e,r,m,,,0.47302270300042437,0.6009036149998792,0.6730060110003251,0.7529413789998216,0.8650071900001421,0.0,0.0,therm,lowwf,highbf
208,s180,208,there,th,he,er,re,t,h,e,r,e,,,0.47688492799989035,0.6049110539997855,0.6529940919999717,0.7330381550000311,0.812963598999886,0.0,0.0,there,highwf,highbf
209,s180,209,heond,he,eo,on,nd,h,e,o,n,d,,,0.5050634099998206,0.5850998539999637,0.7289964820001842,0.7929934410003625,0.889109112999904,0.0,0.0,heond,pseudo,highbf
210,s180,210,champ,ch,ha,am,mp,c,h,a,m,p,,,0.46882605199971294,0.5647580429995287,0.6608991149996655,0.8048108140001204,0.932841155999995,0.0,0.0,champ,medwf,medbf
211,s180,211,theme,th,he,em,me,t,h,e,m,e,,,0.4889822909999566,0.5768480899996575,0.6569862669994109,0.7688916079996488,0.8329670319999423,0.0,0.0,theme,medwf,highbf
212,s180,212,lucky,lu,uc,ck,ky,l,u,c,k,y,,,0.5088617439996597,0.7489371860001484,0.8369364419995691,0.9649708059996556,1.0928738410002552,0.0,0.0,lucky,highwf,lowbf
213,s180,213,haole,ha,ao,ol,le,h,a,o,l,e,,,0.46471460399970965,0.568649533000098,0.6886815890002254,0.8567218360003608,0.9207233710003493,0.0,0.0,haole,lowwf,medbf
214,s180,214,zibja,zi,ib,bj,ja,z,i,b,j,a,,,1.5248747749992617,1.676745762999417,1.7488264379999237,1.8848440809997555,1.9728757200000473,0.0,0.0,zibja,pseudo,lowbf
215,s180,215,lucky,lu,uc,ck,ky,l,u,c,k,y,,,0.5367828170001303,0.7127129990003596,0.8407432559997687,0.9766549860005398,1.1047291880004195,0.0,0.0,lucky,highwf,lowbf
216,s180,216,cooed,co,oo,oe,ed,c,o,o,e,d,,,0.5251067240005796,0.6371057800006383,0.7731022090001716,0.8451442670002507,1.013078293000035,0.0,0.0,cooed,lowwf,medbf
217,s180,217,champ,ch,ha,am,mp,c,h,a,m,p,,,0.4085360250001031,0.5125210389996937,0.6326279679997242,0.7605510339999455,0.880602424999779,0.0,0.0,champ,medwf,medbf
218,s180,218,edthe,ed,dt,th,he,e,d,t,h,e,,,0.4929888709993975,0.8370857979998618,0.9571038079993741,1.0530925339999158,1.1330605429993739,0.0,0.0,edthe,pseudo,highbf
219,s180,219,tithe,ti,it,th,he,t,i,t,h,e,,,0.5131447329995353,0.6010784879999846,0.7131890079999721,0.7851864479998767,0.857159283999863,0.0,0.0,tithe,lowwf,highbf
220,s180,220,haole,ha,ao,ol,le,h,a,p,l,e,,,0.5490475910000896,0.6611492989995895,0.8210898299994369,1.12496819900025,1.1970379079994018,0.0,0.0,haple,lowwf,medbf
221,s180,221,vodka,vo,od,dk,ka,c,o,d,k,a,,,0.5771047639991593,0.7051188999994338,0.8332071229997382,0.9612548349996359,1.0891647439993903,0.0,0.0,codka,medwf,lowbf
222,s180,222,faqir,fa,aq,qi,ir,f,a,q,i,r,,,0.5010124559994438,0.6451045489993703,0.9890773679999256,1.1411287769997216,1.245101373999205,0.0,0.0,faqir,lowwf,lowbf
223,s180,223,druze,dr,ru,uz,ze,d,r,u,z,e,,,0.5368219179999869,0.7288374219997422,0.84885996399953,0.9608238359996903,1.248854986999504,0.0,0.0,druze,lowwf,lowbf
224,s180,224,there,th,he,er,re,t,h,e,r,e,,,0.4367950980004025,0.540783532000205,0.6127887239999836,0.6767076320002161,0.7728309100002662,0.0,0.0,there,highwf,highbf
225,s180,225,belly,be,el,ll,ly,b,e,l,l,y,,,0.49652369800060114,0.6163948530002017,0.7604793400005292,0.9124255510005241,0.9525068250004551,0.0,0.0,belly,medwf,medbf
226,s180,226,about,ab,bo,ou,ut,a,b,o,u,t,,,0.4449433580002733,0.5728748350002206,0.7808704019998913,0.8608759550006653,0.9488834390003831,0.0,0.0,about,highwf,medbf
227,s180,227,tithe,ti,it,th,he,t,i,t,h,e,,,0.4407533379999222,0.512757980999595,0.6247978239998702,0.7048591729999316,0.7767910920001668,0.0,0.0,tithe,lowwf,highbf
228,s180,228,think,th,hi,in,nk,t,h,i,n,k,,,0.5085161750002953,0.5725839289998476,0.7005564080000113,0.7725268080002934,0.8845647759999338,0.0,0.0,think,highwf,highbf
229,s180,229,would,wo,ou,ul,ld,w,o,u,l,d,,,0.6807284759997856,0.8566999409995333,1.0488231679992168,1.2727987169992048,1.4087108309995529,0.0,0.0,would,highwf,medbf
230,s180,230,theme,th,he,em,me,t,h,e,m,e,,,0.4210052859998541,0.5009045879996847,0.5970161810000718,0.732972248999431,0.789029486999425,0.0,0.0,theme,medwf,highbf
231,s180,231,vodka,vo,od,dk,ka,v,o,d,k,a,,,0.5688167409998641,0.7688520740002787,0.8807790370001385,1.008760489999986,1.0968559639995874,0.0,0.0,vodka,medwf,lowbf
232,s180,232,lucky,lu,uc,ck,ky,l,u,c,k,y,,,0.5571040799995899,0.805003915999805,0.9170557569996163,1.045073610000145,1.1649817830002576,0.0,0.0,lucky,highwf,lowbf
233,s180,233,cooed,co,oo,oe,ed,c,o,o,e,d,,,0.4888911170000938,0.6169774399995731,0.7609525930001837,0.8169319809994704,1.0008906399998523,0.0,0.0,cooed,lowwf,medbf
234,s180,234,faqir,fa,aq,qi,ir,f,a,q,i,r,,,0.4850780479991954,0.613052479999169,0.8930271209992497,0.997148919999745,1.1091029639992485,0.0,0.0,faqir,lowwf,lowbf
235,s180,235,vanru,va,an,nr,ru,v,a,n,r,u,,,0.528884012999697,0.7049058809998314,0.8169062150000173,0.9529269439999553,1.0408352320000631,0.0,0.0,vanru,pseudo,medbf
236,s180,236,belly,be,el,ll,ly,b,e,l,l,y,,,0.5408126149995951,0.6688283619996582,0.8048489449993212,0.9328303140000571,1.0288587699997152,0.0,0.0,belly,medwf,medbf
237,s180,237,vanru,va,an,nr,ru,v,a,n,r,u,,,0.48072544099977677,0.6248520990002362,0.7528375849997246,0.8648244980004165,0.9927334499998324,0.0,0.0,vanru,pseudo,medbf
238,s180,238,therm,th,he,er,rm,t,h,e,r,m,,,0.4686479740003051,0.5885900479997872,0.6925600229997144,0.7885584710002149,0.9085666480004875,0.0,0.0,therm,lowwf,highbf
239,s180,239,zibja,zi,ib,bj,ja,a,i,b,j,a,,,0.6165218470005129,0.8485265560002517,0.9924416430003475,1.1525215760002538,1.304586475999713,0.0,0.0,aibja,pseudo,lowbf
