,sID,Trial #,string,bi_1,bi_2,bi_3,bi_4,key_resp.keys.1,key_resp.keys.2,key_resp.keys.3,key_resp.keys.4,key_resp.keys.5,key_resp.keys.6,key_resp.keys.7,key_resp.rt.1,key_resp.rt.2,key_resp.rt.3,key_resp.rt.4,key_resp.rt.5,key_resp.rt.6,key_resp.rt.7,resp_string,WF Type,BF Type
0,p08,0,heond,he,eo,on,nd,h,e,o,n,d,,,1.5315019080003367,1.6275506020001558,1.747579644000325,1.8755382800000007,2.067551724000168,0.0,0.0,heond,pseudo,highbf
1,p08,1,therm,th,he,er,rm,t,h,e,r,m,,,0.9551774039996417,1.1471669769998698,1.2271348739996029,1.411127667999608,1.4910626169998977,0.0,0.0,therm,lowwf,highbf
2,p08,2,druze,dr,ru,uz,ze,d,r,u,z,e,,,0.8716676369999732,1.1116507570000067,1.2797362559999783,1.775604105000184,2.0157047940001576,0.0,0.0,druze,lowwf,lowbf
3,p08,3,puppy,pu,up,pp,py,o,u,p,p,y,,,1.0759430890002477,1.8919517780000206,2.1399693930002286,2.2919504740002594,2.540069219000088,0.0,0.0,ouppy,medwf,lowbf
4,p08,4,pykka,py,yk,kk,ka,p,y,k,k,a,,,1.3123637779999626,1.6164432830000806,2.3763430989997687,2.5284551929998997,2.6163704689997758,0.0,0.0,pykka,pseudo,lowbf
5,p08,5,lucky,lu,uc,ck,ky,l,u,c,k,y,,,0.9164752310002768,1.2284711600000264,1.572440725999968,1.7404036160000942,1.9885281780002515,0.0,0.0,lucky,highwf,lowbf
6,p08,6,belly,be,el,ll,ly,b,e,l,l,y,,,0.776050951000343,0.9281449630002498,1.1281890170002953,1.272122698000203,1.5121544890002951,0.0,0.0,belly,medwf,medbf
7,p08,7,cooed,co,oo,oe,ed,c,o,o,e,d,,,0.8839738739998211,1.068026909999844,1.204099124000095,1.5240961260001313,1.716087355000127,0.0,0.0,cooed,lowwf,medbf
8,p08,8,vanru,va,an,nr,ru,v,a,n,r,u,,,1.0562832380001055,1.1362504379999336,1.320283346999986,1.5122531799997887,1.6403263219999644,0.0,0.0,vanru,pseudo,medbf
9,p08,9,zibja,zi,ib,bj,ja,z,i,b,j,a,,,1.8444728119998217,1.9803915960001177,2.204301353000119,2.6684028300001046,2.7804036560000895,0.0,0.0,zibja,pseudo,lowbf
10,p08,10,vodka,vo,od,dk,ka,v,o,d,k,a,,,1.392305598999883,1.5364209710000978,1.720453783999801,1.9203853509998225,2.0963365490001706,0.0,0.0,vodka,medwf,lowbf
11,p08,11,there,th,he,er,re,t,h,e,r,e,,,0.8841498860001593,1.0442204729997684,1.1242724909998287,1.2522587759999624,1.3162549670000772,0.0,0.0,there,highwf,highbf
12,p08,12,lucky,lu,uc,ck,ky,l,u,c,k,y,,,1.024249761000192,1.224276072000066,1.2882208729997728,1.792161384999872,2.008206687999973,0.0,0.0,lucky,highwf,lowbf
13,p08,13,cheer,ch,he,ee,er,c,h,e,e,r,,,0.8119082880002679,1.043947388000106,1.219930518000183,1.355879723000271,1.515921800000342,0.0,0.0,cheer,medwf,highbf
14,p08,14,edthe,ed,dt,th,he,e,d,t,h,e,,,1.1362411299996893,1.3362054339995666,1.4481221409996579,1.6241290289999597,1.6802191669999047,0.0,0.0,edthe,pseudo,highbf
15,p08,15,lucky,lu,uc,ck,ky,l,u,c,k,y,,,0.9402220269998907,1.18029248799985,1.3003221609997127,1.7962570989998312,2.0203357479999795,0.0,0.0,lucky,highwf,lowbf
16,p08,16,haole,ha,ao,ol,le,h,a,o,l,e,,,0.8404294719998688,0.9284483090000322,1.2723279209999419,1.4483644980000463,1.5284080249998624,0.0,0.0,haole,lowwf,medbf
17,p08,17,tithe,ti,it,th,he,t,i,t,h,e,,,0.9804304879999108,1.1164239390000148,1.380430497999896,1.6123299020000559,1.7403862629998912,0.0,0.0,tithe,lowwf,highbf
18,p08,18,puppy,pu,up,pp,py,p,u,p,p,y,,,0.9038301649998175,1.12792557199964,1.3199069109996344,1.4719966009997734,1.6879469679997783,0.0,0.0,puppy,medwf,lowbf
19,p08,19,heond,he,eo,on,nd,h,e,o,n,d,,,0.9558302999998887,1.0517961129999094,1.1078647119998095,1.2598181210000803,1.3798724829998719,0.0,0.0,heond,pseudo,highbf
20,p08,20,kremp,kr,re,em,mp,k,r,e,m,m,k,p,1.1119686150000234,1.2239760469997236,1.4399230710000666,1.7039508749999186,1.9359334319997288,1.9439573709996694,2.047916229999828,kremmkp,pseudo,medbf
21,p08,21,theme,th,he,em,me,t,t,h,e,m,,,0.828396198000064,0.9963940869997714,1.4364290449998407,1.5483366710000155,1.652438408999842,0.0,0.0,tthem,medwf,highbf
22,p08,22,cheer,ch,he,ee,er,c,h,e,e,r,,,0.9284151900001234,1.0483369459998357,1.1842893839998396,1.3363969729998644,1.5364092190002339,0.0,0.0,cheer,medwf,highbf
23,p08,23,zibja,zi,ib,bj,ja,z,i,b,j,a,,,1.3722027019998677,1.5001855189998423,1.6442314129999431,2.356173600999682,2.5082639839997682,0.0,0.0,zibja,pseudo,lowbf
24,p08,24,champ,ch,ha,am,mp,c,h,a,m,p,,,0.8882843119999961,0.9922727739999573,1.2002156250000553,1.2802823609999905,1.4403281180002523,0.0,0.0,champ,medwf,medbf
25,p08,25,heond,he,eo,on,nd,h,e,o,n,d,,,0.8198148370001945,0.9238512710003306,0.9957481910000752,1.1238058470003125,1.2596960170003513,0.0,0.0,heond,pseudo,highbf
26,p08,26,cheer,ch,he,ee,er,c,h,e,e,r,,,0.8242686540002069,0.9521123260001332,1.0881649070001913,1.240197210000133,1.336251324999921,0.0,0.0,cheer,medwf,highbf
27,p08,27,vodka,vo,od,dk,ka,v,o,d,k,a,,,1.3322382000001198,1.5321916990001228,1.7242353510000612,1.8841516920001595,2.0522442830001637,0.0,0.0,vodka,medwf,lowbf
28,p08,28,vanru,va,an,nr,ru,v,a,n,r,u,,,0.9037798099998327,0.9597604390000924,1.1517835330000707,1.3437923669998781,1.4717027279998547,0.0,0.0,vanru,pseudo,medbf
29,p08,29,belly,be,el,ll,ly,b,e,k,k,y,,,0.6760364459996708,0.7801347790000364,0.9321639380000306,1.0840412899997318,1.2840440939999098,0.0,0.0,bekky,medwf,medbf
30,p08,30,theme,th,he,em,me,t,h,e,m,,,,0.9282375689999753,1.1122123389995977,1.1922276759996748,1.3362160219999168,0.0,0.0,0.0,them,medwf,highbf
31,p08,31,pykka,py,yk,kk,ka,p,y,k,k,a,,,1.132357304999914,1.652357364999716,2.0283472979999715,2.1722534099999393,2.276231379999899,0.0,0.0,pykka,pseudo,lowbf
32,p08,32,theme,th,he,em,me,t,h,e,m,e,,,0.8558767619997525,1.0718685870001536,1.1838075979999303,1.3438569670001925,1.51194894199989,0.0,0.0,theme,medwf,highbf
33,p08,33,cheer,ch,he,ee,er,c,h,e,e,r,,,0.7880479519999426,0.9480833580000763,1.0840239640001528,1.2680396380001184,1.3400761200000488,0.0,0.0,cheer,medwf,highbf
34,p08,34,pykka,py,yk,kk,ka,p,y,k,k,a,,,1.0719484339997507,1.5279190940000262,1.8318940989997827,1.9678206839998893,2.047831158000008,0.0,0.0,pykka,pseudo,lowbf
35,p08,35,would,wo,ou,ul,ld,w,o,u,l,d,,,0.9961587130001135,1.108145051000065,1.2202360170003885,1.3802427540003919,1.4922383250000166,0.0,0.0,would,highwf,medbf
36,p08,36,vodka,vo,od,dk,ka,v,o,d,k,a,,,1.2002403300002698,1.4802666660002615,1.6243174690002888,1.8403047070000866,2.160215791000155,0.0,0.0,vodka,medwf,lowbf
37,p08,37,cooed,co,oo,oe,ed,c,o,o,e,d,,,0.7957431670001824,1.0037548499999502,1.147718531999999,1.2998379730001943,1.5158224810002139,0.0,0.0,cooed,lowwf,medbf
38,p08,38,vanru,va,an,nr,ru,v,a,n,r,u,,,0.960021099000187,1.0640064789999997,1.2081156110002667,1.4081151380000847,1.560049612000057,0.0,0.0,vanru,pseudo,medbf
39,p08,39,pykka,py,yk,kk,ka,p,y,k,k,a,,,1.6763326289997167,1.9244708669998545,2.228425677999894,2.372408336999797,2.4523268899997674,0.0,0.0,pykka,pseudo,lowbf
40,p08,40,druze,dr,ru,uz,ze,d,r,u,x,z,e,,0.8716705490001004,1.1196368430000803,1.2396276570002556,1.559549780999987,1.5675608850001481,2.039682503000222,0.0,druxze,lowwf,lowbf
41,p08,41,edthe,ed,dt,th,he,e,d,t,h,e,,,0.9880739269997321,1.1800727869999719,1.3239547089997359,1.5081183779998355,1.5560430370001086,0.0,0.0,edthe,pseudo,highbf
42,p08,42,think,th,hi,in,nk,t,h,i,n,k,,,0.8317558050002845,0.9437298890002239,1.055800617999921,1.2237984440002947,1.3836746490001133,0.0,0.0,think,highwf,highbf
43,p08,43,belly,be,el,ll,ly,b,e,l,l,l,y,,0.7238754249997328,0.8119871919998332,1.0119101709997267,1.1638995710000017,1.3799441940000179,1.6598937609996938,0.0,bellly,medwf,medbf
44,p08,44,vodka,vo,od,dk,ka,v,o,d,k,a,,,1.2562001230003261,1.4242019360003724,1.6002514920000976,1.7761281750003945,1.9362095820001741,0.0,0.0,vodka,medwf,lowbf
45,p08,45,zibja,zi,ib,bj,ja,z,i,b,n,j,a,,1.1322076760002346,1.3481061800002863,1.4922547220003253,1.5001731679999466,1.9082080260000112,2.0600819159999446,0.0,zibnja,pseudo,lowbf
46,p08,46,buddy,bu,ud,dd,dy,b,u,d,d,y,,,1.2077205519999552,1.3596864169999208,1.5117891310001141,1.6797979429998122,1.7277741329999117,0.0,0.0,buddy,highwf,lowbf
47,p08,47,therm,th,he,er,rm,t,h,e,r,m,,,0.8839489849997335,1.0520552809998662,1.1479587750000064,1.2599568349996844,1.620061437000004,0.0,0.0,therm,lowwf,highbf
48,p08,48,vanru,va,an,nr,ru,v,a,n,u,,,,0.7755458460001137,0.9036536779999551,1.0396089410000968,1.391739355000027,0.0,0.0,0.0,vanu,pseudo,medbf
49,p08,49,pykka,py,yk,kk,ka,p,y,k,k,a,,,1.0600846500001353,1.3961079270002301,1.7400809159998971,1.8680639950002842,2.0122002410003006,0.0,0.0,pykka,pseudo,lowbf
50,p08,50,champ,ch,ha,am,mp,c,h,a,m,p,,,0.7439410470001349,0.871989601000223,1.0640128800000639,1.199982215000091,1.3439139730003262,0.0,0.0,champ,medwf,medbf
51,p08,51,tithe,ti,it,th,he,t,i,t,h,e,,,0.7956305379998412,0.947621799999979,1.219682119999561,1.395650915999795,1.4917469089996303,0.0,0.0,tithe,lowwf,highbf
52,p08,52,cooed,co,oo,oe,ed,c,o,o,e,d,space,,0.943754436999825,1.12777760400013,1.271793887000058,1.3757329549998758,1.5597367069999564,1.7278187020001496,0.0,cooedspace,lowwf,medbf
53,p08,53,would,wo,ou,ul,ld,w,o,u,l,d,,,0.9877970499996991,1.147766572999899,1.2677354529996592,1.4437414449998869,1.5877452659997289,0.0,0.0,would,highwf,medbf
54,p08,54,champ,ch,ha,am,mp,c,h,a,m,p,,,0.7356833869998809,0.9196386559997336,1.1117241560000366,1.215674442999898,1.3196586959998058,0.0,0.0,champ,medwf,medbf
55,p08,55,would,wo,ou,ul,ld,w,o,u,l,d,,,0.8519758100001127,1.0199785619997783,1.1159787960000358,1.3159722939999483,1.4519090559997494,0.0,0.0,would,highwf,medbf
56,p08,56,haole,ha,ao,ol,le,h,a,o,l,e,,,0.8475758509998741,0.9276627089998328,1.1595706959997187,1.51166593500011,1.591733700000077,0.0,0.0,haole,lowwf,medbf
57,p08,57,faqir,fa,aq,qi,ir,f,a,q,i,r,,,1.547605817999738,1.7075695919997997,2.3956042469999375,2.5396983829996316,3.139731902999756,0.0,0.0,faqir,lowwf,lowbf
58,p08,58,think,th,hi,in,nk,t,h,i,n,k,,,0.9201195030000235,1.0721124690003307,1.1680491689999144,1.336161059999995,1.480140424000183,0.0,0.0,think,highwf,highbf
59,p08,59,vanru,va,an,nr,ru,v,a,n,r,u,,,0.8117521149997629,0.9156206650000058,1.1076601839999967,1.3396677759997146,1.587670504000016,0.0,0.0,vanru,pseudo,medbf
60,p08,60,champ,ch,ha,am,mp,c,h,a,m,k,p,,0.7195829140000569,0.9035743979998188,1.1036270219997277,1.2396247080000649,1.2396247080000649,1.3516030989999308,0.0,chamkp,medwf,medbf
61,p08,61,faqir,fa,aq,qi,ir,f,a,q,i,r,,,0.8598443159999078,1.0359396630001356,1.5398351829999228,1.9958518180001192,2.171953589000168,0.0,0.0,faqir,lowwf,lowbf
62,p08,62,there,th,he,er,re,t,h,e,r,e,,,0.8079112879995591,0.9917919189997519,1.1198382519996812,1.2478201739995711,1.3279324999998607,0.0,0.0,there,highwf,highbf
63,p08,63,about,ab,bo,ou,ut,a,b,o,u,t,,,0.8357312760003879,1.523726784000246,1.8836603570002808,2.0037778980004077,2.2118048820002514,0.0,0.0,about,highwf,medbf
64,p08,64,buddy,bu,ud,dd,dy,b,u,d,d,y,,,1.0558796800000891,1.3038470659998893,1.687833832999786,1.8798115670001607,1.9757863569998335,0.0,0.0,buddy,highwf,lowbf
65,p08,65,druze,dr,ru,uz,ze,d,r,u,z,e,,,0.7556783400000313,0.9716744100001051,1.4915390609999122,1.9316489709999587,2.187622157000078,0.0,0.0,druze,lowwf,lowbf
66,p08,66,faqir,fa,aq,qi,ir,f,a,q,i,r,,,0.9516456060000564,1.5595383449999645,1.7916538700001183,2.11959294899998,2.319634986999972,0.0,0.0,faqir,lowwf,lowbf
67,p08,67,lucky,lu,uc,ck,ky,l,u,c,k,y,,,0.8672669570000835,1.139345394999964,1.4832657880001534,1.6113345180001488,1.867275128000074,0.0,0.0,lucky,highwf,lowbf
68,p08,68,faqir,fa,aq,qi,ir,f,a,q,i,r,,,0.8475037329999395,1.0074306440001237,1.303500779999922,1.5594273820001945,1.9275496639997982,0.0,0.0,faqir,lowwf,lowbf
69,p08,69,puppy,pu,up,pp,py,p,u,p,p,y,,,1.027831845000037,1.2756835979998868,1.5077210179997564,1.643649123999694,1.8918180229998143,0.0,0.0,puppy,medwf,lowbf
70,p08,70,haole,ha,ao,ol,le,h,a,o,l,e,,,0.7922875099998237,0.9202746829996613,1.1441820069999267,1.3282033030000093,1.4002510119998988,0.0,0.0,haole,lowwf,medbf
71,p08,71,tithe,ti,it,th,he,t,i,t,h,e,,,0.7957779079997636,0.9398919109999042,1.2278260829998544,1.4198720889999095,1.491884311999911,0.0,0.0,tithe,lowwf,highbf
72,p08,72,buddy,bu,ud,dd,dy,b,u,d,d,y,,,0.9280017320002116,1.1119825440000568,1.2479038659998878,1.3918635670002004,1.4879167849999249,0.0,0.0,buddy,highwf,lowbf
73,p08,73,belly,be,el,ll,ly,b,e,l,l,y,,,0.747819413000343,0.8919407090002096,1.1478162920002433,1.2919475440003225,1.7078796380001222,0.0,0.0,belly,medwf,medbf
74,p08,74,think,th,hi,in,nk,t,h,i,n,k,,,1.1596755510004186,1.231740746000014,1.3197008220004136,1.4718153900003017,1.6237378499999977,0.0,0.0,think,highwf,highbf
75,p08,75,about,ab,bo,ou,ut,a,b,o,u,t,,,0.8038035630002014,0.8997935520001192,1.1558454510000047,1.3157641440002408,1.4918187610001041,0.0,0.0,about,highwf,medbf
76,p08,76,edthe,ed,dt,th,he,e,d,t,h,e,,,0.8477726299997812,1.0638558470000135,1.1918691189998754,1.3758463190001748,1.4558161009999822,0.0,0.0,edthe,pseudo,highbf
77,p08,77,kremp,kr,re,em,mp,k,r,e,m,p,,,1.315520054999979,1.4754463839999516,1.7075614579998728,1.8195273390001603,1.9715715920001458,0.0,0.0,kremp,pseudo,medbf
78,p08,78,therm,th,he,er,rm,t,h,e,r,m,,,0.8717542109998249,1.0637615059999916,1.167646400999729,1.2956691839999621,1.743714632999854,0.0,0.0,therm,lowwf,highbf
79,p08,79,about,ab,bo,ou,ut,a,b,o,u,t,,,0.8275225639999917,0.9634604009997929,1.2433637700000872,1.3634419939999134,1.4673331459998735,0.0,0.0,about,highwf,medbf
80,p08,80,kremp,kr,re,em,mp,k,r,e,m,p,,,1.0799360510000042,1.2558942289997503,1.4639280749997852,1.5437813710000228,1.6558486029998676,0.0,0.0,kremp,pseudo,medbf
81,p08,81,edthe,ed,dt,th,he,e,d,t,h,e,,,0.803242758000124,1.0112248020000152,1.1311393010000756,1.3152187630003027,1.3871825490000447,0.0,0.0,edthe,pseudo,highbf
82,p08,82,theme,th,he,em,me,t,h,e,m,e,,,0.83188903700011,1.1597869430001992,1.2798786749999636,1.4717823220003083,1.6318803780000053,0.0,0.0,theme,medwf,highbf
83,p08,83,tithe,ti,it,th,he,t,i,t,h,e,,,0.9236190720002924,1.0915839730000698,1.3875840000000608,1.5796304360001159,1.675532468000256,0.0,0.0,tithe,lowwf,highbf
84,p08,84,about,ab,bo,ou,ut,a,b,o,u,t,,,0.7595543389998056,0.8796121549999043,1.151547477999884,1.2717002439999305,1.4396149629997126,0.0,0.0,about,highwf,medbf
85,p08,85,puppy,pu,up,pp,py,p,u,p,p,y,,,0.8995863879999888,1.3394569019997107,1.675491793999754,1.8276394720001008,2.059457261999796,0.0,0.0,puppy,medwf,lowbf
86,p08,86,lucky,lu,uc,ck,ky,l,u,c,k,y,,,0.8877770120002424,1.159748631000184,1.4237275120003687,2.0956427770001937,2.335765279000043,0.0,0.0,lucky,highwf,lowbf
87,p08,87,heond,he,eo,on,nd,h,e,o,n,d,,,0.9476486739999928,1.051754179999989,1.1716487349999625,1.2917230749999362,1.4117170310000802,0.0,0.0,heond,pseudo,highbf
88,p08,88,faqir,fa,aq,qi,ir,f,a,q,i,r,,,0.855560991999937,1.0475306250000358,1.6236373950000598,2.0475337620000573,2.1835410019998562,0.0,0.0,faqir,lowwf,lowbf
89,p08,89,there,th,he,er,re,t,h,y,e,r,e,,0.8595933560000049,1.0917115620000004,1.1077374950000376,1.2756082259998038,1.6116896799999267,1.8036886919999233,0.0,thyere,highwf,highbf
90,p08,90,think,th,hi,in,nk,t,h,i,o,n,k,,0.7756400719999874,0.9276308809999136,1.0717398030001277,1.0796836519998578,1.2476736029998392,1.4476435759997912,0.0,thionk,highwf,highbf
91,p08,91,heond,he,eo,on,nd,h,e,o,n,d,,,0.7396538160001,0.8116753379999864,0.8995621640001445,1.04353008399994,1.1954902679999577,0.0,0.0,heond,pseudo,highbf
92,p08,92,buddy,bu,ud,dd,dy,b,i,u,u,d,d,y,0.9435447209998529,1.1514946900001632,1.1594925290000901,1.335595689999991,1.74347630200009,1.91955735800002,1.9834902299999158,biuuddy,highwf,lowbf
93,p08,93,belly,be,el,ll,ly,b,e,l,l,y,,,0.8032273720000376,0.987198208999871,1.1872270909998406,1.3632017019999694,1.811234266000156,0.0,0.0,belly,medwf,medbf
94,p08,94,kremp,kr,re,em,mp,k,r,e,m,p,,,1.0870832139999038,1.2231042039998101,1.4230918439998277,1.5110723159996269,1.6310823099997833,0.0,0.0,kremp,pseudo,medbf
95,p08,95,vodka,vo,od,dk,ka,v,o,d,k,a,,,1.0277810180000415,1.2037536299999374,1.443682489999901,1.6117559640001673,1.8516900449999412,0.0,0.0,vodka,medwf,lowbf
96,p08,96,cheer,ch,he,ee,er,c,h,e,e,r,,,0.7118255999998837,0.9118162779996055,1.063856353999654,1.2078430849996948,1.3757289469999705,0.0,0.0,cheer,medwf,highbf
97,p08,97,would,wo,ou,ul,ld,w,o,u,l,d,,,1.2676469749999342,1.3316578469998603,1.4596533439998893,1.651696061000166,1.7477135439999074,0.0,0.0,would,highwf,medbf
98,p08,98,druze,dr,ru,uz,ze,d,r,u,z,e,,,0.8553080830001818,1.1033210390000932,1.2793161210001927,1.6313293230000454,1.9034083870001268,0.0,0.0,druze,lowwf,lowbf
99,p08,99,cooed,co,oo,oe,ed,c,o,o,e,d,,,0.811702919000254,1.0117111540002952,1.1476661229999081,1.2595757550002418,1.4675723959999232,0.0,0.0,cooed,lowwf,medbf
100,p08,100,therm,th,he,er,rm,t,h,e,r,f,m,,0.8552551419998053,1.0552091810000093,1.0952780659999917,1.2472798579997288,1.2472798579997288,1.751238679999915,0.0,therfm,lowwf,highbf
101,p08,101,about,ab,bo,ou,ut,a,b,o,u,r,t,,0.7875724859995898,0.8675389410000207,1.091642397999749,1.2276801349999005,1.379610448999756,1.379610448999756,0.0,abourt,highwf,medbf
102,p08,102,edthe,ed,dt,th,he,e,d,t,h,e,,,0.9435857400003442,1.1276109909999832,1.2795530830003372,1.4555983909999668,1.5116304670000318,0.0,0.0,edthe,pseudo,highbf
103,p08,103,there,th,he,er,re,h,e,r,e,,,,1.027342329000021,1.1554100560001643,1.2673549719997936,1.3874502859998756,0.0,0.0,0.0,here,highwf,highbf
104,p08,104,haole,ha,ao,ol,le,h,a,o,l,e,,,0.895178771999781,1.0551733600000262,1.695195840999986,1.8872017539997614,1.9831551620000027,0.0,0.0,haole,lowwf,medbf
105,p08,105,zibja,zi,ib,bj,ja,z,i,b,j,a,,,1.2994768039998235,1.419519605000005,1.61948335399984,1.9954998779999187,2.091523041000073,0.0,0.0,zibja,pseudo,lowbf
106,p08,106,think,th,hi,in,nk,t,h,i,n,k,,,0.8316118500001721,0.9435616089999712,1.0475887480001802,1.1916783130000113,1.3196747299998606,0.0,0.0,think,highwf,highbf
107,p08,107,therm,th,he,er,rm,t,h,e,r,m,,,0.7229684810004073,0.9310327190000862,1.0030673130004288,1.1950261760002832,1.2350543270003982,0.0,0.0,therm,lowwf,highbf
108,p08,108,puppy,pu,up,pp,py,p,u,p,y,,,,1.1595045120002396,1.3036361600002238,1.495543717000146,1.9675019670003167,0.0,0.0,0.0,pupy,medwf,lowbf
109,p08,109,zibja,zi,ib,bj,ja,z,i,b,j,a,,,1.083686207000028,1.2836298300003364,1.4436214560000735,1.7236947670003246,1.8276719170003162,0.0,0.0,zibja,pseudo,lowbf
110,p08,110,would,wo,ou,ul,ld,w,o,u,o,l,d,,0.9436249800000951,1.1917463629997656,1.351620623999679,1.52766290999989,1.6556390769997051,1.8077390589996867,0.0,wouold,highwf,medbf
111,p08,111,champ,ch,ha,am,mp,c,h,a,m,p,,,0.7636702270001479,0.8916370590000042,1.0916896580001776,1.1796515080000063,1.315647010000248,0.0,0.0,champ,medwf,medbf
112,p08,112,there,th,he,er,re,t,h,e,r,e,,,0.7993112839999412,0.9912020619999566,1.1271965079999973,1.2792567989999952,1.3591946579999785,0.0,0.0,there,highwf,highbf
113,p08,113,haole,ha,ao,ol,le,h,a,o,l,e,,,0.8356604020000304,0.9315988759999527,1.11561465900013,1.2996288119998098,1.3636402759998418,0.0,0.0,haole,lowwf,medbf
114,p08,114,cooed,co,oo,oe,ed,c,o,o,e,d,,,0.9276028079998468,1.135634366999966,1.2795982699999513,1.4236422319995654,1.615634597999815,0.0,0.0,cooed,lowwf,medbf
115,p08,115,druze,dr,ru,uz,ze,d,r,u,z,e,,,0.9873732580003889,1.2033078580002439,1.4033873410003253,1.707430738000312,1.9393920700003946,0.0,0.0,druze,lowwf,lowbf
116,p08,116,theme,th,he,em,me,t,h,e,m,,,,0.9355054580000797,1.1355716709999797,1.255584085999999,1.3835696559999633,0.0,0.0,0.0,them,medwf,highbf
117,p08,117,tithe,ti,it,th,he,t,i,t,h,e,,,0.8594040170000881,1.0434415259996968,1.3394908410000426,1.6114909029997762,1.7554918830001043,0.0,0.0,tithe,lowwf,highbf
118,p08,118,kremp,kr,re,em,mp,k,r,e,m,p,,,1.0711498099999517,1.21508375600024,1.4231667700000799,1.5111233249999714,1.655135855000026,0.0,0.0,kremp,pseudo,medbf
119,p08,119,buddy,bu,ud,dd,dy,b,u,d,d,y,,,0.9471401669998158,1.0750990950000414,1.2351287679998677,1.3790899989999161,1.4670243340001434,0.0,0.0,buddy,highwf,lowbf
120,p08,120,buddy,bu,ud,dd,dy,b,u,d,d,y,,,1.361169525999685,1.497184697999728,1.657091175000005,1.7930717409999488,1.881088779000038,0.0,0.0,buddy,highwf,lowbf
121,p08,121,vanru,va,an,nr,ru,a,n,r,u,,,,1.0279069939997498,1.7079400170000554,1.8758268120000139,1.9798913350000475,0.0,0.0,0.0,anru,pseudo,medbf
122,p08,122,buddy,bu,ud,dd,dy,b,u,u,d,y,,,1.0876907070000925,1.2316824540002926,1.3595671500002027,1.5276587220000692,1.639652056000159,0.0,0.0,buudy,highwf,lowbf
123,p08,123,cooed,co,oo,oe,ed,c,o,o,e,d,,,0.7322665870001401,0.9562033930001235,1.0921871930004272,1.1961864030004108,1.3722578700003396,0.0,0.0,cooed,lowwf,medbf
124,p08,124,cheer,ch,he,ee,er,c,h,e,e,r,,,0.8318524579999576,1.047756468999978,1.2238700289999542,1.3918880869996428,1.583746981999866,0.0,0.0,cheer,medwf,highbf
125,p08,125,kremp,kr,re,em,mp,k,r,e,m,p,,,1.1722396780000963,1.2922593210000741,1.4922548770000503,1.5802037170001313,1.6922908270003063,0.0,0.0,kremp,pseudo,medbf
126,p08,126,therm,th,he,er,rm,t,h,e,r,m,,,1.0242095810003775,1.400171679000323,1.6481477840002299,1.7681064980001793,2.144094733000202,0.0,0.0,therm,lowwf,highbf
127,p08,127,pykka,py,yk,kk,ka,p,y,k,k,a,,,0.9236540039996726,1.3395568939999976,1.6595319819998622,1.803622324999651,1.9156368109997857,0.0,0.0,pykka,pseudo,lowbf
128,p08,128,tithe,ti,it,th,he,t,i,t,h,e,,,0.8158886159999383,0.9757785909996528,1.2878814079999756,1.5038948979999986,1.5918758230000094,0.0,0.0,tithe,lowwf,highbf
129,p08,129,haole,ha,ao,ol,le,h,a,o,l,e,,,0.995550237000316,1.171540627000013,1.4675383369999508,1.6917324159999225,1.7556504950002818,0.0,0.0,haole,lowwf,medbf
130,p08,130,theme,th,he,em,me,t,h,e,m,,,,0.9919681060000585,1.2000493699997605,1.2800594740001543,1.448017911000079,0.0,0.0,0.0,them,medwf,highbf
131,p08,131,think,th,hi,in,nk,t,h,i,n,k,,,0.7798741290002908,0.8918769710003289,1.0518955580000693,1.251886743000341,1.4279152120002436,0.0,0.0,think,highwf,highbf
132,p08,132,vodka,vo,od,dk,ka,v,o,d,k,a,,,1.1357831269997405,1.3918232749997514,1.599768192999818,1.7836697819998335,1.9836699509996834,0.0,0.0,vodka,medwf,lowbf
133,p08,133,lucky,lu,uc,ck,ky,l,u,c,k,y,,,0.8117870849996507,1.1077801849996831,1.4517657169999438,1.5556599249998726,1.8197704219996922,0.0,0.0,lucky,highwf,lowbf
134,p08,134,heond,he,eo,on,nd,h,e,o,n,d,,,0.7836799249998876,0.9197552719997475,0.9596878579995973,1.0877956269996503,1.2077842979997513,0.0,0.0,heond,pseudo,highbf
135,p08,135,faqir,fa,aq,qi,ir,f,a,q,i,r,space,,0.8678074149997883,0.987903223000103,1.203899402999923,1.5318972489999396,1.7319034150000334,1.883849930999986,0.0,faqirspace,lowwf,lowbf
136,p08,136,tithe,ti,it,th,he,t,i,t,h,e,,,0.9360165299999608,1.0800058380000337,1.1759324959998594,1.3120315639998807,1.5119384260001425,0.0,0.0,tithe,lowwf,highbf
137,p08,137,theme,th,he,em,me,t,h,e,m,e,,,0.7640899870002613,1.0839945669999906,1.804137313999945,1.9400186160000885,2.0281502860002547,0.0,0.0,theme,medwf,highbf
138,p08,138,would,wo,ou,ul,ld,w,o,u,l,d,,,0.9437419430000773,1.4798101310002494,1.6398270150002645,1.8878155319998768,2.0077879820000817,0.0,0.0,would,highwf,medbf
139,p08,139,edthe,ed,dt,th,he,e,d,t,h,e,,,0.6600848110001607,0.8840178420000484,1.1241916260000835,1.3241568819998975,1.3641226989998358,0.0,0.0,edthe,pseudo,highbf
140,p08,140,belly,be,el,ll,ly,b,e,l,l,y,,,0.6956785329998638,0.7917790219999006,1.0397118460000456,1.1835945630000424,1.4236573529997258,0.0,0.0,belly,medwf,medbf
141,p08,141,champ,ch,ha,am,mp,c,h,a,m,p,,,0.8679223509998337,1.0520250869999472,1.2839168499999687,1.3959702509996532,1.595946831999754,0.0,0.0,champ,medwf,medbf
142,p08,142,vanru,va,an,nr,ru,v,a,n,r,u,,,0.7915884499998356,0.9594087899999977,1.1115005020001263,1.2874681170001168,1.7114825779999592,0.0,0.0,vanru,pseudo,medbf
143,p08,143,belly,be,el,ll,ly,b,e,l,l,y,,,0.7716266130000804,0.8996193520001725,1.1556366300001173,1.3076384099999814,1.5316174360000332,0.0,0.0,belly,medwf,medbf
144,p08,144,pykka,py,yk,kk,ka,p,y,k,k,a,,,0.9438040700001693,1.2798601890003738,1.5759645880002608,1.711856273000194,1.7919353710003634,0.0,0.0,pykka,pseudo,lowbf
145,p08,145,buddy,bu,ud,dd,dy,b,u,d,d,y,,,0.9637670349998189,1.091849029000059,1.219788600999891,1.3718171249997795,1.467661274999955,0.0,0.0,buddy,highwf,lowbf
146,p08,146,zibja,zi,ib,bj,ja,z,i,b,j,a,,,1.1359238519999053,1.4239349180002137,1.5999165799998991,1.8398512130002018,1.9759365419999995,0.0,0.0,zibja,pseudo,lowbf
147,p08,147,belly,be,el,ll,ly,b,e,l,l,y,,,0.8115610350000679,0.9475520679998226,1.2115664259999903,1.3635847499999727,1.5874789899999087,0.0,0.0,belly,medwf,medbf
148,p08,148,champ,ch,ha,am,mp,c,h,a,m,o,p,,0.767944234999959,0.8880585990000327,1.1360325010000452,1.2640679319997616,1.3920119780000277,1.3920119780000277,0.0,chamop,medwf,medbf
149,p08,149,think,th,hi,in,nk,t,h,i,n,k,,,0.7640256059999047,0.9799964039998486,1.043911947000197,1.2200366679999206,1.3720479949997753,0.0,0.0,think,highwf,highbf
150,p08,150,there,th,he,er,re,t,h,e,r,,,,0.9838018899999952,1.1677950379998947,1.2638852370000677,1.399837208000008,0.0,0.0,0.0,ther,highwf,highbf
151,p08,151,heond,he,eo,on,nd,h,e,o,n,d,,,1.003652417000012,1.1156869599999482,1.1715710500002388,1.3396421030001875,1.459588905000146,0.0,0.0,heond,pseudo,highbf
152,p08,152,edthe,ed,dt,th,he,e,d,t,h,e,,,0.6316815430000133,0.8316430899999432,1.0156818579998799,1.2077076199998373,1.263623859999825,0.0,0.0,edthe,pseudo,highbf
153,p08,153,faqir,fa,aq,qi,ir,f,a,q,i,r,,,1.0358247529998152,1.2199066590001166,1.4437964039998405,1.8198653899999044,2.0518974599999638,0.0,0.0,faqir,lowwf,lowbf
154,p08,154,about,ab,bo,ou,ut,a,b,o,u,t,,,0.7674494560001222,0.9115665620001892,1.143464208000296,1.271597949000352,1.391481333000229,0.0,0.0,about,highwf,medbf
155,p08,155,puppy,pu,up,pp,py,p,u,u,p,p,y,,1.2037294599999768,1.3716223400001581,1.5716972179998265,2.1956617219998407,2.3476578320000954,2.467615689000013,0.0,puuppy,medwf,lowbf
156,p08,156,faqir,fa,aq,qi,ir,f,a,q,i,r,,,1.0238564450000922,1.1919032710002284,1.4079553280002983,1.6879201730002933,1.8798906120000538,0.0,0.0,faqir,lowwf,lowbf
157,p08,157,druze,dr,ru,uz,ze,d,r,u,z,z,e,,0.8276470679998056,1.059509066999908,1.2995710379996126,1.5955591049996656,1.923494689999643,2.1955467650000173,0.0,druzze,lowwf,lowbf
158,p08,158,buddy,bu,ud,dd,dy,b,u,d,d,y,,,0.8395814330001485,0.9915892710000662,1.1834608449998996,1.3434574430002613,1.431567436000023,0.0,0.0,buddy,highwf,lowbf
159,p08,159,think,th,hi,in,nk,t,h,i,n,k,,,0.8037029369997981,0.9316651069998443,1.0435552829999324,1.2196744650000255,1.3556723249998868,0.0,0.0,think,highwf,highbf
160,p08,160,therm,th,he,er,rm,t,h,e,r,m,,,0.8955323759996645,1.1434760089996416,1.2475234019998425,1.431530181999733,1.5354773929998373,0.0,0.0,therm,lowwf,highbf
161,p08,161,cooed,co,oo,oe,ed,c,o,o,e,d,,,0.7151203839998743,0.9310649079998257,1.0751038549997247,1.163125893999677,1.347028582999883,0.0,0.0,cooed,lowwf,medbf
162,p08,162,tithe,ti,it,th,he,t,i,t,h,e,,,0.7832256020001296,0.9591858270000557,1.1431964360003803,1.191302127000199,1.4232384400002047,0.0,0.0,tithe,lowwf,highbf
163,p08,163,cheer,ch,he,ee,er,c,h,e,e,r,,,0.7394393479999053,0.9314700549998634,1.0994737920000262,1.2513652899997396,1.4753926289999981,0.0,0.0,cheer,medwf,highbf
164,p08,164,therm,th,he,er,rm,t,h,e,r,m,,,0.8395074290001503,1.0556036769999082,1.1594864480002798,1.367473861000235,1.4636187629998858,0.0,0.0,therm,lowwf,highbf
165,p08,165,vanru,va,an,nr,ru,v,a,n,r,u,,,0.9156182920000902,1.0356237279997913,1.2196294179998404,1.4196219750001546,1.587610759999734,0.0,0.0,vanru,pseudo,medbf
166,p08,166,vodka,vo,od,dk,ka,v,o,d,k,a,,,1.1594439890000103,1.5035688650000338,1.7755105860001095,2.16745254999978,2.279565082999852,0.0,0.0,vodka,medwf,lowbf
167,p08,167,would,wo,ou,ul,ld,w,o,u,l,d,,,0.9315398700000515,1.051564277000125,1.179566272000102,1.3796193899997888,1.51562640200018,0.0,0.0,would,highwf,medbf
168,p08,168,haole,ha,ao,ol,le,h,a,o,l,e,,,0.8557297860002109,0.9916559640000742,1.1436127910001233,1.3277535410002201,1.3917179549998764,0.0,0.0,haole,lowwf,medbf
169,p08,169,cheer,ch,he,ee,er,c,h,e,e,r,,,0.7472973439998896,0.875242531999902,1.0752555869999014,1.2432639369999379,1.5073839560000124,0.0,0.0,cheer,medwf,highbf
170,p08,170,puppy,pu,up,pp,py,p,u,p,p,y,,,1.0874026360002063,1.3114337910001268,1.5834350159998394,1.727413942000112,1.9994325369998478,0.0,0.0,puppy,medwf,lowbf
171,p08,171,about,ab,bo,ou,ut,a,b,o,u,t,,,0.7872021420002966,0.9232532500000161,1.2352540169999884,1.347175322000112,1.57125728300025,0.0,0.0,about,highwf,medbf
172,p08,172,vodka,vo,od,dk,ka,v,o,d,k,a,,,1.0875828869998259,1.327637778999815,1.5675070259999302,1.7595087659997262,1.9755081729999802,0.0,0.0,vodka,medwf,lowbf
173,p08,173,there,th,he,er,re,t,h,e,r,e,,,0.8513024700000642,1.0512875180002084,1.1632327920001444,1.299269785999968,1.3551932129998931,0.0,0.0,there,highwf,highbf
174,p08,174,puppy,pu,up,pp,py,p,u,p,p,y,,,0.7835396979999132,1.2236369019997255,1.4795232189999297,1.6475634929997796,1.7916247739999562,0.0,0.0,puppy,medwf,lowbf
175,p08,175,therm,th,he,er,rm,t,h,e,r,m,,,0.9314964770001097,1.139564115000212,1.203558200000316,1.3474914910002553,1.6355783680000968,0.0,0.0,therm,lowwf,highbf
176,p08,176,faqir,fa,aq,qi,ir,f,a,q,i,r,,,0.8317049269999188,1.0076617959998657,1.2077325689997451,1.4717745560001276,1.607727285999772,0.0,0.0,faqir,lowwf,lowbf
177,p08,177,puppy,pu,up,pp,py,p,u,p,p,y,,,0.7875400749999244,1.0276367940000455,1.2516517210001439,1.395545286000015,1.6356414819997553,0.0,0.0,puppy,medwf,lowbf
178,p08,178,heond,he,eo,on,nd,h,e,o,n,d,,,0.9039489100000537,1.0079468119997728,1.0958701389999987,1.2479069969999728,1.3278709490000438,0.0,0.0,heond,pseudo,highbf
179,p08,179,haole,ha,ao,ol,le,h,a,o,l,e,,,0.8757087929998306,1.0197782779996487,1.523764024999764,1.6997880099997928,1.7558184149997942,0.0,0.0,haole,lowwf,medbf
180,p08,180,pykka,py,yk,kk,ka,p,y,k,k,a,,,0.8234525990001202,1.1673446429999785,1.4473258279999754,1.5834295690001454,1.6554672860002029,0.0,0.0,pykka,pseudo,lowbf
181,p08,181,edthe,ed,dt,th,he,e,d,t,h,e,,,0.8275154090001706,1.01954424700034,1.1793880909999643,1.3554995469999085,1.395440520000193,0.0,0.0,edthe,pseudo,highbf
182,p08,182,there,th,he,er,re,t,h,e,r,e,,,0.8155946309998399,1.0155681679998452,1.095489058000112,1.247586057999797,1.2875628319998214,0.0,0.0,there,highwf,highbf
183,p08,183,vanru,va,an,nr,ru,v,a,n,r,u,,,0.8115480619999289,0.9235027229997286,1.0674173689999407,1.243376621999687,1.3793920640000579,0.0,0.0,vanru,pseudo,medbf
184,p08,184,puppy,pu,up,pp,py,p,u,p,p,y,,,0.8956588040000497,1.2396214059999693,1.47952064600031,1.6236310570002388,1.9435315110004012,0.0,0.0,puppy,medwf,lowbf
185,p08,185,kremp,kr,re,em,mp,k,r,e,m,p,,,0.9713624729997719,1.0993364659998406,1.2913051299997278,1.4113263959998221,1.5073158820000572,0.0,0.0,kremp,pseudo,medbf
186,p08,186,zibja,zi,ib,bj,ja,z,i,b,j,a,,,1.0075580539996736,1.2715799839997999,1.3915778839996165,1.6235768069996084,1.7355187409998507,0.0,0.0,zibja,pseudo,lowbf
187,p08,187,druze,dr,ru,uz,ze,d,r,u,z,e,,,0.7073450210000374,0.9792365200000859,1.1953749540002718,1.4672275630000513,1.7312586570001258,0.0,0.0,druze,lowwf,lowbf
188,p08,188,belly,be,el,ll,ly,b,e,l,l,y,,,0.7511113269997622,0.8871391279999443,1.1191909929998474,1.2631681809998554,1.4552317489997222,0.0,0.0,belly,medwf,medbf
189,p08,189,about,ab,bo,ou,ut,a,b,o,u,t,,,0.7952279400001316,0.9471936240001924,1.2271686340000088,1.3471616570000151,1.5712065650000113,0.0,0.0,about,highwf,medbf
190,p08,190,theme,th,he,em,me,t,h,e,m,e,,,0.9353691860001163,1.1753524280002239,1.3033781540002565,1.511420679999901,1.6394330269999955,0.0,0.0,theme,medwf,highbf
191,p08,191,lucky,lu,uc,ck,ky,l,u,c,k,y,,,0.947439728000063,1.2194490030001361,1.4194420870003341,1.5313627040000029,1.8033866610003315,0.0,0.0,lucky,highwf,lowbf
192,p08,192,cooed,co,oo,oe,ed,c,o,o,e,d,,,0.8556841970003006,1.0716831660001844,1.2156674810003096,1.335670864000349,1.5196541530003742,0.0,0.0,cooed,lowwf,medbf
193,p08,193,pykka,py,yk,kk,ka,p,y,k,k,a,,,0.9317158490002839,1.2757039900002383,1.5317150650002986,1.675690657999894,1.7477609699999448,0.0,0.0,pykka,pseudo,lowbf
194,p08,194,cooed,co,oo,oe,ed,c,o,o,e,d,,,0.7429089110000859,0.8949003490001814,1.0389728220002326,1.0870374520000041,1.2630073570003333,0.0,0.0,cooed,lowwf,medbf
195,p08,195,zibja,zi,ib,bj,ja,z,i,b,j,a,,,0.93100907500002,1.203129677999641,1.323107537999931,1.5709911330000068,1.6909990449998986,0.0,0.0,zibja,pseudo,lowbf
196,p08,196,edthe,ed,dt,th,he,e,d,t,h,e,,,0.8072659909998947,1.0072696579995863,1.159150278999732,1.327195938999921,1.407258112999898,0.0,0.0,edthe,pseudo,highbf
197,p08,197,about,ab,bo,ou,ut,a,b,o,u,t,,,0.7634721650001666,0.9154693260002205,1.1634883280003123,1.3234777709999435,1.4354679190000752,0.0,0.0,about,highwf,medbf
198,p08,198,theme,th,he,em,me,t,h,e,m,e,,,0.7832375650000358,0.9832156829997984,1.0552862439999444,1.2472084109999741,1.3671665110000504,0.0,0.0,theme,medwf,highbf
199,p08,199,zibja,zi,ib,bj,ja,z,i,b,k,a,,,0.9631409109997549,1.1391633079997519,1.3071095119998972,1.5230711239996708,1.6911131879996901,0.0,0.0,zibka,pseudo,lowbf
200,p08,200,edthe,ed,dt,th,he,e,d,t,h,e,,,0.6552493849999337,0.8632108709998647,1.0871857369997997,1.2952127589996962,1.3752467049998813,0.0,0.0,edthe,pseudo,highbf
201,p08,201,druze,dr,ru,uz,ze,d,r,u,z,e,,,0.8991232519997538,1.6351252019999265,1.8030956699999479,2.187140852000084,2.4430222249998224,0.0,0.0,druze,lowwf,lowbf
202,p08,202,belly,be,el,ll,ly,b,e,l,l,y,,,0.7831808730002194,0.9191825570001129,1.1991935040000499,1.3991967470001327,1.6551333420002265,0.0,0.0,belly,medwf,medbf
203,p08,203,buddy,bu,ud,dd,dy,b,u,d,d,y,,,0.8195118590001584,0.9635085590002745,1.1634676880003099,1.3235073630003171,1.4433971630000997,0.0,0.0,buddy,highwf,lowbf
204,p08,204,about,ab,bo,ou,ut,a,b,o,u,r,t,,0.8152866720001839,0.9271952879998935,1.1912914919998912,1.2952662650000093,1.45522426000025,1.45522426000025,0.0,abourt,highwf,medbf
205,p08,205,lucky,lu,uc,ck,ky,l,u,c,k,y,,,0.9233866540002964,1.1713785169999937,2.2353772490000665,2.3873825040000156,2.635354731999996,0.0,0.0,lucky,highwf,lowbf
206,p08,206,tithe,ti,it,th,he,t,i,t,h,e,,,0.9196571190000213,1.0795583009999064,1.4156476610000936,1.599611410000307,1.6716206450000755,0.0,0.0,tithe,lowwf,highbf
207,p08,207,champ,ch,ha,am,mp,c,h,a,m,p,,,0.7473112000002402,0.8833346620003795,1.1232987630000935,1.2353366620000088,1.395360360000268,0.0,0.0,champ,medwf,medbf
208,p08,208,lucky,lu,uc,ck,ky,l,u,c,k,y,,,0.8394496509999954,1.1354924649999703,1.5354701450000903,1.6954714439998497,1.9753933990000405,0.0,0.0,lucky,highwf,lowbf
209,p08,209,cheer,ch,he,ee,er,c,h,e,e,r,,,0.7952738809999573,0.9712349030000951,1.1713307669997448,1.3073418600001787,1.5233240490001663,0.0,0.0,cheer,medwf,highbf
210,p08,210,tithe,ti,it,th,he,t,i,t,h,e,,,0.82317276699996,1.0232481190000726,1.2871656610000173,1.4632103620001544,1.5431026579999525,0.0,0.0,tithe,lowwf,highbf
211,p08,211,would,wo,ou,ul,ld,w,o,u,l,d,,,0.891438121000192,0.9714033039999777,1.1154253170002448,1.3073956900002486,1.4273383110003124,0.0,0.0,would,highwf,medbf
212,p08,212,think,th,hi,in,nk,t,h,i,n,k,,,0.7191346810000141,0.8951793210003416,0.9510581970002931,1.119161496000288,1.2631539100002556,0.0,0.0,think,highwf,highbf
213,p08,213,vanru,va,an,nr,ru,v,a,n,r,u,,,0.8112466219999988,0.9312510479999219,1.0672225739999703,1.2113238540000566,1.33127126699992,0.0,0.0,vanru,pseudo,medbf
214,p08,214,would,wo,ou,ul,ld,w,o,u,l,d,,,0.8149810039999466,0.9428742099998999,1.0550308089996179,1.1989554309998312,1.31898769099962,0.0,0.0,would,highwf,medbf
215,p08,215,pykka,py,yk,kk,ka,p,y,k,k,a,,,1.0588279799999327,1.6587714390002475,1.9547690150002381,2.098869260000356,2.178791165000348,0.0,0.0,pykka,pseudo,lowbf
216,p08,216,vodka,vo,od,dk,ka,v,o,d,k,a,,,0.9830091389999325,1.191127908999988,1.3991081730000587,1.5590248969997447,1.7591024869998364,0.0,0.0,vodka,medwf,lowbf
217,p08,217,kremp,kr,re,em,mp,k,r,e,m,p,,,0.9874936669998533,1.1314783939997142,1.3315040729999055,1.5794656729999588,1.6995559009997123,0.0,0.0,kremp,pseudo,medbf
218,p08,218,champ,ch,ha,am,mp,c,h,a,m,p,,,0.8949676429997453,1.166904144,1.3350158209996152,1.5030205089997253,1.7030161359998601,0.0,0.0,champ,medwf,medbf
219,p08,219,cooed,co,oo,oe,ed,c,o,o,e,d,,,0.6591104170001927,0.883188207999865,1.003189126000052,1.571106681999936,1.7871942599999784,0.0,0.0,cooed,lowwf,medbf
220,p08,220,kremp,kr,re,em,mp,k,r,e,m,p,,,1.1833323949999794,1.311317451999912,1.639335394000227,1.967215810000198,2.1432222309999815,0.0,0.0,kremp,pseudo,medbf
221,p08,221,there,th,he,er,re,t,h,e,r,e,,,0.9950431990000652,1.1951277319999463,1.3150824669996837,1.7230465039997398,1.8669794879997426,0.0,0.0,there,highwf,highbf
222,p08,222,druze,dr,ru,uz,ze,d,r,u,z,e,,,0.7828916860003119,0.9988977689999956,1.2068963780002377,1.5988926630002425,1.8229432000002816,0.0,0.0,druze,lowwf,lowbf
223,p08,223,haole,ha,ao,ol,le,h,a,o,l,e,,,0.7389841229996819,0.8670841119997021,1.5070553599998675,1.6670141820000026,1.7471013579997816,0.0,0.0,haole,lowwf,medbf
224,p08,224,therm,th,he,er,rm,t,h,e,r,m,,,1.0393137149999347,1.2153037339999173,1.303339527999924,1.439239329999964,1.7432686860001922,0.0,0.0,therm,lowwf,highbf
225,p08,225,there,th,he,er,re,t,h,e,r,e,,,0.8989072129998021,1.0829350449998856,1.1869423199996163,1.2908486869996523,1.3789174719995572,0.0,0.0,there,highwf,highbf
226,p08,226,theme,th,he,em,me,t,h,e,r,e,m,,0.8230014979999396,0.9989769349999733,1.0550081719998161,1.2068958589998147,1.2388742529997216,1.6390010399995845,0.0,therem,medwf,highbf
227,p08,227,kremp,kr,re,em,mp,k,r,e,m,p,,,1.0669119150002189,1.1949682070003291,1.3870149340000353,1.4509064200001376,1.5470350040000085,0.0,0.0,kremp,pseudo,medbf
228,p08,228,lucky,lu,uc,ck,ky,l,u,c,k,y,,,0.8548729819999608,1.1028366440000354,1.2548693829999138,1.3427747860000636,1.606835953999962,0.0,0.0,lucky,highwf,lowbf
229,p08,229,heond,he,eo,on,nd,h,e,o,n,d,,,0.8268126170000869,0.9229732800004058,1.0828817120000167,1.1869325990001016,1.3388791170000331,0.0,0.0,heond,pseudo,highbf
230,p08,230,faqir,fa,aq,qi,ir,f,a,q,i,r,,,1.0309900759998527,1.1750403949999964,1.4309118539999872,1.766900957999951,1.9190012310000384,0.0,0.0,faqir,lowwf,lowbf
231,p08,231,think,th,hi,in,nk,t,h,i,n,k,,,0.8190594089996921,1.0110924979999254,1.1309908369998993,1.355069777999688,1.5550199809999867,0.0,0.0,think,highwf,highbf
232,p08,232,vodka,vo,od,dk,ka,v,o,d,k,a,,,1.1669499559998258,1.3990477140000621,1.5830272439998225,1.7269549759998881,2.0070113550000315,0.0,0.0,vodka,medwf,lowbf
233,p08,233,would,wo,ou,ul,ld,w,o,u,l,d,,,0.8750349090000782,0.9550363519997518,1.0911506819998067,1.3231498959999044,1.4270692360000794,0.0,0.0,would,highwf,medbf
234,p08,234,haole,ha,ao,ol,le,h,a,o,l,e,,,0.8228950299999269,1.0149760730000708,1.3669165989999783,1.5349066849998962,1.630930559999797,0.0,0.0,haole,lowwf,medbf
235,p08,235,champ,ch,ha,am,mp,c,h,a,m,p,o,,0.7870980429997871,0.923140377999971,1.1310515569998643,1.1950818029999937,1.3391568009997172,1.355144399999972,0.0,champo,medwf,medbf
236,p08,236,heond,he,eo,on,nd,h,e,o,n,d,,,0.7428575199996885,1.2629749549996632,1.35085397299963,1.510975483999573,1.6068385229996238,0.0,0.0,heond,pseudo,highbf
237,p08,237,cheer,ch,he,ee,er,c,h,e,e,r,,,0.7309052470000097,0.9390128609998101,1.1308710190000966,1.3149909550002121,1.4830094610001652,0.0,0.0,cheer,medwf,highbf
238,p08,238,zibja,zi,ib,bj,ja,z,i,b,j,a,,,0.9909643089999918,1.3668480169999384,1.5508097779998025,1.79884487299978,1.9109839829998236,0.0,0.0,zibja,pseudo,lowbf
239,p08,239,druze,dr,ru,uz,ze,d,r,u,z,e,,,0.7871827979997761,1.0112441520000175,1.2191536159998577,1.4271255290000227,1.6831362299999455,0.0,0.0,druze,lowwf,lowbf
