,sID,Trial #,string,bi_1,bi_2,bi_3,bi_4,key_resp.keys.1,key_resp.keys.2,key_resp.keys.3,key_resp.keys.4,key_resp.keys.5,key_resp.keys.6,key_resp.keys.7,key_resp.rt.1,key_resp.rt.2,key_resp.rt.3,key_resp.rt.4,key_resp.rt.5,key_resp.rt.6,key_resp.rt.7,resp_string,WF Type,BF Type
0,p09,0,think,th,hi,in,nk,t,h,i,n,k,,,0.966381823993288,0.9983707219944336,1.174422782001784,1.3583741189795546,1.7823716029815841,0.0,0.0,think,highwf,highbf
1,p09,1,buddy,bu,ud,dd,dy,b,u,d,d,y,,,0.8808587509847712,1.2247873340093065,1.904795918992022,2.048772009991808,2.1127632060088217,0.0,0.0,buddy,highwf,lowbf
2,p09,2,tithe,ti,it,th,he,t,i,t,h,e,,,1.1014292360050604,1.181422432011459,1.5573808410263155,1.6134316580137238,1.725387785001658,0.0,0.0,tithe,lowwf,highbf
3,p09,3,kremp,kr,re,em,mp,k,t,r,e,m,p,,1.0413621159968898,1.1614253160078079,1.6173577579902485,1.8093797079927754,2.06540749699343,2.3694304520031437,0.0,ktremp,pseudo,medbf
4,p09,4,therm,th,he,er,rm,t,h,e,e,r,m,,0.9486974689934868,0.996695655019721,1.0926331810187548,1.2686679259932134,1.6366622770146932,1.7246253530029207,0.0,theerm,lowwf,highbf
5,p09,5,haole,ha,ao,ol,le,h,a,o,l,e,,,1.0648260340094566,1.1927684810070787,1.8488237540004775,2.2407671970140655,2.2968403510167263,0.0,0.0,haole,lowwf,medbf
6,p09,6,champ,ch,ha,am,mp,c,h,a,m,p,,,1.1165060899802484,1.196566245984286,1.2765161349962,1.612569041986717,1.8125494919950143,0.0,0.0,champ,medwf,medbf
7,p09,7,cooed,co,oo,oe,ed,c,o,o,e,d,,,0.9371387220162433,1.0331344500009436,1.1611940150032751,1.241083733009873,1.4170881909958553,0.0,0.0,cooed,lowwf,medbf
8,p09,8,there,th,he,er,re,t,h,e,r,e,,,0.8130139020213392,0.8849756680137943,0.9889212530106306,1.268998053012183,1.4209266880061477,0.0,0.0,there,highwf,highbf
9,p09,9,vanru,va,an,nr,ru,v,a,n,r,u,,,1.1836250649939757,1.5516037289926317,1.7035358319990337,2.127541032998124,2.199543596012518,0.0,0.0,vanru,pseudo,medbf
10,p09,10,therm,th,he,er,rm,t,h,e,r,m,,,0.8983742939890362,0.9624122509849258,1.090374730003532,1.2903750669793226,1.4023677140066866,0.0,0.0,therm,lowwf,highbf
11,p09,11,zibja,zi,ib,bj,ja,z,i,b,j,a,,,1.261653102003038,1.365656151989242,1.5576542310009245,1.7417009119817521,1.8776839099882636,0.0,0.0,zibja,pseudo,lowbf
12,p09,12,therm,th,he,er,rm,t,h,e,r,m,,,0.8043032040004618,0.9002773219835944,0.9804685550043359,1.1482829989981838,1.2363305029866751,0.0,0.0,therm,lowwf,highbf
13,p09,13,pykka,py,yk,kk,ka,p,y,k,k,a,,,1.5106448479928076,1.59064836599282,1.998645718995249,2.142745974997524,2.2146912309981417,0.0,0.0,pykka,pseudo,lowbf
14,p09,14,puppy,pu,up,pp,py,p,u,p,p,y,,,0.834888982004486,1.0349021420115605,1.466917187004583,1.5949150710075628,1.6828703070059419,0.0,0.0,puppy,medwf,lowbf
15,p09,15,vanru,va,an,nr,ru,v,a,n,r,u,,,0.9356463629810605,1.0235878599924035,1.1595942059939262,1.4476287279976532,1.5276452889957,0.0,0.0,vanru,pseudo,medbf
16,p09,16,heond,he,eo,on,nd,h,r,o,n,d,,,1.0834606489806902,1.1474419589794707,1.6434643929824233,2.283437445992604,2.6194923910079524,0.0,0.0,hrond,pseudo,highbf
17,p09,17,kremp,kr,re,em,mp,k,r,e,m,p,,,1.09470162197249,1.158648918994004,1.3586550509789959,1.486691764992429,1.654646185983438,0.0,0.0,kremp,pseudo,medbf
18,p09,18,faqir,fa,aq,qi,ir,f,a,q,u,i,,,1.0496615169977304,1.161657127988292,2.17765734900604,2.289651551982388,2.457670050993329,0.0,0.0,faqui,lowwf,lowbf
19,p09,19,think,th,hi,in,nk,t,h,i,n,k,,,0.8377423719794024,0.8858471999992616,1.0537465809902642,1.2137820209900383,1.3978000479983166,0.0,0.0,think,highwf,highbf
20,p09,20,buddy,bu,ud,dd,dy,b,u,d,d,y,,,0.9142779209942091,1.0742656920047011,1.4102794269856531,1.554265767976176,1.618319105997216,0.0,0.0,buddy,highwf,lowbf
21,p09,21,about,ab,bo,ou,ut,a,b,o,u,y,,,0.7663832679972984,0.8383266079763416,1.038332725991495,1.2943843839748297,1.398382100975141,0.0,0.0,abouy,highwf,medbf
22,p09,22,therm,th,he,er,rm,t,h,e,r,m,,,0.809431625995785,0.8894231769954786,0.9774177749932278,1.121455557004083,1.2414216960023623,0.0,0.0,therm,lowwf,highbf
23,p09,23,belly,be,el,ll,ly,b,e,l,l,y,,,0.8134521549800411,0.9014056339801755,1.1654834520013537,1.3174059159937315,1.3654979949933477,0.0,0.0,belly,medwf,medbf
24,p09,24,vodka,vo,od,dk,ka,v,o,d,k,a,,,1.0173887999844737,1.1053782349918038,1.4173784749873448,1.6014220860088244,1.681462234002538,0.0,0.0,vodka,medwf,lowbf
25,p09,25,would,wo,ou,ul,ld,w,o,u,l,d,,,1.013336250995053,1.0773507709964179,1.261389038991183,1.6853749019792303,1.7572798649780452,0.0,0.0,would,highwf,medbf
26,p09,26,buddy,bu,ud,dd,dy,b,u,d,d,u,,,0.8172772130055819,1.177292629989097,1.4813104280037805,1.6412695689941756,1.7373371759895235,0.0,0.0,buddu,highwf,lowbf
27,p09,27,think,th,hi,in,nk,t,h,i,n,k,,,0.7889647510019131,1.9409652929753065,2.380967390985461,2.6690140259743202,2.8209748219815083,0.0,0.0,think,highwf,highbf
28,p09,28,zibja,zi,ib,bj,ja,z,i,b,j,a,,,1.7608336890116334,1.8567788180080242,2.2328332980105188,2.608795984997414,2.672777076018974,0.0,0.0,zibja,pseudo,lowbf
29,p09,29,puppy,pu,up,pp,py,p,u,p,p,y,,,0.9167035909777042,1.1887022279843222,1.6367500809719786,1.7887044639792293,1.8687931939784903,0.0,0.0,puppy,medwf,lowbf
30,p09,30,cooed,co,oo,oe,ed,c,o,o,e,d,,,0.9124083349888679,1.0244048339955043,1.168461702996865,1.2485222899995279,1.4244062950019725,0.0,0.0,cooed,lowwf,medbf
31,p09,31,faqir,fa,aq,qi,ir,f,a,q,i,r,,,1.5085414979839697,1.5885475279937964,2.1565242759825196,2.5085395489877556,2.564601584977936,0.0,0.0,faqir,lowwf,lowbf
32,p09,32,there,th,he,er,re,t,h,e,r,e,,,0.7766229190165177,0.8486620800103992,0.9526554890035186,1.120602550014155,1.3046093150041997,0.0,0.0,there,highwf,highbf
33,p09,33,about,ab,bo,ou,ut,a,b,o,u,t,,,0.6926417539943941,0.8046430929971393,1.0286573510093149,1.4847423860046547,1.556644210999366,0.0,0.0,about,highwf,medbf
34,p09,34,would,wo,ou,ul,ld,w,o,u,l,d,,,0.9526470790151507,1.0406371350109112,1.2805942720151506,1.5286190379993059,1.7766148000082467,0.0,0.0,would,highwf,medbf
35,p09,35,tithe,ti,it,th,he,t,i,t,h,e,,,0.8847748400003184,0.9649309320084285,1.0688164989987854,1.2368122420157306,1.316773344995454,0.0,0.0,tithe,lowwf,highbf
36,p09,36,champ,ch,ha,am,mp,c,h,a,s,m,o,,0.9447397649928462,1.0246051700087264,1.1526680540118832,1.1606663249840494,1.4726051499892492,1.624607012985507,0.0,chasmo,medwf,medbf
37,p09,37,kremp,kr,re,em,mp,k,r,e,m,p,,,1.0841320350009482,1.1721211099938955,1.332165461994009,1.7881173490022775,1.932175369001925,0.0,0.0,kremp,pseudo,medbf
38,p09,38,puppy,pu,up,pp,py,p,u,p,p,y,,,0.7520993330108467,0.952139397006249,1.2720463880104944,1.4400614839978516,1.576053469994804,0.0,0.0,puppy,medwf,lowbf
39,p09,39,cheer,ch,he,ee,er,c,h,e,e,r,,,0.9318257800186984,1.0358674880117178,1.1318600330268964,1.323772154020844,1.4837847480084747,0.0,0.0,cheer,medwf,highbf
40,p09,40,edthe,ed,dt,th,he,e,d,t,h,e,,,0.9757774239988066,1.1757661309966352,1.463804749015253,1.6397592690191232,1.7037584840145428,0.0,0.0,edthe,pseudo,highbf
41,p09,41,belly,be,el,ll,ly,b,r,l,l,y,,,0.7234702279965859,0.8275336640072055,1.2275476350041572,1.3714711570064537,1.4275572859914973,0.0,0.0,brlly,medwf,medbf
42,p09,42,cheer,ch,he,ee,er,c,h,e,e,r,,,0.8233571369783022,0.9114233939908445,0.9753560069948435,1.151479466992896,1.3114723179896828,0.0,0.0,cheer,medwf,highbf
43,p09,43,think,th,hi,in,nk,t,h,i,n,k,,,0.7632235659984872,0.8352620119985659,1.2671767649881076,1.4992149169847835,1.7632270629983395,0.0,0.0,think,highwf,highbf
44,p09,44,cooed,co,oo,oe,ed,c,o,o,e,d,,,0.8390797169995494,1.0151193840138149,1.1351293680199888,1.2631308069976512,1.431145220005419,0.0,0.0,cooed,lowwf,medbf
45,p09,45,druze,dr,ru,uz,ze,d,r,u,u,z,e,,1.0833154449937865,1.251408170996001,1.395342208998045,2.091344084998127,2.443338262004545,2.6433181159954984,0.0,druuze,lowwf,lowbf
46,p09,46,tithe,ti,it,th,he,t,i,t,h,e,,,0.910335450025741,0.974332368990872,1.0703830359852873,1.2223861460224725,1.262343571987003,0.0,0.0,tithe,lowwf,highbf
47,p09,47,vanru,va,an,nr,ru,v,a,n,r,u,,,1.0184683380066417,1.0824598090257496,1.2344280480174348,1.5304841449833475,1.6264237349969335,0.0,0.0,vanru,pseudo,medbf
48,p09,48,about,ab,bo,ou,ut,a,b,o,u,t,,,0.6465480179758742,0.7345514280023053,0.9425073469756171,1.4225298810051754,1.4945814540260471,0.0,0.0,about,highwf,medbf
49,p09,49,tithe,ti,it,th,he,t,i,t,h,e,,,0.8744664640398696,0.9305111379944719,1.0264894930296578,1.1304933589999564,1.1865655720466748,0.0,0.0,tithe,lowwf,highbf
50,p09,50,kremp,kr,re,em,mp,k,r,e,m,o,p,,1.2785067409859039,1.3825395230087452,1.5504974800278433,1.7344962490024045,1.9105140750179999,1.9105140750179999,0.0,kremop,pseudo,medbf
51,p09,51,haole,ha,ao,ol,le,h,a,o,l,e,,,0.8736485400004312,0.9616424979758449,1.1697211060090922,1.5936363940127194,1.6576628609909676,0.0,0.0,haole,lowwf,medbf
52,p09,52,heond,he,eo,on,nd,h,e,o,n,d,,,0.9896516220178455,1.0697066109860316,1.2536618569865823,1.4456535460194573,1.6056505300221033,0.0,0.0,heond,pseudo,highbf
53,p09,53,would,wo,ou,ul,ld,w,o,u,l,d,,,0.7781583229661919,0.8981193299987353,1.0741201909841038,1.5060842399834655,1.7781435420038179,0.0,0.0,would,highwf,medbf
54,p09,54,buddy,bu,ud,dd,dy,b,u,d,d,y,,,0.7178170279948972,1.045795957033988,1.3498085960163735,1.5098145210067742,1.5977890699869022,0.0,0.0,buddy,highwf,lowbf
55,p09,55,lucky,lu,uc,ck,ky,l,u,c,k,y,,,1.1936704450054094,1.4256698180106468,1.801663645019289,1.8736939990194514,2.2256668100017123,0.0,0.0,lucky,highwf,lowbf
56,p09,56,champ,ch,ha,am,mp,c,h,a,m,p,,,0.8857881330186501,1.0298013259889558,1.3177989510004409,1.437711632985156,1.829769945004955,0.0,0.0,champ,medwf,medbf
57,p09,57,vodka,vo,od,dk,ka,v,o,d,k,a,s,,1.1938605409814045,1.2738316649920307,1.5298844749922864,1.6498446239857003,1.7378347730264068,1.7458293900126591,0.0,vodkas,medwf,lowbf
58,p09,58,faqir,fa,aq,qi,ir,f,a,q,i,r,,,1.1810699189663865,1.3170416099601425,1.7810460709733889,1.885045958973933,2.069076618994586,0.0,0.0,faqir,lowwf,lowbf
59,p09,59,heond,he,eo,on,nd,h,e,o,n,d,,,1.0250431970343925,1.1130919410497881,1.2330447140266187,1.713089678029064,1.8011448699980974,0.0,0.0,heond,pseudo,highbf
60,p09,60,about,ab,bo,ou,ut,a,b,o,u,t,,,0.6770950299687684,0.7651096099871211,1.0050545979756862,1.2770993669983,1.3890644709463231,0.0,0.0,about,highwf,medbf
61,p09,61,belly,be,el,ll,ly,b,e,l,l,y,,,0.824946092965547,0.9129799020010978,1.0729373879730701,1.2409371209796518,1.3449440440163016,0.0,0.0,belly,medwf,medbf
62,p09,62,heond,he,eo,on,nd,h,e,o,n,d,,,0.9653471839847043,1.0372997660306282,1.1493115840130486,1.3732646760181524,1.4613193040131591,0.0,0.0,heond,pseudo,highbf
63,p09,63,pykka,py,yk,kk,ka,p,y,k,k,a,,,0.9372582869837061,1.2252077959710732,1.6252041059779003,1.761285290995147,1.8493238230003044,0.0,0.0,pykka,pseudo,lowbf
64,p09,64,cooed,co,oo,oe,ed,c,o,o,e,d,,,1.005089409998618,1.117058893025387,1.2451015890110284,1.3090611850493588,1.4851052740123123,0.0,0.0,cooed,lowwf,medbf
65,p09,65,lucky,lu,uc,ck,ky,l,u,c,k,y,,,0.8650684879976325,1.2890264140442014,1.3690762920305133,1.5050610700272955,1.7690760500263423,0.0,0.0,lucky,highwf,lowbf
66,p09,66,vodka,vo,od,dk,ka,v,o,d,k,a,,,0.9730611440027133,1.045072038017679,1.1650905939750373,1.461172089970205,1.5330615440034308,0.0,0.0,vodka,medwf,lowbf
67,p09,67,zibja,zi,ib,bj,ja,z,i,b,j,a,,,1.5209053460275754,1.600912543013692,1.832921207009349,2.304925983014982,2.376926299009938,0.0,0.0,zibja,pseudo,lowbf
68,p09,68,kremp,kr,re,em,mp,k,r,e,m,p,,,1.0128960649599321,1.2048680069856346,1.3808511630049907,1.6208504239912145,1.7969141859794036,0.0,0.0,kremp,pseudo,medbf
69,p09,69,faqir,fa,aq,qi,ir,f,a,q,i,r,,,1.1048716409713961,1.3689258009544574,1.8088754859636538,1.968924265995156,2.0968866479815915,0.0,0.0,faqir,lowwf,lowbf
70,p09,70,edthe,ed,dt,th,he,e,d,t,h,e,,,0.8611467460286804,1.07704989699414,1.3170511060161516,1.3970911690266803,1.4770862309960648,0.0,0.0,edthe,pseudo,highbf
71,p09,71,buddy,bu,ud,dd,dy,b,u,d,d,y,,,0.8890307479887269,1.081026294035837,1.30506406101631,1.4490817500045523,1.5371205279952846,0.0,0.0,buddy,highwf,lowbf
72,p09,72,faqir,fa,aq,qi,ir,f,a,q,i,r,,,1.1809619989944622,1.2610288049909286,1.453008515003603,1.6850171529804356,1.7809546689968556,0.0,0.0,faqir,lowwf,lowbf
73,p09,73,edthe,ed,dt,th,he,e,d,t,h,e,,,0.8330974549753591,1.0170302899787202,1.2410292759886943,1.3211139040067792,1.401031470973976,0.0,0.0,edthe,pseudo,highbf
74,p09,74,cooed,co,oo,oe,ed,c,o,o,e,d,,,0.7568517670151778,0.9088598359958269,1.0769069570233114,1.1248493969906121,1.3329096250236034,0.0,0.0,cooed,lowwf,medbf
75,p09,75,champ,ch,ha,am,mp,c,h,a,m,p,,,0.8887721539940685,1.0007803059997968,1.1448326780227944,1.4167785560130142,1.7368347230367362,0.0,0.0,champ,medwf,medbf
76,p09,76,vanru,va,an,nr,ru,v,a,n,r,u,,,0.8371372149558738,1.0452579929842614,1.3491877159685828,1.9651760299457237,2.1331568099558353,0.0,0.0,vanru,pseudo,medbf
77,p09,77,puppy,pu,up,pp,py,p,u,p,p,y,,,0.8092175340279937,1.0572078460245393,1.3852584160049446,1.5692616309970617,1.6812582490383647,0.0,0.0,puppy,medwf,lowbf
78,p09,78,about,ab,bo,ou,ut,a,b,o,u,t,,,0.8209306030184962,0.9169301920337602,1.140932584006805,1.5490143450442702,1.6209336360334419,0.0,0.0,about,highwf,medbf
79,p09,79,druze,dr,ru,uz,ze,d,r,u,x,e,,,1.144925917033106,1.360904723056592,1.512864652031567,1.9288390120491385,2.5609286580001935,0.0,0.0,druxe,lowwf,lowbf
80,p09,80,belly,be,el,ll,ly,b,e,l,l,y,,,0.7323306059697643,0.8122752259951085,1.0122770930174738,1.1562839989783242,1.260316790023353,0.0,0.0,belly,medwf,medbf
81,p09,81,puppy,pu,up,pp,py,p,u,p,p,y,,,0.7764017109875567,1.0484299149829894,1.3364323389832862,1.4964503219816834,1.6564136879751459,0.0,0.0,puppy,medwf,lowbf
82,p09,82,pykka,py,yk,kk,ka,p,y,k,k,a,,,0.8603747920133173,1.08433361799689,1.5003387770266272,1.6363960800226778,1.6843868650030345,0.0,0.0,pykka,pseudo,lowbf
83,p09,83,theme,th,he,em,me,t,h,e,m,e,,,0.7761137940105982,0.8880972500192001,0.9601136459968984,1.2561121250037104,1.2961688120267354,0.0,0.0,theme,medwf,highbf
84,p09,84,cheer,ch,he,ee,er,c,h,e,e,r,,,0.8041696940199472,0.9000669150264002,0.9801566699752584,1.148147590982262,1.3080944910179824,0.0,0.0,cheer,medwf,highbf
85,p09,85,pykka,py,yk,kk,ka,p,y,k,k,a,,,0.8240090500330552,1.088006692007184,1.503993480000645,1.6400322649860755,1.7039988010074012,0.0,0.0,pykka,pseudo,lowbf
86,p09,86,druze,dr,ru,uz,ze,d,r,u,z,e,,,0.9882958420203067,1.188293348008301,1.2923381970031187,1.6443646090338007,1.8443439280381426,0.0,0.0,druze,lowwf,lowbf
87,p09,87,vanru,va,an,nr,ru,v,a,n,r,u,,,0.8884093489614315,1.0485007569659501,1.1604052169714123,1.4643941160175018,1.5364473829977214,0.0,0.0,vanru,pseudo,medbf
88,p09,88,pykka,py,yk,kk,ka,p,y,k,k,a,,,0.8441392480162904,1.0920852459967136,1.4681197360041551,1.6120797119801864,1.6920985960168764,0.0,0.0,pykka,pseudo,lowbf
89,p09,89,edthe,ed,dt,th,he,e,d,t,h,e,,,0.960189089004416,1.1762090229894966,1.5041890499996953,1.5841833589947782,1.6961865249904804,0.0,0.0,edthe,pseudo,highbf
90,p09,90,lucky,lu,uc,ck,ky,l,u,c,j,y,,,1.012129791022744,1.220190818014089,1.5162437859689817,1.6361826549982652,2.1481766320066527,0.0,0.0,lucjy,highwf,lowbf
91,p09,91,theme,th,he,em,me,t,h,e,m,e,,,0.7357046590186656,0.8157355139846914,0.9197285429690965,1.215741136984434,1.2876478609978221,0.0,0.0,theme,medwf,highbf
92,p09,92,would,wo,ou,ul,ld,w,o,u,l,d,,,0.8914717840380035,1.5874538110219873,1.8434697139891796,2.131531810038723,2.3394815120263956,0.0,0.0,would,highwf,medbf
93,p09,93,belly,be,el,ll,ly,b,e,l,l,y,,,0.8303054629941471,0.9103414170094766,1.0542489200015552,1.2222534220200032,1.2702560990001075,0.0,0.0,belly,medwf,medbf
94,p09,94,tithe,ti,it,th,he,t,i,t,h,e,,,0.8829547390341759,0.9469857120420784,1.0509009710513055,1.146961064019706,1.1949595650075935,0.0,0.0,tithe,lowwf,highbf
95,p09,95,cheer,ch,he,ee,er,c,h,e,e,r,,,0.7826604839647189,0.8786394170019776,0.9586031920043752,1.1346729130018502,1.2946601489675231,0.0,0.0,cheer,medwf,highbf
96,p09,96,theme,th,he,em,me,t,h,e,m,e,,,0.73877676500706,0.8267909959540702,0.914826683991123,1.1548093159799464,1.2108196289627813,0.0,0.0,theme,medwf,highbf
97,p09,97,would,wo,ou,ul,ld,w,o,u,l,d,,,0.9106180950184353,1.0065540879731998,1.1665585929877125,1.4785612470004708,1.6946246270090342,0.0,0.0,would,highwf,medbf
98,p09,98,zibja,zi,ib,bj,ja,z,i,b,j,a,,,1.2743600910180248,1.3624312769970857,1.5703705470077693,1.77044868003577,1.8343918760074303,0.0,0.0,zibja,pseudo,lowbf
99,p09,99,theme,th,he,em,me,t,h,e,m,e,,,0.7028922709869221,0.766850785992574,0.8949190480052494,1.214949537999928,1.3588565629906952,0.0,0.0,theme,medwf,highbf
100,p09,100,edthe,ed,dt,th,he,e,d,t,h,e,,,1.1229904709616676,1.3229920140001923,1.5309930649818853,1.6030794309917837,1.7069940399960615,0.0,0.0,edthe,pseudo,highbf
101,p09,101,theme,th,he,em,me,t,h,e,m,e,,,0.7907667250256054,0.8628094249870628,0.9907612589886412,1.294837734021712,1.3667671459843405,0.0,0.0,theme,medwf,highbf
102,p09,102,vodka,vo,od,dk,ka,v,o,d,k,a,,,0.890753839048557,0.9868115910212509,1.1547544110217132,1.3787643240066245,1.4747676510014571,0.0,0.0,vodka,medwf,lowbf
103,p09,103,lucky,lu,uc,ck,ky,l,u,c,k,y,,,0.8146339390077628,1.0626254469971173,1.3746204050257802,1.502682143007405,1.7986878809751943,0.0,0.0,lucky,highwf,lowbf
104,p09,104,zibja,zi,ib,bj,ja,z,i,b,j,a,,,1.186772150977049,1.2828406839980744,1.5146085959859192,1.6986225339933299,1.7865783490124159,0.0,0.0,zibja,pseudo,lowbf
105,p09,105,there,th,he,er,re,t,h,e,r,e,,,0.9246186499949545,1.0046033259714022,1.1166622549644671,1.3566062420140952,1.732653521001339,0.0,0.0,there,highwf,highbf
106,p09,106,cheer,ch,he,ee,er,c,h,e,e,r,,,0.7702369719627313,0.8500804009963758,1.0180895089870319,1.1861286800121889,1.3540785079821944,0.0,0.0,cheer,medwf,highbf
107,p09,107,druze,dr,ru,uz,ze,d,r,u,z,e,,,1.0937927970080636,1.3178543170215562,1.4778046400169842,1.7977500159759074,2.0217825879808515,0.0,0.0,druze,lowwf,lowbf
108,p09,108,heond,he,eo,on,nd,h,e,o,n,d,,,1.042039202991873,1.114070151001215,1.2340339809888974,1.4181047869496979,1.498080088000279,0.0,0.0,heond,pseudo,highbf
109,p09,109,haole,ha,ao,ol,le,h,a,o,l,e,,,0.9421680480008945,1.0462312150048092,1.1901568659814075,1.3741570810088888,1.4381552090053447,0.0,0.0,haole,lowwf,medbf
110,p09,110,lucky,lu,uc,ck,ky,l,u,c,k,y,,,0.8820476779947057,1.1060041729942895,1.4500211899867281,1.5301066639949568,1.7140034890035167,0.0,0.0,lucky,highwf,lowbf
111,p09,111,druze,dr,ru,uz,ze,d,r,u,z,e,,,0.8301022179657593,1.02205229800893,1.118059337954037,1.4540635279845446,1.6701050569536164,0.0,0.0,druze,lowwf,lowbf
112,p09,112,think,th,hi,in,nk,t,h,i,n,k,,,0.7218741400283761,0.7939276919933036,0.9860513960011303,1.1859157140133902,1.3299305090331472,0.0,0.0,think,highwf,highbf
113,p09,113,haole,ha,ao,ol,le,h,a,o,l,e,,,0.709983294014819,0.8219585930346511,0.9259645670535974,1.1419734110240825,1.181989873002749,0.0,0.0,haole,lowwf,medbf
114,p09,114,there,th,he,er,re,t,h,e,r,e,,,0.698178694001399,0.7861292100278661,0.8661214879830368,1.058066489000339,1.210076246992685,0.0,0.0,there,highwf,highbf
115,p09,115,vodka,vo,od,dk,ka,v,o,d,k,s,a,,0.8700763650122099,0.9820176259963773,1.5980555230053142,1.6860174640314654,1.7820530770113692,1.7899692250066437,0.0,vodksa,medwf,lowbf
116,p09,116,haole,ha,ao,ol,le,h,a,o,l,e,,,0.7298756410018541,0.7938763549900614,0.9618288390338421,1.1378406240255572,1.2018959629931487,0.0,0.0,haole,lowwf,medbf
117,p09,117,there,th,he,er,re,t,h,e,r,e,,,0.7261799990083091,0.798154003045056,0.9181626950157806,1.1662288040388376,1.33415947802132,0.0,0.0,there,highwf,highbf
118,p09,118,champ,ch,ha,am,mp,c,h,a,m,p,,,0.8179235049756244,0.9299357159761712,1.041887569008395,1.2019705859711394,1.4579054010100663,0.0,0.0,champ,medwf,medbf
119,p09,119,therm,th,he,er,rm,t,h,e,r,m,,,0.7738119999994524,0.8458134579705074,0.9818701240001246,1.1818753340048715,1.3338184069725685,0.0,0.0,therm,lowwf,highbf
120,p09,120,edthe,ed,dt,th,he,e,d,t,h,e,,,1.3103564879857004,1.5342668590019457,1.758300501969643,1.846250482951291,1.9103103709639981,0.0,0.0,edthe,pseudo,highbf
121,p09,121,cooed,co,oo,oe,ed,c,o,o,e,d,,,0.8408573790220544,0.9688988350098953,1.1368618910200894,1.1849537420202978,1.3448981260298751,0.0,0.0,cooed,lowwf,medbf
122,p09,122,would,wo,ou,ul,ld,w,o,u,l,d,,,0.7093973680166528,0.8453954990254715,1.0134482490248047,1.4373920619837008,1.5093995910137892,0.0,0.0,would,highwf,medbf
123,p09,123,tithe,ti,it,th,he,t,i,t,h,e,,,0.7773623650427908,0.8972904570400715,0.9932993490365334,1.1052857910399325,1.18534363002982,0.0,0.0,tithe,lowwf,highbf
124,p09,124,champ,ch,ha,am,mp,c,h,a,m,o,,,0.7653094890411012,0.8772980210487731,0.9572398230084218,1.141238723997958,1.3412400410161354,0.0,0.0,chamo,medwf,medbf
125,p09,125,puppy,pu,up,pp,py,p,u,p,p,y,,,0.7693906290223822,1.0014151940122247,1.2893414939753711,1.4654247930156998,1.585391130996868,0.0,0.0,puppy,medwf,lowbf
126,p09,126,think,th,hi,in,nk,t,h,i,n,k,,,0.6933162880013697,0.741306281008292,0.9333117480273359,1.1093109560315497,1.2453088120091707,0.0,0.0,think,highwf,highbf
127,p09,127,vodka,vo,od,dk,ka,v,o,d,k,a,,,0.8572370850015432,0.9613203419721685,1.3613720799912699,1.5533157209865749,1.6252382730017416,0.0,0.0,vodka,medwf,lowbf
128,p09,128,druze,dr,ru,uz,ze,d,r,u,z,e,,,0.9651121210190468,1.1651008010376245,1.3730504889972508,1.6770731949945912,1.901055777037982,0.0,0.0,druze,lowwf,lowbf
129,p09,129,heond,he,eo,on,nd,h,e,o,n,d,,,0.8013344130013138,0.8893251349800266,0.9933344569872133,1.2093299350235611,1.2973447529948317,0.0,0.0,heond,pseudo,highbf
130,p09,130,therm,th,he,er,rm,t,h,e,r,m,,,0.773510534025263,0.821497933997307,0.9655462660011835,1.1335660829790868,1.2615968610043637,0.0,0.0,therm,lowwf,highbf
131,p09,131,about,ab,bo,ou,ut,a,b,o,u,t,,,0.7053518290049396,0.817363393958658,1.0333581639570184,1.3694329519639723,1.4893858869909309,0.0,0.0,about,highwf,medbf
132,p09,132,cooed,co,oo,oe,ed,c,o,o,e,d,,,0.7571414679987356,0.9091501040384173,1.077197459002491,1.1411481510149315,1.829153255035635,0.0,0.0,cooed,lowwf,medbf
133,p09,133,kremp,kr,re,em,mp,k,r,e,m,p,,,0.9369067890220322,1.048959628038574,1.2249038490117528,1.4649704360053875,1.720901357010007,0.0,0.0,kremp,pseudo,medbf
134,p09,134,haole,ha,ao,ol,le,h,a,o,l,e,,,0.7170740349683911,0.7891001359676011,0.9330761629971676,1.101088624971453,1.1810653309803456,0.0,0.0,haole,lowwf,medbf
135,p09,135,buddy,bu,ud,dd,dy,b,d,u,d,d,y,,0.7611966429976746,1.0171307199634612,2.001120403991081,2.0971128179808147,2.2491489189560525,2.3051214029546827,0.0,bduddy,highwf,lowbf
136,p09,136,zibja,zi,ib,bj,ja,z,i,b,j,a,,,1.2845525840530172,1.3565228750230744,1.5565256680129096,1.9405241230269894,1.9966204830561765,0.0,0.0,zibja,pseudo,lowbf
137,p09,137,cooed,co,oo,oe,ed,c,o,o,e,d,,,0.8003486259840429,0.9043847889988683,1.056363545008935,1.1043266269844025,1.2643256139708683,0.0,0.0,cooed,lowwf,medbf
138,p09,138,haole,ha,ao,ol,le,h,a,o,l,e,,,0.7322480230359361,0.8122025030315854,0.9561942589934915,1.1322413430316374,1.1962332940311171,0.0,0.0,haole,lowwf,medbf
139,p09,139,vanru,va,an,nr,ru,v,a,n,r,u,,,0.8406850980245508,0.9367438059998676,1.0406898889923468,1.4167010840028524,1.4726932700141333,0.0,0.0,vanru,pseudo,medbf
140,p09,140,cheer,ch,he,ee,er,c,h,e,e,r,,,0.7886059199809097,0.9806317510083318,1.0686176680028439,1.2286176250199787,1.4046035850187764,0.0,0.0,cheer,medwf,highbf
141,p09,141,faqir,fa,aq,qi,ir,f,a,q,i,r,,,1.088392483012285,1.184421640005894,1.6804021680145524,1.9444347260287032,2.06438649300253,0.0,0.0,faqir,lowwf,lowbf
142,p09,142,think,th,hi,in,nk,t,h,i,n,k,,,0.7085633929818869,0.7805886029964313,0.9725374400150031,1.1966307969996706,1.3805253310129046,0.0,0.0,think,highwf,highbf
143,p09,143,puppy,pu,up,pp,py,p,u,p,p,y,,,0.8146472279913723,1.0706227929913439,1.3265940659912303,1.5025933690485545,1.7026254599913955,0.0,0.0,puppy,medwf,lowbf
144,p09,144,edthe,ed,dt,th,he,e,d,t,h,e,,,0.7797151540289633,1.0277168960310519,1.267665465013124,1.3476838570204563,1.4197180190240033,0.0,0.0,edthe,pseudo,highbf
145,p09,145,lucky,lu,uc,ck,ky,l,u,c,k,y,,,0.7757282499806024,1.039717692998238,1.4317987299873494,1.7197765209712088,2.263716448971536,0.0,0.0,lucky,highwf,lowbf
146,p09,146,vanru,va,an,nr,ru,v,a,n,r,u,,,0.8037119529908523,0.8836786989704706,0.987706879968755,1.147675367014017,1.2756838710047305,0.0,0.0,vanru,pseudo,medbf
147,p09,147,zibja,zi,ib,bj,ja,z,i,b,j,a,,,1.1276904059923254,1.5996847589849494,1.7596573589835316,1.9916392660234123,2.0876381769776344,0.0,0.0,zibja,pseudo,lowbf
148,p09,148,cooed,co,oo,oe,ed,c,o,o,e,d,,,0.8593791489838623,0.9473621220095083,1.1154225419741124,1.1633945509674959,1.347373513970524,0.0,0.0,cooed,lowwf,medbf
149,p09,149,vanru,va,an,nr,ru,v,a,n,r,u,,,0.9599811630323529,1.1520471250405535,1.303979059041012,1.6079620210221037,1.7119943450088613,0.0,0.0,vanru,pseudo,medbf
150,p09,150,champ,ch,ha,am,mp,c,h,a,m,p,,,0.8037863390054554,0.9237810979830101,1.0038708610227332,1.1878137710154988,1.6597915950114839,0.0,0.0,champ,medwf,medbf
151,p09,151,pykka,py,yk,kk,ka,p,y,k,k,a,,,0.8638040879741311,1.1437532170093618,1.5278151279781014,1.7037552979891188,1.7757588159875013,0.0,0.0,pykka,pseudo,lowbf
152,p09,152,buddy,bu,ud,dd,dy,b,u,d,d,y,,,0.8029566149925813,1.018957604013849,1.266917711996939,1.434948907000944,1.5309839370311238,0.0,0.0,buddy,highwf,lowbf
153,p09,153,cooed,co,oo,oe,ed,c,o,o,e,d,,,0.9246218589833006,1.036620998987928,1.1806316509610042,1.2446336459834129,1.4127270989702083,0.0,0.0,cooed,lowwf,medbf
154,p09,154,theme,th,he,em,me,t,h,e,m,e,,,0.779073059966322,0.8511281439568847,0.9710290199727751,1.2510380069725215,1.3150781400036067,0.0,0.0,theme,medwf,highbf
155,p09,155,cheer,ch,he,ee,er,c,h,e,e,r,,,0.8231376650510356,0.9031978010316379,0.9991878370055929,1.1591466120444238,1.3351845390279777,0.0,0.0,cheer,medwf,highbf
156,p09,156,edthe,ed,dt,th,he,e,d,t,h,e,,,0.7941651520086452,0.9622241010074504,1.1943201420363039,1.2821802220423706,1.3541275770403445,0.0,0.0,edthe,pseudo,highbf
157,p09,157,lucky,lu,uc,ck,ky,l,u,c,k,y,,,0.9343097960227169,1.1422553170123138,1.454288696986623,1.5343025629990734,1.7902790100197308,0.0,0.0,lucky,highwf,lowbf
158,p09,158,think,th,hi,in,nk,t,h,i,n,k,,,0.7372390709933825,0.8012901890324429,0.9932925759931095,1.2092789020389318,1.4492409600061364,0.0,0.0,think,highwf,highbf
159,p09,159,lucky,lu,uc,ck,ky,l,u,c,k,u,y,,0.8594679519883357,1.0595172989997081,1.419435648014769,1.491443815000821,1.699528151017148,2.9714501179987565,0.0,luckuy,highwf,lowbf
160,p09,160,faqir,fa,aq,qi,ir,f,a,q,i,r,,,0.9616089549963363,1.017525710980408,1.4495414029806852,1.6015585529967211,1.7295588940032758,0.0,0.0,faqir,lowwf,lowbf
161,p09,161,belly,be,el,ll,ly,b,e,l,l,y,,,0.7416500520193949,1.0936714420095086,1.2697252120124176,1.4056198420003057,1.5256391059956513,0.0,0.0,belly,medwf,medbf
162,p09,162,there,th,he,er,re,t,h,e,r,e,f,,0.7376318809692748,0.7777377409511246,0.897635300992988,1.113641399948392,1.4177000609925017,1.7936440089833923,0.0,theref,highwf,highbf
163,p09,163,vodka,vo,od,dk,ka,v,o,d,k,a,,,0.893070564023219,1.005066636018455,1.4611133529688232,1.7971396070206538,1.8531151859788224,0.0,0.0,vodka,medwf,lowbf
164,p09,164,druze,dr,ru,uz,ze,d,r,u,z,e,,,0.9611969059915282,1.1289057270041667,1.272910955012776,1.5369593409704976,1.7369687379687093,0.0,0.0,druze,lowwf,lowbf
165,p09,165,there,th,he,er,re,t,h,e,r,e,,,0.6850231880089268,0.7729599809972569,0.8769648420275189,1.085009306028951,1.276965030003339,0.0,0.0,there,highwf,highbf
166,p09,166,puppy,pu,up,pp,py,p,u,p,p,y,,,0.872903557959944,1.1369176959851757,1.504934283962939,1.672904409992043,1.8089072309667245,0.0,0.0,puppy,medwf,lowbf
167,p09,167,would,wo,ou,ul,ld,w,o,u,l,d,,,0.7887659840052947,0.9567669070092961,1.1247927579679526,1.4848169710021466,1.5968220389913768,0.0,0.0,would,highwf,medbf
168,p09,168,therm,th,he,er,rm,t,h,e,r,m,,,0.9368788569699973,1.0168257719487883,1.1368684949702583,1.3048224179656245,1.4489148509455845,0.0,0.0,therm,lowwf,highbf
169,p09,169,there,th,he,er,re,t,h,e,r,e,,,0.7971767830313183,0.8691286779940128,0.9730864919838496,1.1731102840276435,1.3331335799884982,0.0,0.0,there,highwf,highbf
170,p09,170,about,ab,bo,ou,ut,a,b,o,u,t,,,0.8397578780422918,0.9518173020333052,1.159783328010235,1.6237693480215967,1.711804356018547,0.0,0.0,about,highwf,medbf
171,p09,171,pykka,py,yk,kk,ka,p,y,k,k,s,a,,1.083921283017844,1.1638797880150378,1.3398787149926648,1.4839020170038566,1.5718798270099796,1.57993860199349,0.0,pykksa,pseudo,lowbf
172,p09,172,therm,th,he,er,rm,t,h,e,r,m,,,0.7115742320311256,0.8074963130056858,0.8954985280288383,1.063584448012989,1.199609280040022,0.0,0.0,therm,lowwf,highbf
173,p09,173,would,wo,ou,ul,ld,w,o,u,l,d,,,0.7316073459805921,0.9315555329667404,1.1075066329794936,1.4675136099685915,1.563557643967215,0.0,0.0,would,highwf,medbf
174,p09,174,belly,be,el,ll,ly,b,e,l,l,y,,,0.663476983027067,0.7274772680248134,0.9195377569994889,1.0635184069979005,1.2634839399834163,0.0,0.0,belly,medwf,medbf
175,p09,175,would,wo,ou,ul,ld,w,o,u,l,d,,,0.6193394899601117,0.7633046690025367,1.0513161969720386,1.483260196982883,1.5633098969701678,0.0,0.0,would,highwf,medbf
176,p09,176,about,ab,bo,ou,ut,a,b,o,u,t,,,0.6236420199857093,0.7277445350191556,0.9516858279821463,1.1996929839951918,1.2876417210209183,0.0,0.0,about,highwf,medbf
177,p09,177,would,wo,ou,ul,ld,w,o,u,l,d,,,0.6514920349582098,0.7795291889924556,1.0115424819523469,1.3234613169915974,1.4354901689803228,0.0,0.0,would,highwf,medbf
178,p09,178,faqir,fa,aq,qi,ir,f,a,q,i,r,,,1.1035220139892772,1.1834720459883101,1.3754772499669343,1.575474208977539,1.71951112896204,0.0,0.0,faqir,lowwf,lowbf
179,p09,179,haole,ha,ao,ol,le,h,a,o,l,e,,,0.7473510240088217,0.8356318059959449,1.0114167149877176,1.1954035200178623,1.2593618530081585,0.0,0.0,haole,lowwf,medbf
180,p09,180,about,ab,bo,ou,ut,a,b,o,u,t,,,0.6635636439896189,0.7915348350070417,1.0315161080216058,1.2714688970008865,1.3834835200104862,0.0,0.0,about,highwf,medbf
181,p09,181,tithe,ti,it,th,he,t,i,t,h,e,,,0.7633215570240282,0.8994415160268545,0.9712728030281141,1.1232856700080447,1.1633074179990217,0.0,0.0,tithe,lowwf,highbf
182,p09,182,zibja,zi,ib,bj,ja,z,i,b,j,a,,,1.3109481919673271,1.3909029719652608,1.5749010340077803,1.846878743963316,1.9428984869737178,0.0,0.0,zibja,pseudo,lowbf
183,p09,183,pykka,py,yk,kk,ka,p,y,k,k,a,,,0.8516804350074381,1.1636952169938013,1.5476358499727212,1.6916534699848853,1.7797242879751138,0.0,0.0,pykka,pseudo,lowbf
184,p09,184,buddy,bu,ud,dd,dy,b,u,d,d,y,,,0.7594444360001944,0.9515903809806332,1.1995642160181887,1.3754424540093169,1.4794708639965393,0.0,0.0,buddy,highwf,lowbf
185,p09,185,lucky,lu,uc,ck,ky,l,u,c,k,y,,,0.8514192529837601,1.107362037000712,1.443379662989173,1.5553631330258213,1.8514151130220853,0.0,0.0,lucky,highwf,lowbf
186,p09,186,kremp,kr,re,em,mp,k,r,e,m,p,,,0.903477412997745,1.0152677209698595,1.191247889015358,1.3992761399713345,1.8312742200214416,0.0,0.0,kremp,pseudo,medbf
187,p09,187,lucky,lu,uc,ck,ky,l,u,c,k,y,,,0.9232037490000948,1.1472013280144893,1.4912260179989971,1.571233624999877,1.9312266469933093,0.0,0.0,lucky,highwf,lowbf
188,p09,188,kremp,kr,re,em,mp,k,r,e,m,p,,,0.8713899760041386,0.975362351979129,1.1514073539874516,1.3114196870010346,1.503411796002183,0.0,0.0,kremp,pseudo,medbf
189,p09,189,belly,be,el,ll,ly,b,e,l,l,y,,,1.0269323000102304,1.1468707110034302,1.2828792739892378,1.4668839129735716,1.6109399090055376,0.0,0.0,belly,medwf,medbf
190,p09,190,theme,th,he,em,me,t,h,e,m,e,,,0.7194780310383067,0.7995131350471638,0.9114947720081545,1.1914303700323217,1.2634863480343483,0.0,0.0,theme,medwf,highbf
191,p09,191,cheer,ch,he,ee,er,c,h,e,e,r,,,0.7555786790326238,0.8755891600158066,0.9555751060252078,1.1156176050426438,1.2835831880220212,0.0,0.0,cheer,medwf,highbf
192,p09,192,heond,he,eo,on,nd,h,o,e,o,n,d,,0.7274362819734961,0.9354786910116673,2.015425684978254,2.1114529600017704,2.2954040479962714,2.3673871040227823,0.0,hoeond,pseudo,highbf
193,p09,193,faqir,fa,aq,qi,ir,f,a,q,i,e,,,0.9387195470044389,1.0347256490495056,1.4907177209970541,1.594773326010909,1.6987622320302762,0.0,0.0,faqie,lowwf,lowbf
194,p09,194,therm,th,he,er,rm,t,h,e,r,m,,,0.7667694669798948,0.8227660899865441,0.9188150329864584,1.086812426976394,1.3188109709881246,0.0,0.0,therm,lowwf,highbf
195,p09,195,tithe,ti,it,th,he,t,i,t,h,e,,,0.9705229419632815,1.0745154090109281,1.1546456419746391,1.2745089610107243,1.3385259020142257,0.0,0.0,tithe,lowwf,highbf
196,p09,196,zibja,zi,ib,bj,ja,z,i,b,j,a,,,1.054710216994863,1.142725063022226,1.342722697998397,1.566721517010592,1.6147225929889828,0.0,0.0,zibja,pseudo,lowbf
197,p09,197,kremp,kr,re,em,mp,k,r,e,m,p,,,1.0827216749894433,1.162677625019569,1.3147484119981527,1.3948133160010912,1.5386675259796903,0.0,0.0,kremp,pseudo,medbf
198,p09,198,vodka,vo,od,dk,ka,v,o,d,k,a,,,0.9987842789851129,1.0787492839735933,1.4948027819627896,1.6467900690040551,1.7267625239910558,0.0,0.0,vodka,medwf,lowbf
199,p09,199,haole,ha,ao,ol,le,h,a,o,l,e,,,0.6979448160273023,0.7619021339924075,0.8819579179980792,1.0499243109952658,1.178024496010039,0.0,0.0,haole,lowwf,medbf
200,p09,200,champ,ch,ha,am,mp,c,h,a,m,p,o,,0.845850404992234,0.9338559750467539,1.0458832110161893,1.16595763200894,1.3498656009905972,1.3578892819932662,0.0,champo,medwf,medbf
201,p09,201,theme,th,he,em,me,t,h,e,m,e,,,0.6978932339698076,0.7779330729972571,0.9138388970168307,1.1858934289775789,1.2578375759767368,0.0,0.0,theme,medwf,highbf
202,p09,202,therm,th,he,er,rm,t,h,e,r,m,,,0.758173618989531,0.8303230269812047,0.9982542839716189,1.2381721129640937,1.3501794319599867,0.0,0.0,therm,lowwf,highbf
203,p09,203,cheer,ch,he,ee,er,c,h,e,e,r,,,0.849747019005008,0.9538093819865026,1.0337446170160547,1.2018389650038444,1.3698481949977577,0.0,0.0,cheer,medwf,highbf
204,p09,204,belly,be,el,ll,ly,b,e,l,l,y,,,0.7417473099776544,0.8377354399999604,0.9897380759939551,1.1737395079690032,1.2698336790199392,0.0,0.0,belly,medwf,medbf
205,p09,205,haole,ha,ao,ol,le,h,a,o,l,e,,,0.7300358359934762,0.8579829129739664,1.0180317880003713,1.2259920009528287,1.2979948899592273,0.0,0.0,haole,lowwf,medbf
206,p09,206,buddy,bu,ud,dd,dy,b,u,d,d,y,,,0.7820169649785385,0.9660026599885896,1.1899514429969713,1.3499620700022206,1.4459560479735956,0.0,0.0,buddy,highwf,lowbf
207,p09,207,faqir,fa,aq,qi,ir,f,a,q,i,r,,,1.137773233000189,1.2818790189921856,1.7938399689737707,1.913796551991254,2.2178239569766447,0.0,0.0,faqir,lowwf,lowbf
208,p09,208,kremp,kr,re,em,mp,k,r,e,m,p,,,0.941975993977394,1.0380299339885823,1.1899628959945403,1.3259713599691167,1.630024723999668,0.0,0.0,kremp,pseudo,medbf
209,p09,209,druze,dr,ru,uz,ze,d,r,u,z,e,,,0.9140559370280243,1.1220755760441534,1.4980583669967018,1.602061229001265,1.8340544490492903,0.0,0.0,druze,lowwf,lowbf
210,p09,210,about,ab,bo,ou,ut,a,b,o,u,t,,,0.7820331049733795,0.8459923199843615,1.061983119987417,1.333935604954604,1.4300320069887675,0.0,0.0,about,highwf,medbf
211,p09,211,zibja,zi,ib,bj,ja,z,i,b,j,a,,,1.3700451540062204,1.4820147680002265,1.6660042249714024,2.049960286996793,2.1539477889891714,0.0,0.0,zibja,pseudo,lowbf
212,p09,212,druze,dr,ru,uz,ze,d,r,u,z,e,,,1.1019249749951996,1.293944176984951,1.4539238129509613,1.6538875479600392,1.8859480939572677,0.0,0.0,druze,lowwf,lowbf
213,p09,213,pykka,py,yk,kk,ka,p,y,k,k,a,,,0.8977455330314115,1.2257577200070955,1.6257705260068178,1.7778307760017924,1.8737530140206218,0.0,0.0,pykka,pseudo,lowbf
214,p09,214,heond,he,eo,on,nd,h,r,o,e,o,n,d,0.7340666039963253,0.8540672209928744,0.942102751985658,2.1100867959903553,2.206072953005787,2.35806371999206,2.4460651089902967,hroeond,pseudo,highbf
215,p09,215,puppy,pu,up,pp,py,p,u,p,p,y,,,0.7532811790006235,0.9932497759582475,1.3932416239986196,1.5533131179981865,1.6252281949855387,0.0,0.0,puppy,medwf,lowbf
216,p09,216,druze,dr,ru,uz,ze,d,r,u,z,e,,,0.8611502930289134,1.0531587890000083,1.34109228302259,1.4371478880057111,1.661194617045112,0.0,0.0,druze,lowwf,lowbf
217,p09,217,heond,he,eo,on,nd,h,e,o,n,d,,,0.872820666001644,1.0008939399849623,1.0728275990113616,1.2489362880005501,1.3048264679964632,0.0,0.0,heond,pseudo,highbf
218,p09,218,theme,th,he,em,me,t,h,e,m,e,,,0.77336358895991,0.8534719979506917,1.0293735769810155,1.3413689939770848,1.4213697519735433,0.0,0.0,theme,medwf,highbf
219,p09,219,buddy,bu,ud,dd,dy,b,u,d,d,y,,,0.7932825139723718,0.98532769898884,1.3293097449932247,1.5133829800179228,1.6012699279817753,0.0,0.0,buddy,highwf,lowbf
220,p09,220,champ,ch,ha,am,mp,c,h,a,m,p,,,0.9411796710337512,1.093169988016598,1.3411404030048288,1.4931670060032047,1.9171475120238028,0.0,0.0,champ,medwf,medbf
221,p09,221,heond,he,eo,on,nd,h,e,o,n,d,,,0.7772329000290483,0.9132467400049791,0.9932183380005881,1.16926448099548,1.2811971350456588,0.0,0.0,heond,pseudo,highbf
222,p09,222,there,th,he,er,re,t,h,e,r,e,,,0.781222420046106,0.8532870770432055,0.9572187080048025,1.1891787300119177,1.5171886950265616,0.0,0.0,there,highwf,highbf
223,p09,223,vodka,vo,od,dk,ka,v,o,d,k,a,,,0.9850936730508693,1.089044210035354,1.3770448040449992,1.8090462390100583,1.8890587170026265,0.0,0.0,vodka,medwf,lowbf
224,p09,224,vanru,va,an,nr,ru,v,a,n,r,u,,,0.9648600000073202,1.1088101550121792,1.2368549410020933,1.3968012160039507,1.4928160540293902,0.0,0.0,vanru,pseudo,medbf
225,p09,225,think,th,hi,in,nk,t,h,i,n,k,,,0.6733197839930654,0.7533367259893566,0.9292869209893979,1.1133236829773523,1.281281249015592,0.0,0.0,think,highwf,highbf
226,p09,226,champ,ch,ha,am,mp,c,h,a,m,p,,,0.7733158290502615,0.9493632970261388,1.0534143820405006,1.2853748260531574,1.5813099350198172,0.0,0.0,champ,medwf,medbf
227,p09,227,theme,th,he,em,me,t,h,e,m,e,,,0.6251891319989227,0.6731591809657402,0.7852172589628026,0.9772054720087908,1.017168265010696,0.0,0.0,theme,medwf,highbf
228,p09,228,vodka,vo,od,dk,ka,v,o,d,k,a,,,0.9329845479805954,1.0529564230237156,1.1249174749827944,1.3729034059797414,1.4849536779802293,0.0,0.0,vodka,medwf,lowbf
229,p09,229,edthe,ed,dt,th,he,e,f,t,h,e,,,0.8012184380204417,1.1132172620273195,1.3132620640099049,1.4011839990271255,1.4731617820216343,0.0,0.0,efthe,pseudo,highbf
230,p09,230,tithe,ti,it,th,he,t,i,t,h,e,,,0.7164624989964068,0.7884383620112203,0.8924519440042786,0.9724298110231757,1.044494465983007,0.0,0.0,tithe,lowwf,highbf
231,p09,231,there,th,he,er,re,t,h,e,r,e,,,0.6883047110168263,0.7603074599755928,0.8803257719846442,1.0723020959994756,1.2483521180110984,0.0,0.0,there,highwf,highbf
232,p09,232,vanru,va,an,nr,ru,v,a,n,r,u,,,0.7643389229779132,0.9163404619903304,1.0763532469864003,1.3083593889605254,1.4123369589797221,0.0,0.0,vanru,pseudo,medbf
233,p09,233,belly,be,el,ll,ly,b,e,l,l,y,,,0.6311706620035693,0.7191436149878427,0.9030848539550789,1.0870859369751997,1.1671412540017627,0.0,0.0,belly,medwf,medbf
234,p09,234,cheer,ch,he,ee,er,c,h,e,e,r,,,1.2038092620205134,1.2998142160358839,1.3638671380467713,1.531817225040868,1.6997539370204322,0.0,0.0,cheer,medwf,highbf
235,p09,235,think,th,hi,in,nk,h,t,i,n,k,,,0.8236379729933105,1.2637498689582571,1.4796895170002244,1.6796707100002095,1.8157004829845391,0.0,0.0,htink,highwf,highbf
236,p09,236,edthe,ed,dt,th,he,e,d,t,h,e,,,0.7870789099833928,1.003136479004752,1.3151863149832934,1.3951486559817567,1.4751147109782323,0.0,0.0,edthe,pseudo,highbf
237,p09,237,pykka,py,yk,kk,ka,p,y,k,k,a,,,0.8151490100426599,1.0871593580232002,1.375119872041978,1.5351411580340937,1.6550928060314618,0.0,0.0,pykka,pseudo,lowbf
238,p09,238,tithe,ti,it,th,he,t,i,t,h,e,,,0.6670899799792096,0.7790705710067414,0.859078434004914,1.0991176289971918,1.2111563819926232,0.0,0.0,tithe,lowwf,highbf
239,p09,239,puppy,pu,up,pp,py,p,u,p,p,y,,,0.9429510780028068,1.2069857000024058,1.5429423890309408,1.6949601260130294,1.863008729997091,0.0,0.0,puppy,medwf,lowbf
