string,corrAns,practice_trials.thisRepN,practice_trials.thisTrialN,practice_trials.thisN,practice_trials.thisIndex,trials_1.thisRepN,trials_1.thisTrialN,trials_1.thisN,trials_1.thisIndex,trials_2.thisRepN,trials_2.thisTrialN,trials_2.thisN,trials_2.thisIndex,key_resp_0.keys,key_resp_0.corr,key_resp_0.rt,text_1.started,text_1.stopped,key_resp_1.keys,key_resp_1.corr,key_resp_1.rt,key_resp_1.started,key_resp_1.stopped,sound_1A_1.started,sound_1A_1.stopped,break_time.started,break_time.stopped,text_2.started,text_2.stopped,key_resp_2.keys,key_resp_2.corr,key_resp_2.rt,key_resp_2.started,key_resp_2.stopped,sound_1A_2.started,sound_1A_2.stopped,participant,session,date,expName,psychopyVersion,frameRate,
fresh,fresh,0,0,0,0,,,,,,,,,"['f', 'r', 'e', 'c', 'h']",0,"[1.3750860458239913, 1.519217689987272, 1.8470838880166411, 2.3591742580756545, 2.4871554817073047]",,,,,,,,,,,,,,,,,,,,,s20_09012022,001,2022_Sep_01_1549,test_typingtask_norepeats,2020.2.10,60.04227629135067,
dream,dream,0,1,1,1,,,,,,,,,"['d', 'r', 'e', 'a', 'm']",1,"[1.3477846188470721, 1.5398897947743535, 1.6279503926634789, 1.883786790072918, 2.051812218967825]",,,,,,,,,,,,,,,,,,,,,s20_09012022,001,2022_Sep_01_1549,test_typingtask_norepeats,2020.2.10,60.04227629135067,
slime,slime,0,2,2,2,,,,,,,,,"['s', 'l', 'i', 'm', 'e']",1,"[1.2713718651793897, 1.3753964230418205, 1.4473681664094329, 1.655271027237177, 1.7512516872957349]",,,,,,,,,,,,,,,,,,,,,s20_09012022,001,2022_Sep_01_1549,test_typingtask_norepeats,2020.2.10,60.04227629135067,
druze,druze,,,,,0,0,0,0,,,,,,,,143.4512919089757,None,"['d', 'r', 'u', 'z', 'e']",1,"[1.2208512569777668, 1.3728516311384737, 1.6769520621746778, 1.8129204702563584, 2.0049176602624357]",143.4512919089757,None,143.4430601697415,143.54362970311195,,,,,,,,,,,,s20_09012022,001,2022_Sep_01_1549,test_typingtask_norepeats,2020.2.10,60.04227629135067,
tithe,tithe,,,,,0,1,1,1,,,,,,,,148.94296770635992,None,"['t', 'i', 't', 'h', 'e']",1,"[0.9612997802905738, 1.217166314367205, 1.345258956309408, 1.6892328141257167, 1.8571952902711928]",148.94296770635992,None,148.94300086311995,149.0427470970899,,,,,,,,,,,,s20_09012022,001,2022_Sep_01_1549,test_typingtask_norepeats,2020.2.10,60.04227629135067,
lucky,lucky,,,,,0,2,2,2,,,,,,,,154.443002555985,None,"['l', 'u', 'c', 'k', 'y']",1,"[1.2052485877647996, 1.4212156161665916, 1.7811362179927528, 1.9171265307813883, 2.285235858988017]",154.443002555985,None,154.44298910889773,154.54286946821958,,,,,,,,,,,,s20_09012022,001,2022_Sep_01_1549,test_typingtask_norepeats,2020.2.10,60.04227629135067,
cooed,cooed,,,,,0,3,3,3,,,,,,,,159.94306055037305,None,"['c', 'o', 'o', 'e', 'd']",1,"[1.0331642902456224, 1.28107794187963, 1.4010767759755254, 1.5052290610037744, 1.6731471130624413]",159.94306055037305,None,159.94297956004738,160.04323620116338,,,,,,,,,,,,s20_09012022,001,2022_Sep_01_1549,test_typingtask_norepeats,2020.2.10,60.04227629135067,
lucky,lucky,,,,,0,4,4,4,,,,,,,,165.44312064535916,None,"['l', 'u', 'c', 'k', 'y']",1,"[1.5251647396944463, 1.7810343806631863, 2.2210175027139485, 2.4610612569376826, 2.669085531961173]",165.44312064535916,None,165.44300014413892,165.54302448034286,,,,,,,,,,,,s20_09012022,001,2022_Sep_01_1549,test_typingtask_norepeats,2020.2.10,60.04227629135067,
would,would,,,,,0,5,5,5,,,,,,,,170.94327464094386,None,"['w', 'o', 'u', 'l', 'f']",0,"[1.112951731774956, 1.2409793571569026, 1.3049815529957414, 1.5208470509387553, 1.6489607691764832]",170.94327464094386,None,170.94314855691044,171.04299535695463,,,,,,,,,,,,s20_09012022,001,2022_Sep_01_1549,test_typingtask_norepeats,2020.2.10,60.04227629135067,
think,think,,,,,0,6,6,6,,,,,,,,176.44298095116392,None,"['t', 'h', 'i', 'n', 'k']",1,"[1.2132466132752597, 1.2931586899794638, 1.4371973942033947, 1.6372229009866714, 1.7971923439763486]",176.44298095116392,None,176.4429805039428,176.54284474113956,,,,,,,,,,,,s20_09012022,001,2022_Sep_01_1549,test_typingtask_norepeats,2020.2.10,60.04227629135067,
cooed,cooed,,,,,0,7,7,7,,,,,,,,181.9429717073217,None,"['c', 'o', 'o', 'e', 'd']",1,"[0.9771470110863447, 1.209257906768471, 1.3372692167758942, 1.4332089577801526, 1.6332521317526698]",181.9429717073217,None,181.94301600083708,182.04329953994602,,,,,,,,,,,,s20_09012022,001,2022_Sep_01_1549,test_typingtask_norepeats,2020.2.10,60.04227629135067,
faqir,faqir,,,,,0,8,8,8,,,,,,,,187.44275076501071,None,"['f', 'a', 'q']",0,"[1.3735068910755217, 1.677346719428897, 2.7013702411204576]",187.44275076501071,None,187.44281531479209,187.54281247314066,,,,,,,,,,,,s20_09012022,001,2022_Sep_01_1549,test_typingtask_norepeats,2020.2.10,60.04227629135067,
druze,druze,,,,,0,9,9,9,,,,,,,,192.94287389004603,None,"['d', 'r', 'u', 'z', 'e', 'w']",0,"[1.1133892009966075, 1.3133619162254035, 1.5293198032304645, 1.7053234349004924, 1.8893056302331388, 1.8973312508314848]",192.94287389004603,None,192.94283753894268,193.04289174219593,,,,,,,,,,,,s20_09012022,001,2022_Sep_01_1549,test_typingtask_norepeats,2020.2.10,60.04227629135067,
zibja,zibja,,,,,0,10,10,10,,,,,,,,198.4432610552758,None,"['z', 'i', 'b', 'j', 'a']",1,"[1.2449475838802755, 1.3808989617973566, 1.5888844728469849, 1.9329850957728922, 2.004978341050446]",198.4432610552758,None,198.44307111976667,198.5434317230247,,,,,,,,,,,,s20_09012022,001,2022_Sep_01_1549,test_typingtask_norepeats,2020.2.10,60.04227629135067,
think,think,,,,,0,11,11,11,,,,,,,,203.94297764310613,None,"['t', 'h', 'i', 'n', 'k']",1,"[1.0652608899399638, 1.1291604209691286, 1.3212813097052276, 1.5212323879823089, 1.6811653296463192]",203.94297764310613,None,203.9430391088128,204.0428416649811,,,,,,,,,,,,s20_09012022,001,2022_Sep_01_1549,test_typingtask_norepeats,2020.2.10,60.04227629135067,
zibja,zibja,,,,,0,12,12,12,,,,,,,,209.44302949123085,None,"['z', 'i', 'b', 'j', 'a']",1,"[1.1331141008995473, 1.2051018588244915, 1.501105584204197, 1.933191908057779, 1.9971893820911646]",209.44302949123085,None,209.4426596446894,209.54264437919483,,,,,,,,,,,,s20_09012022,001,2022_Sep_01_1549,test_typingtask_norepeats,2020.2.10,60.04227629135067,
there,there,,,,,0,13,13,13,,,,,,,,214.9433297831565,None,"['t', 'h', 'e', 'r', 'e']",1,"[0.8809019881300628, 0.9608441619202495, 1.1369308922439814, 1.328873768914491, 1.416800505015999]",214.9433297831565,None,214.94285405268892,215.04326583491638,,,,,,,,,,,,s20_09012022,001,2022_Sep_01_1549,test_typingtask_norepeats,2020.2.10,60.04227629135067,
lucky,lucky,,,,,0,14,14,14,,,,,,,,220.44310235092416,None,"['l', 'u', 'c', 'k', 'y']",1,"[0.973113392945379, 1.2930363100022078, 1.7091099410317838, 1.8291124277748168, 2.053145662881434]",220.44310235092416,None,220.44297367595135,220.5433063833043,,,,,,,,,,,,s20_09012022,001,2022_Sep_01_1549,test_typingtask_norepeats,2020.2.10,60.04227629135067,
vodka,vodka,,,,,0,15,15,15,,,,,,,,225.9429764840752,None,"['v', 'o', 'd', 'k', 'a']",1,"[1.2652236092835665, 1.4412796669639647, 1.8972276062704623, 2.2333784862421453, 2.329187504015863]",225.9429764840752,None,225.94310629395767,226.0428916560486,,,,,,,,,,,,s20_09012022,001,2022_Sep_01_1549,test_typingtask_norepeats,2020.2.10,60.04227629135067,
champ,champ,,,,,0,16,16,16,,,,,,,,231.443078098353,None,"['c', 'h', 'a', 'm', 'p']",1,"[1.077037916984409, 1.229086082894355, 1.3890464790165424, 1.5331505849026144, 1.8371229385957122]",231.443078098353,None,231.44323202576487,231.5429154331796,,,,,,,,,,,,s20_09012022,001,2022_Sep_01_1549,test_typingtask_norepeats,2020.2.10,60.04227629135067,
belly,belly,,,,,0,17,17,17,,,,,,,,236.943168933969,None,"['b', 'e', 'l', 'l', 'y']",1,"[0.8890327708795667, 1.008960846811533, 1.441085937898606, 1.6009507812559605, 1.8650677450932562]",236.943168933969,None,236.94305253708734,237.04320939211175,,,,,,,,,,,,s20_09012022,001,2022_Sep_01_1549,test_typingtask_norepeats,2020.2.10,60.04227629135067,
cheer,cheer,,,,,0,18,18,18,,,,,,,,242.44325221329927,None,"['c', 'h', 'e', 'e', 'r']",1,"[0.8289000899530947, 0.9809158821590245, 1.1489522634074092, 1.3008782612159848, 1.388952606357634]",242.44325221329927,None,242.4430896987207,242.543267223984,,,,,,,,,,,,s20_09012022,001,2022_Sep_01_1549,test_typingtask_norepeats,2020.2.10,60.04227629135067,
therm,therm,,,,,0,19,19,19,,,,,,,,247.94341560220346,None,"['t', 'h', 'e', 'r', 'e']",0,"[0.8087945133447647, 0.9448148743249476, 1.0728098209947348, 1.1448267372325063, 1.3448218433186412]",247.94341560220346,None,247.94348607705905,248.04325666325167,,,,,,,,,,,,s20_09012022,001,2022_Sep_01_1549,test_typingtask_norepeats,2020.2.10,60.04227629135067,
vodka,vodka,,,,,0,20,20,20,,,,,,,,253.44302418315783,None,"['v', 'o', 'd', 'k', 'a']",1,"[1.1332136946730316, 1.309201237745583, 2.0611217180266976, 2.1971762399189174, 2.3091712836176157]",253.44302418315783,None,253.44318942194803,253.54337086435407,,,,,,,,,,,,s20_09012022,001,2022_Sep_01_1549,test_typingtask_norepeats,2020.2.10,60.04227629135067,
heond,heond,,,,,0,21,21,21,,,,,,,,258.94305683812127,None,"['h', 'e', 'o', 'n']",0,"[1.3371540741063654, 1.4491439182311296, 1.697165884077549, 1.9930853452533484]",258.94305683812127,None,258.9431826177053,259.0430841469206,,,,,,,,,,,,s20_09012022,001,2022_Sep_01_1549,test_typingtask_norepeats,2020.2.10,60.04227629135067,
theme,theme,,,,,0,22,22,22,,,,,,,,264.44308239221573,None,"['t', 'h', 'e', 'm', 'e']",1,"[0.8290557377040386, 0.9411865547299385, 1.085158471018076, 1.3011004948057234, 1.4451840948313475]",264.44308239221573,None,264.4430552029982,264.54312867997214,,,,,,,,,,,,s20_09012022,001,2022_Sep_01_1549,test_typingtask_norepeats,2020.2.10,60.04227629135067,
edthe,edthe,,,,,0,23,23,23,,,,,,,,269.94304830627516,None,"['e', 'd', 't', 'h', 'e']",1,"[1.1851658709347248, 1.3531538951210678, 1.5691916919313371, 1.6730896648950875, 1.7770722131244838]",269.94304830627516,None,269.9429400808178,270.04310741694644,,,,,,,,,,,,s20_09012022,001,2022_Sep_01_1549,test_typingtask_norepeats,2020.2.10,60.04227629135067,
about,about,,,,,0,24,24,24,,,,,,,,275.44308097613975,None,"['a', 'b', 'o', 'u', 't']",1,"[0.933149001095444, 1.0371743272989988, 1.3491628281772137, 1.4131069122813642, 1.5890589291229844]",275.44308097613975,None,275.44317584279923,275.54300932213664,,,,,,,,,,,,s20_09012022,001,2022_Sep_01_1549,test_typingtask_norepeats,2020.2.10,60.04227629135067,
champ,champ,,,,,0,25,25,25,,,,,,,,280.9431054852903,None,"['c', 'h', 'a', 'm', 'o']",0,"[0.9770178711041808, 1.097133839968592, 1.2490963842719793, 1.393034626264125, 1.5690609170123935]",280.9431054852903,None,280.94306335672735,281.0431204009801,,,,,,,,,,,,s20_09012022,001,2022_Sep_01_1549,test_typingtask_norepeats,2020.2.10,60.04227629135067,
lucky,lucky,,,,,0,26,26,26,,,,,,,,286.44303001323715,None,"['l', 'u', 'c', 'k', 'y']",1,"[1.5491296788677573, 1.7811294817365706, 1.941170888952911, 2.1011029789224267, 2.357226031832397]",286.44303001323715,None,286.44296686192973,286.54323819605634,,,,,,,,,,,,s20_09012022,001,2022_Sep_01_1549,test_typingtask_norepeats,2020.2.10,60.04227629135067,
edthe,edthe,,,,,0,27,27,27,,,,,,,,291.9431774490513,None,"['e', 'd', 't', 'h', 'e']",1,"[1.2490230067633092, 1.4730761358514428, 1.7450394597835839, 1.8809798448346555, 1.9690368720330298]",291.9431774490513,None,291.9431235369295,292.04317622911185,,,,,,,,,,,,s20_09012022,001,2022_Sep_01_1549,test_typingtask_norepeats,2020.2.10,60.04227629135067,
buddy,buddy,,,,,0,28,28,28,,,,,,,,297.44326409325004,None,"['b', 'e', 'd', 'd', 'y']",0,"[0.8848772970959544, 1.004994407761842, 1.9649179801344872, 2.0849741641432047, 2.2768570091575384]",297.44326409325004,None,297.44323925888165,297.5433400142938,,,,,,,,,,,,s20_09012022,001,2022_Sep_01_1549,test_typingtask_norepeats,2020.2.10,60.04227629135067,
vodka,vodka,,,,,0,29,29,29,,,,,,,,302.94324995717034,None,"['v', 'o', 'd', 'k', 'a']",1,"[1.040880074724555, 1.2009012890048325, 1.6088824938051403, 1.760985029861331, 1.8809045879170299]",302.94324995717034,None,302.9431600787677,303.0430050101131,,,,,,,,,,,,s20_09012022,001,2022_Sep_01_1549,test_typingtask_norepeats,2020.2.10,60.04227629135067,
think,think,,,,,0,30,30,30,,,,,,,,308.4432452963665,None,"['t', 'h', 'i', 'n', 'k']",1,"[0.8529791026376188, 0.9410170158371329, 1.1329761450178921, 1.2928967447951436, 1.4530060486868024]",308.4432452963665,None,308.44311789590864,308.543095161207,,,,,,,,,,,,s20_09012022,001,2022_Sep_01_1549,test_typingtask_norepeats,2020.2.10,60.04227629135067,
belly,belly,,,,,0,31,31,31,,,,,,,,313.9431310221553,None,"['b', 'e', 'l', 'l', 'y']",1,"[0.8330584699288011, 0.9609833117574453, 1.3290721429511905, 1.5130020240321755, 1.7450952478684485]",313.9431310221553,None,313.94319048412143,314.0430974592455,,,,,,,,,,,,s20_09012022,001,2022_Sep_01_1549,test_typingtask_norepeats,2020.2.10,60.04227629135067,
lucky,lucky,,,,,0,32,32,32,,,,,,,,319.44319248199463,None,"['l', 'u', 'c', 'k', 'y']",1,"[0.8530343030579388, 1.125062317121774, 1.6450049220584333, 1.7730777119286358, 2.012932031881064]",319.44319248199463,None,319.443209769018,319.5433483822271,,,,,,,,,,,,s20_09012022,001,2022_Sep_01_1549,test_typingtask_norepeats,2020.2.10,60.04227629135067,
kremp,kremp,,,,,0,33,33,33,,,,,,,,324.94392480514944,None,"['k', 'r', 'e', 'm', 'p']",1,"[1.3683173903264105, 1.440271407365799, 1.5921994904056191, 1.8323074681684375, 2.0243269549682736]",324.94392480514944,None,324.94326623091473,325.04347893735394,,,,,,,,,,,,s20_09012022,001,2022_Sep_01_1549,test_typingtask_norepeats,2020.2.10,60.04227629135067,
haole,haole,,,,,0,34,34,34,,,,,,,,330.4432451543398,None,"['h', 'a', 'o', 'l', 'e']",1,"[1.0048924670554698, 1.5330001069232821, 1.6608820529654622, 1.821014665067196, 1.9329525027424097]",330.4432451543398,None,330.44324613297357,330.5433055232279,,,,,,,,,,,,s20_09012022,001,2022_Sep_01_1549,test_typingtask_norepeats,2020.2.10,60.04227629135067,
druze,druze,,,,,0,35,35,35,,,,,,,,335.94318258808926,None,"['d', 'r', 'u', 'z', 'e']",1,"[1.3690622802823782, 1.5050653498619795, 1.7210326050408185, 1.8729490749537945, 2.0570625462569296]",335.94318258808926,None,335.9434320268221,336.04346089810133,,,,,,,,,,,,s20_09012022,001,2022_Sep_01_1549,test_typingtask_norepeats,2020.2.10,60.04227629135067,
puppy,puppy,,,,,0,36,36,36,,,,,,,,341.4431123742834,None,"['p', 'u', 'p', 'p', 'y']",1,"[0.8290453529916704, 1.2371322070248425, 1.8930067480541766, 2.045123974326998, 2.3811014271341264]",341.4431123742834,None,341.44292402900754,341.5434100809507,,,,,,,,,,,,s20_09012022,001,2022_Sep_01_1549,test_typingtask_norepeats,2020.2.10,60.04227629135067,
heond,heond,,,,,0,37,37,37,,,,,,,,346.9432921009138,None,"['h', 'e', 'o', 'n', 'd']",1,"[1.1209308598190546, 1.2489409176632762, 1.4728511557914317, 1.7288742866367102, 1.8889065547846258]",346.9432921009138,None,346.9432470140047,347.0433267680928,,,,,,,,,,,,s20_09012022,001,2022_Sep_01_1549,test_typingtask_norepeats,2020.2.10,60.04227629135067,
therm,therm,,,,,0,38,38,38,,,,,,,,352.4433282651007,None,"['t', 'h', 'e', 'm', 'r']",0,"[0.8448974592611194, 0.9409252922050655, 1.084854390937835, 1.3087966651655734, 1.9889262979850173]",352.4433282651007,None,352.44299467308446,352.5431036702357,,,,,,,,,,,,s20_09012022,001,2022_Sep_01_1549,test_typingtask_norepeats,2020.2.10,60.04227629135067,
champ,champ,,,,,0,39,39,39,,,,,,,,357.9433968970552,None,"['c', 'h', 'a', 'm', 'p']",1,"[0.9128105151467025, 1.0568105829879642, 1.232841453049332, 1.360741482116282, 1.5528175169602036]",357.9433968970552,None,357.94345230171456,358.0435001743026,,,,,,,,,,,,s20_09012022,001,2022_Sep_01_1549,test_typingtask_norepeats,2020.2.10,60.04227629135067,
theme,theme,,,,,0,40,40,40,,,,,,,,363.44326178496704,None,"['t', 'h', 'e', 'm', 'e']",1,"[0.8289972739294171, 0.9168604989536107, 1.0768627459183335, 1.2209460120648146, 1.3569415342062712]",363.44326178496704,None,363.44306449573486,363.5432353829965,,,,,,,,,,,,s20_09012022,001,2022_Sep_01_1549,test_typingtask_norepeats,2020.2.10,60.04227629135067,
puppy,puppy,,,,,0,41,41,41,,,,,,,,368.9430566262454,None,"['p', 'u', 'p', 'p', 'y']",1,"[1.073139508254826, 1.3211726192384958, 1.5452122171409428, 1.6811216659843922, 1.8650857452303171]",368.9430566262454,None,368.94337201891466,369.0431359242648,,,,,,,,,,,,s20_09012022,001,2022_Sep_01_1549,test_typingtask_norepeats,2020.2.10,60.04227629135067,
think,think,,,,,0,42,42,42,,,,,,,,374.44328682497144,None,"['t', 'h', 'i', 'n', 'k']",1,"[0.9088550349697471, 0.9969309689477086, 1.1489167879335582, 1.3089142329990864, 1.4768533972091973]",374.44328682497144,None,374.44342211103066,374.54305697605014,,,,,,,,,,,,s20_09012022,001,2022_Sep_01_1549,test_typingtask_norepeats,2020.2.10,60.04227629135067,
heond,heond,,,,,0,43,43,43,,,,,,,,379.9434270532802,None,"['h', 'e', 'o', 'n', 'd']",1,"[0.8727771118283272, 0.9687006156891584, 1.280749849975109, 1.5847825510427356, 1.7127543990500271]",379.9434270532802,None,379.9431686799973,380.04322270397097,,,,,,,,,,,,s20_09012022,001,2022_Sep_01_1549,test_typingtask_norepeats,2020.2.10,60.04227629135067,
belly,belly,,,,,0,44,44,44,,,,,,,,385.44344518426806,None,"['b', 'e', 'l', 'l', 'y']",1,"[0.820800730958581, 0.9647346762940288, 1.1406896351836622, 1.2926972769200802, 1.5166868562810123]",385.44344518426806,None,385.4433064668439,385.5433332049288,,,,,,,,,,,,s20_09012022,001,2022_Sep_01_1549,test_typingtask_norepeats,2020.2.10,60.04227629135067,
druze,druze,,,,,0,45,45,45,,,,,,,,390.9433390670456,None,"['d', 'r', 'u', 'z', 'e']",1,"[1.2567900139838457, 1.368898421060294, 1.6087918812409043, 1.7529020812362432, 1.9449081989005208]",390.9433390670456,None,390.9433198248036,391.04345304798335,,,,,,,,,,,,s20_09012022,001,2022_Sep_01_1549,test_typingtask_norepeats,2020.2.10,60.04227629135067,
heond,heond,,,,,0,46,46,46,,,,,,,,396.4432994509116,None,"['h', 'e', 'o', 'n', 'd']",1,"[0.9088592547923326, 1.0289397449232638, 1.2768498118966818, 1.5328989876434207, 1.6768308659084141]",396.4432994509116,None,396.4433285168372,396.54340546019375,,,,,,,,,,,,s20_09012022,001,2022_Sep_01_1549,test_typingtask_norepeats,2020.2.10,60.04227629135067,
buddy,buddy,,,,,0,47,47,47,,,,,,,,401.9433257682249,None,"['b', 'u', 'd', 'd', 'y']",1,"[0.8088066624477506, 0.976878697052598, 1.5848405612632632, 1.7209039563313127, 1.8088308172300458]",401.9433257682249,None,401.9432149867527,402.04331642901525,,,,,,,,,,,,s20_09012022,001,2022_Sep_01_1549,test_typingtask_norepeats,2020.2.10,60.04227629135067,
there,there,,,,,0,48,48,48,,,,,,,,407.44319741707295,None,"['t', 'h', 'e', 'r', 'e']",1,"[0.7249347609467804, 0.8289554221555591, 0.9329969589598477, 0.9970475328154862, 1.1730571719817817]",407.44319741707295,None,407.44315701192244,407.5432488373481,,,,,,,,,,,,s20_09012022,001,2022_Sep_01_1549,test_typingtask_norepeats,2020.2.10,60.04227629135067,
kremp,kremp,,,,,0,49,49,49,,,,,,,,412.9432332739234,None,"['k', 'r', 'e', 'p', 'm']",0,"[1.672895897179842, 1.7688906360417604, 1.8970074229873717, 2.112936826888472, 2.5849850801751018]",412.9432332739234,None,412.94326508771627,413.0434034601785,,,,,,,,,,,,s20_09012022,001,2022_Sep_01_1549,test_typingtask_norepeats,2020.2.10,60.04227629135067,
haole,haole,,,,,0,50,50,50,,,,,,,,418.44338344130665,None,"['h', 'a', 'l', 'o', 'e']",0,"[1.0767410472035408, 1.604879428166896, 1.764795830938965, 1.9647538620047271, 2.1728613898158073]",418.44338344130665,None,418.443318580091,418.54338769894093,,,,,,,,,,,,s20_09012022,001,2022_Sep_01_1549,test_typingtask_norepeats,2020.2.10,60.04227629135067,
faqir,faqir,,,,,0,51,51,51,,,,,,,,423.94336741324514,None,"['f', 'a', 'q', 'i', 'r']",1,"[1.280793343205005, 1.3848098330199718, 1.928780488204211, 2.0488731833174825, 2.176763982977718]",423.94336741324514,None,423.9434083879925,424.0432780319825,,,,,,,,,,,,s20_09012022,001,2022_Sep_01_1549,test_typingtask_norepeats,2020.2.10,60.04227629135067,
pykka,pykka,,,,,0,52,52,52,,,,,,,,429.44328444032,None,"['p', 'y', 'k', 'k', 'a']",1,"[1.5248499661684036, 1.8928574840538204, 2.7489590952172875, 2.8768383120186627, 2.9008485381491482]",429.44328444032,None,429.44315977701916,429.5433334829286,,,,,,,,,,,,s20_09012022,001,2022_Sep_01_1549,test_typingtask_norepeats,2020.2.10,60.04227629135067,
about,about,,,,,0,53,53,53,,,,,,,,434.943509218283,None,"['a', 'b', 'o', 'u', 't']",1,"[0.8086764863692224, 0.9126733150333166, 1.168655657209456, 1.2807382349856198, 1.384621674194932]",434.943509218283,None,434.94312766687943,435.0435768789612,,,,,,,,,,,,s20_09012022,001,2022_Sep_01_1549,test_typingtask_norepeats,2020.2.10,60.04227629135067,
vodka,vodka,,,,,0,54,54,54,,,,,,,,440.44360298337415,None,"['v', 'o', 'd', 'k', 'a']",1,"[1.2686197739094496, 1.4286260302178562, 1.6925147930160165, 1.8846134720370173, 2.0125515279360116]",440.44360298337415,None,440.443356463965,440.54346297495067,,,,,,,,,,,,s20_09012022,001,2022_Sep_01_1549,test_typingtask_norepeats,2020.2.10,60.04227629135067,
pykka,pykka,,,,,0,55,55,55,,,,,,,,445.9438248919323,None,"['p', 'y', 'k', 'k', 'a']",1,"[1.2083174362778664, 1.784296383149922, 2.1843109149485826, 2.3043696391396224, 2.400309926364571]",445.9438248919323,None,445.94344530003144,446.0434375060722,,,,,,,,,,,,s20_09012022,001,2022_Sep_01_1549,test_typingtask_norepeats,2020.2.10,60.04227629135067,
kremp,kremp,,,,,0,56,56,56,,,,,,,,451.44342415733263,None,"['k', 'r', 'e', 'm', 'p']",1,"[1.4047347344458103, 1.5167249999940395, 1.604720629286021, 1.8766948343254626, 2.0448066401295364]",451.44342415733263,None,451.4433464578353,451.5432265312411,,,,,,,,,,,,s20_09012022,001,2022_Sep_01_1549,test_typingtask_norepeats,2020.2.10,60.04227629135067,
champ,champ,,,,,0,57,57,57,,,,,,,,456.9434787519276,None,"['c', 'h', 'a', 'm', 'o', 'p']",0,"[0.8807596918195486, 1.040677618701011, 1.2006471785716712, 1.3126951758749783, 1.5047682509757578, 1.5126982908695936]",456.9434787519276,None,456.9433730997145,457.0433585322462,,,,,,,,,,,,s20_09012022,001,2022_Sep_01_1549,test_typingtask_norepeats,2020.2.10,60.04227629135067,
cooed,cooed,,,,,0,58,58,58,,,,,,,,462.4436972741969,None,"['c', 'o', 'o', 'e', 'd']",1,"[0.8445968576706946, 1.0285464166663587, 1.140456557739526, 1.2525528189726174, 1.4284962248057127]",462.4436972741969,None,462.443379777763,462.54342463007197,,,,,,,,,,,,s20_09012022,001,2022_Sep_01_1549,test_typingtask_norepeats,2020.2.10,60.04227629135067,
belly,belly,,,,,0,59,59,59,,,,,,,,467.9438323280774,None,"['b', 'e', 'l', 'l', 'y']",1,"[0.832412036601454, 1.056339327711612, 1.3283479949459434, 1.488298219628632, 1.7203477136790752]",467.9438323280774,None,467.943391698692,468.0435114442371,,,,,,,,,,,,s20_09012022,001,2022_Sep_01_1549,test_typingtask_norepeats,2020.2.10,60.04227629135067,
druze,druze,,,,,0,60,60,60,,,,,,,,473.44346535904333,None,"['d', 'r', 'u', 'z', 'e']",1,"[1.3087007072754204, 1.4607264529913664, 1.7246707500889897, 1.8687798851169646, 2.0207027890719473]",473.44346535904333,None,473.4435817979276,473.5434112199582,,,,,,,,,,,,s20_09012022,001,2022_Sep_01_1549,test_typingtask_norepeats,2020.2.10,60.04227629135067,
vanru,vanru,,,,,0,61,61,61,,,,,,,,478.94333442207426,None,"['v', 'a', 'n', 'r', 'u']",1,"[1.3049117121845484, 1.5128469918854535, 1.6569242049008608, 2.08886149013415, 2.2409185199066997]",478.94333442207426,None,478.9433572458103,479.04333934700117,,,,,,,,,,,,s20_09012022,001,2022_Sep_01_1549,test_typingtask_norepeats,2020.2.10,60.04227629135067,
cooed,cooed,,,,,0,62,62,62,,,,,,,,484.44331759912893,None,"['c', 'o', 'o', 'e', 'd']",1,"[0.8608806626871228, 1.0608806698583066, 1.1489202799275517, 1.2689174707047641, 1.4369278028607368]",484.44331759912893,None,484.4434493280016,484.5438212500885,,,,,,,,,,,,s20_09012022,001,2022_Sep_01_1549,test_typingtask_norepeats,2020.2.10,60.04227629135067,
haole,haole,,,,,0,63,63,63,,,,,,,,489.94316843524575,None,"['h', 'a', 'l', 'i', 'e']",0,"[1.000964738894254, 1.1130143022164702, 1.3450501449406147, 1.521068346221, 2.0170696838758886]",489.94316843524575,None,489.94339730106293,490.0434733531438,,,,,,,,,,,,s20_09012022,001,2022_Sep_01_1549,test_typingtask_norepeats,2020.2.10,60.04227629135067,
buddy,buddy,,,,,0,64,64,64,,,,,,,,495.4597046272829,None,"['b', 'u', 'f', 'd', 'y']",0,"[1.0525326300412416, 1.2205004380084574, 1.5085433442145586, 2.492400020826608, 2.6365024391561747]",495.4597046272829,None,495.45988316815345,495.55963200703263,,,,,,,,,,,,s20_09012022,001,2022_Sep_01_1549,test_typingtask_norepeats,2020.2.10,60.04227629135067,
vanru,vanru,,,,,0,65,65,65,,,,,,,,500.9602844789624,None,"['v', 'a', 'n', 'r', 'u']",1,"[0.9279925329610705, 1.1199279730208218, 1.2719718869775534, 1.8639383548870683, 1.967857991810888]",500.9602844789624,None,500.96048460789024,501.0603237953037,,,,,,,,,,,,s20_09012022,001,2022_Sep_01_1549,test_typingtask_norepeats,2020.2.10,60.04227629135067,
haole,haole,,,,,0,66,66,66,,,,,,,,506.460178011097,None,"['h', 'a', 'l', 'o', 'e']",0,"[0.908031287137419, 1.0439863502979279, 1.2999801179394126, 1.596000534016639, 1.7160544521175325]",506.460178011097,None,506.46026403112336,506.5599482683465,,,,,,,,,,,,s20_09012022,001,2022_Sep_01_1549,test_typingtask_norepeats,2020.2.10,60.04227629135067,
cooed,cooed,,,,,0,67,67,67,,,,,,,,511.9602537723258,None,"['c', 'o', 'o', 'e', 'd']",1,"[1.2079903790727258, 1.439926058985293, 1.5678681964054704, 1.7279781363904476, 1.9039532169699669]",511.9602537723258,None,511.9601001979783,512.0602883342654,,,,,,,,,,,,s20_09012022,001,2022_Sep_01_1549,test_typingtask_norepeats,2020.2.10,60.04227629135067,
pykka,pykka,,,,,0,68,68,68,,,,,,,,517.4601855012588,None,"['p', 'y', 'k', 'k', 'a']",1,"[1.3400199711322784, 1.6759327449835837, 2.0360510400496423, 2.1560955680906773, 2.236052157357335]",517.4601855012588,None,517.4601532828995,517.5605985922739,,,,,,,,,,,,s20_09012022,001,2022_Sep_01_1549,test_typingtask_norepeats,2020.2.10,60.04227629135067,
cheer,cheer,,,,,0,69,69,69,,,,,,,,522.9602049002424,None,"['c', 'h', 'e', 'e', 'r']",1,"[0.9759294558316469, 1.1520351599901915, 1.2959572109393775, 1.4640406859107316, 1.5839254749007523]",522.9602049002424,None,522.9601571548731,523.0602419781499,,,,,,,,,,,,s20_09012022,001,2022_Sep_01_1549,test_typingtask_norepeats,2020.2.10,60.04227629135067,
puppy,puppy,,,,,0,70,70,70,,,,,,,,528.4600522103719,None,"['p', 'u', 'p', 'p', 'y']",1,"[1.524205035995692, 1.7801626431755722, 1.988077883142978, 2.1161598190665245, 2.380161668173969]",528.4600522103719,None,528.4602327317,528.5603063362651,,,,,,,,,,,,s20_09012022,001,2022_Sep_01_1549,test_typingtask_norepeats,2020.2.10,60.04227629135067,
would,would,,,,,0,71,71,71,,,,,,,,533.9600562201813,None,"['w', 'o', 'u', 'l', 'd']",1,"[1.280093148816377, 1.4321674639359117, 1.5440630121156573, 1.8240930689498782, 1.9680694569833577]",533.9600562201813,None,533.9602430470288,534.0602622623555,,,,,,,,,,,,s20_09012022,001,2022_Sep_01_1549,test_typingtask_norepeats,2020.2.10,60.04227629135067,
about,about,,,,,0,72,72,72,,,,,,,,539.4600218962878,None,"['a', 'b', 'o', 'u', 't']",1,"[0.9722655480727553, 1.052199759054929, 1.3242313242517412, 1.3961236053146422, 1.5402195090427995]",539.4600218962878,None,539.4599686970935,539.5601374241523,,,,,,,,,,,,s20_09012022,001,2022_Sep_01_1549,test_typingtask_norepeats,2020.2.10,60.04227629135067,
zibja,zibja,,,,,0,73,73,73,,,,,,,,544.960067469161,None,"['z', 'i', 'b', 'j', 'a']",1,"[1.2480720402672887, 1.4241322074085474, 1.672186424024403, 1.928189960308373, 2.2241349150426686]",544.960067469161,None,544.9602117271163,545.0602115411311,,,,,,,,,,,,s20_09012022,001,2022_Sep_01_1549,test_typingtask_norepeats,2020.2.10,60.04227629135067,
edthe,edthe,,,,,0,74,74,74,,,,,,,,550.4601854523644,None,"['e', 'd', 't', 'h', 'e']",1,"[1.1640591910108924, 1.3479538252577186, 1.539944879245013, 1.64393668808043, 1.7399748801253736]",550.4601854523644,None,550.4602774049156,550.560226184316,,,,,,,,,,,,s20_09012022,001,2022_Sep_01_1549,test_typingtask_norepeats,2020.2.10,60.04227629135067,
tithe,tithe,,,,,0,75,75,75,,,,,,,,555.9602308012545,None,"['t', 'i', 't', 'h', 'e']",1,"[0.9120118557475507, 1.080008170567453, 1.216023395769298, 1.6400229837745428, 1.736007696017623]",555.9602308012545,None,555.9600370468572,556.0602441383526,,,,,,,,,,,,s20_09012022,001,2022_Sep_01_1549,test_typingtask_norepeats,2020.2.10,60.04227629135067,
kremp,kremp,,,,,0,76,76,76,,,,,,,,561.4601178020239,None,"['k', 'r', 'e', 'm', 'p', 'o']",0,"[1.48403865005821, 1.572106528095901, 1.6521232170052826, 2.028132362756878, 2.156078709755093, 2.164161473978311]",561.4601178020239,None,561.4601536829025,561.5604963973165,,,,,,,,,,,,s20_09012022,001,2022_Sep_01_1549,test_typingtask_norepeats,2020.2.10,60.04227629135067,
faqir,faqir,,,,,0,77,77,77,,,,,,,,566.9601304773241,None,"['f', 'a', 'q', 'i', 'r']",1,"[1.1439975770190358, 1.2559994799084961, 1.7680008728057146, 1.8960316558368504, 2.0561215318739414]",566.9601304773241,None,566.9601123047062,567.06021163892,,,,,,,,,,,,s20_09012022,001,2022_Sep_01_1549,test_typingtask_norepeats,2020.2.10,60.04227629135067,
zibja,zibja,,,,,0,78,78,78,,,,,,,,572.4603578229435,None,"['z', 'i', 'b', 'j', 'a']",1,"[1.1239060019142926, 1.3238426898606122, 1.6198877366259694, 1.8837718670256436, 1.995843529701233]",572.4603578229435,None,572.4602459881455,572.5603529661894,,,,,,,,,,,,s20_09012022,001,2022_Sep_01_1549,test_typingtask_norepeats,2020.2.10,60.04227629135067,
kremp,kremp,,,,,0,79,79,79,,,,,,,,577.9602319989353,None,"['k', 'r', 'e', 'm', 'p', 'o']",0,"[1.192074301186949, 1.2959499172866344, 1.975891447160393, 2.1040079733356833, 2.247905914206058, 2.255915420129895]",577.9602319989353,None,577.9602384779603,578.0603324710391,,,,,,,,,,,,s20_09012022,001,2022_Sep_01_1549,test_typingtask_norepeats,2020.2.10,60.04227629135067,
there,there,,,,,0,80,80,80,,,,,,,,583.4603427522816,None,"['t', 'h', 'e', 'r', 'e']",1,"[0.8518424308858812, 0.9397869659587741, 1.0678064422681928, 1.139866323210299, 1.3158943811431527]",583.4603427522816,None,583.4604085658677,583.5605452810414,,,,,,,,,,,,s20_09012022,001,2022_Sep_01_1549,test_typingtask_norepeats,2020.2.10,60.04227629135067,
vodka,vodka,,,,,0,81,81,81,,,,,,,,588.9597607939504,None,"['v', 'o', 'd', 'k', 'a']",1,"[1.0804315651766956, 1.2324492479674518, 1.4883739259094, 1.7443655761890113, 1.8483943920582533]",588.9597607939504,None,588.9598582678475,589.0599980233237,,,,,,,,,,,,s20_09012022,001,2022_Sep_01_1549,test_typingtask_norepeats,2020.2.10,60.04227629135067,
vanru,vanru,,,,,0,82,82,82,,,,,,,,594.4601689749397,None,"['v', 'a', 'n', 'r', 'u']",1,"[1.2040815348736942, 1.5079600946046412, 1.6760536106303334, 1.8520711679011583, 2.0200598486699164]",594.4601689749397,None,594.4601831699722,594.5600794120692,,,,,,,,,,,,s20_09012022,001,2022_Sep_01_1549,test_typingtask_norepeats,2020.2.10,60.04227629135067,
faqir,faqir,,,,,0,83,83,83,,,,,,,,599.9602059330791,None,"['f', 'a', 'q', 'i', 'r']",1,"[1.2800178970210254, 1.3839171230793, 2.1280187889933586, 2.247999947052449, 2.3519964893348515]",599.9602059330791,None,599.9604317278602,600.060200179927,,,,,,,,,,,,s20_09012022,001,2022_Sep_01_1549,test_typingtask_norepeats,2020.2.10,60.04227629135067,
would,would,,,,,0,84,84,84,,,,,,,,605.4601300591603,None,"['w', 'o', 'u', 'l', 'd']",1,"[1.0281372009776533, 1.1401304509490728, 1.2360772988758981, 1.4600070528686047, 1.5960787800140679]",605.4601300591603,None,605.4602628027089,605.5601160530932,,,,,,,,,,,,s20_09012022,001,2022_Sep_01_1549,test_typingtask_norepeats,2020.2.10,60.04227629135067,
theme,theme,,,,,0,85,85,85,,,,,,,,610.9602721603587,None,"['t', 'h', 'e', 'm', 'e']",1,"[0.8799429512582719, 1.008015152066946, 1.151971795130521, 1.3119382029399276, 1.431898957118392]",610.9602721603587,None,610.9604641537182,611.0603793789633,,,,,,,,,,,,s20_09012022,001,2022_Sep_01_1549,test_typingtask_norepeats,2020.2.10,60.04227629135067,
belly,belly,,,,,0,86,86,86,,,,,,,,616.4602967333049,None,"['b', 'e', 'l', 'l', 'y']",1,"[0.8519376069307327, 0.9639248442836106, 1.1478911000303924, 1.3319133492186666, 1.555848415941]",616.4602967333049,None,616.460249441024,616.560259107966,,,,,,,,,,,,s20_09012022,001,2022_Sep_01_1549,test_typingtask_norepeats,2020.2.10,60.04227629135067,
tithe,tithe,,,,,0,87,87,87,,,,,,,,621.9602922429331,None,"['t', 'h', 'i', 't', 'h', 'e']",0,"[0.8559068259783089, 0.9359334609471262, 1.7119345031678677, 1.8159378138370812, 2.0158959007821977, 2.20795788615942]",621.9602922429331,None,621.9602307507769,622.0602417513728,,,,,,,,,,,,s20_09012022,001,2022_Sep_01_1549,test_typingtask_norepeats,2020.2.10,60.04227629135067,
edthe,edthe,,,,,0,88,88,88,,,,,,,,627.4603316793218,None,"['e', 'd', 't', 'h', 'e']",1,"[1.1158784837462008, 1.2678008298389614, 1.4838206237182021, 1.5799519219435751, 1.7158789271488786]",627.4603316793218,None,627.4602317770944,627.5601029549725,,,,,,,,,,,,s20_09012022,001,2022_Sep_01_1549,test_typingtask_norepeats,2020.2.10,60.04227629135067,
pykka,pykka,,,,,0,89,89,89,,,,,,,,632.9607652840205,None,"['p', 'y', 'k', 'k', 'a']",1,"[1.023431221023202, 1.4473776891827583, 1.727503044065088, 1.863474955316633, 1.975358780939132]",632.9607652840205,None,632.9601993470453,633.0605070642196,,,,,,,,,,,,s20_09012022,001,2022_Sep_01_1549,test_typingtask_norepeats,2020.2.10,60.04227629135067,
there,there,,,,,0,90,90,90,,,,,,,,638.4602301293053,None,"['t', 'h', 'e', 'r']",0,"[0.7719641108997166, 0.8759195860475302, 0.9879884868860245, 1.0599075020290911]",638.4602301293053,None,638.460237920098,638.5600321223028,,,,,,,,,,,,s20_09012022,001,2022_Sep_01_1549,test_typingtask_norepeats,2020.2.10,60.04227629135067,
would,would,,,,,0,91,91,91,,,,,,,,643.9602579213679,None,"['w', 'o', 'u', 'l', 'd']",1,"[0.8719911272637546, 1.1039829468354583, 1.2159430189058185, 1.4799195542000234, 1.6319437138736248]",643.9602579213679,None,643.9604080229067,644.0606918423437,,,,,,,,,,,,s20_09012022,001,2022_Sep_01_1549,test_typingtask_norepeats,2020.2.10,60.04227629135067,
tithe,tithe,,,,,0,92,92,92,,,,,,,,649.4602999491617,None,"['t', 'i', 't', 'h', 'e']",1,"[0.9639370506629348, 1.083832315634936, 1.1878963690251112, 1.3958311798051, 1.5238562729209661]",649.4602999491617,None,649.4603416237981,649.5601593712345,,,,,,,,,,,,s20_09012022,001,2022_Sep_01_1549,test_typingtask_norepeats,2020.2.10,60.04227629135067,
about,about,,,,,0,93,93,93,,,,,,,,654.9604466073215,None,"['a', 'b', 'o', 'u', 't']",1,"[0.8157288590446115, 0.9516708352603018, 1.2317895982414484, 1.399784834124148, 1.5997959543019533]",654.9604466073215,None,654.9602119031363,655.0603010030463,,,,,,,,,,,,s20_09012022,001,2022_Sep_01_1549,test_typingtask_norepeats,2020.2.10,60.04227629135067,
vanru,vanru,,,,,0,94,94,94,,,,,,,,660.4603043403476,None,"['v', 'a', 'n', 'r', 'u']",1,"[0.9719465179368854, 1.1719751888886094, 1.3158927550539374, 1.6678229440003633, 1.8759738709777594]",660.4603043403476,None,660.4605166188442,660.5603233790025,,,,,,,,,,,,s20_09012022,001,2022_Sep_01_1549,test_typingtask_norepeats,2020.2.10,60.04227629135067,
haole,haole,,,,,0,95,95,95,,,,,,,,665.959974758327,None,"['j', 'a', 'o', 'l', 'e']",0,"[1.0001369081437588, 1.1441709608770907, 2.064203971065581, 2.2162367119453847, 2.488157296087593]",665.959974758327,None,665.9600363581442,666.0602526641451,,,,,,,,,,,,s20_09012022,001,2022_Sep_01_1549,test_typingtask_norepeats,2020.2.10,60.04227629135067,
cheer,cheer,,,,,0,96,96,96,,,,,,,,671.4604950859211,None,"['c', 'h', 'e', 'e', 'r']",1,"[1.0757406502962112, 1.2037590150721371, 1.3876467309892178, 1.5476844510994852, 1.6757870013825595]",671.4604950859211,None,671.4603880269453,671.5603426280431,,,,,,,,,,,,s20_09012022,001,2022_Sep_01_1549,test_typingtask_norepeats,2020.2.10,60.04227629135067,
therm,therm,,,,,0,97,97,97,,,,,,,,676.9602137519978,None,"['t', 'h', 'e', 'r', 'm']",1,"[0.9520349409431219, 1.0880292658694088, 1.215997759718448, 1.2799949548207223, 1.4640489448793232]",676.9602137519978,None,676.9603731309064,677.0603132192045,,,,,,,,,,,,s20_09012022,001,2022_Sep_01_1549,test_typingtask_norepeats,2020.2.10,60.04227629135067,
tithe,tithe,,,,,0,98,98,98,,,,,,,,682.4602483762428,None,"['t', 'i', 't', 'h', 'e']",1,"[1.0359289161860943, 1.0920404568314552, 1.204004812054336, 1.5639452170580626, 1.6438795952126384]",682.4602483762428,None,682.4602966269479,682.5603134273551,,,,,,,,,,,,s20_09012022,001,2022_Sep_01_1549,test_typingtask_norepeats,2020.2.10,60.04227629135067,
faqir,faqir,,,,,0,99,99,99,,,,,,,,687.9603080162778,None,"['f', 'a', 'q', 'w', 'i', 'r']",0,"[1.119898334145546, 1.207947317045182, 1.7438159813173115, 1.7518152729608119, 1.9678298849612474, 2.0638973750174046]",687.9603080162778,None,687.9602920657956,688.0603881259449,,,,,,,,,,,,s20_09012022,001,2022_Sep_01_1549,test_typingtask_norepeats,2020.2.10,60.04227629135067,
think,think,,,,,0,100,100,100,,,,,,,,693.4604179761373,None,"['t', 'h', 'i', 'n', 'k']",1,"[0.78776979399845, 0.8917082431726158, 1.0357634802348912, 1.2198331551626325, 1.3638058062642813]",693.4604179761373,None,693.4603769791313,693.560445250012,,,,,,,,,,,,s20_09012022,001,2022_Sep_01_1549,test_typingtask_norepeats,2020.2.10,60.04227629135067,
there,there,,,,,0,101,101,101,,,,,,,,698.9603585670702,None,"['t', 'h', 'e', 'r', 'e']",1,"[0.6638799766078591, 0.7837538388557732, 0.927923243958503, 1.0078994226641953, 1.191779371816665]",698.9603585670702,None,698.9602895717137,699.0604627123103,,,,,,,,,,,,s20_09012022,001,2022_Sep_01_1549,test_typingtask_norepeats,2020.2.10,60.04227629135067,
theme,theme,,,,,0,102,102,102,,,,,,,,704.4603047780693,None,"['t', 'h', 'e', 'm', 'e']",1,"[0.7879602815955877, 0.8919531339779496, 0.987907811999321, 1.1798954219557345, 1.299937801901251]",704.4603047780693,None,704.4603365527466,704.5603911299258,,,,,,,,,,,,s20_09012022,001,2022_Sep_01_1549,test_typingtask_norepeats,2020.2.10,60.04227629135067,
puppy,puppy,,,,,0,103,103,103,,,,,,,,709.9605507133529,None,"['p', 'u', 'p', 'p', 'y']",1,"[1.2077032472006977, 1.399694923311472, 1.583560649305582, 1.7516405931673944, 1.9595680343918502]",709.9605507133529,None,709.9602601880208,710.0603216472082,,,,,,,,,,,,s20_09012022,001,2022_Sep_01_1549,test_typingtask_norepeats,2020.2.10,60.04227629135067,
champ,champ,,,,,0,104,104,104,,,,,,,,715.460329266265,None,"['c', 'h', 'a', 'm', 'p']",1,"[0.8279718952253461, 1.027965518180281, 1.2598003959283233, 1.4758856329135597, 2.019852695055306]",715.460329266265,None,715.4604838730768,715.5603076559491,,,,,,,,,,,,s20_09012022,001,2022_Sep_01_1549,test_typingtask_norepeats,2020.2.10,60.04227629135067,
heond,heond,,,,,0,105,105,105,,,,,,,,720.9604077800177,None,"['h', 'e', 'o', 'n', 'd']",1,"[1.1837238436564803, 1.343734207097441, 1.7837584987282753, 2.455789010040462, 2.6318340599536896]",720.9604077800177,None,720.9605026410893,721.0603398019448,,,,,,,,,,,,s20_09012022,001,2022_Sep_01_1549,test_typingtask_norepeats,2020.2.10,60.04227629135067,
puppy,puppy,,,,,0,106,106,106,,,,,,,,726.460530733224,None,"['p', 'u', 'p', 'p', 'y']",1,"[0.955687440931797, 2.0435907407663763, 2.2756646857596934, 2.419676304794848, 2.587694189976901]",726.460530733224,None,726.4604774381035,726.5604778961278,,,,,,,,,,,,s20_09012022,001,2022_Sep_01_1549,test_typingtask_norepeats,2020.2.10,60.04227629135067,
cheer,cheer,,,,,0,107,107,107,,,,,,,,731.9606222412549,None,"['c', 'h', 'e', 'e', 'r']",1,"[0.9196119396947324, 1.0795783619396389, 1.3276133076287806, 1.4795108237303793, 1.575488121714443]",731.9606222412549,None,731.9603597678245,732.0603861892596,,,,,,,,,,,,s20_09012022,001,2022_Sep_01_1549,test_typingtask_norepeats,2020.2.10,60.04227629135067,
would,would,,,,,0,108,108,108,,,,,,,,737.4605832151137,None,"['w', 'o', 'u', 'l', 'd']",1,"[0.8516399362124503, 1.0196653120219707, 1.1475574048236012, 1.4036776279099286, 1.5556931509636343]",737.4605832151137,None,737.4604391658679,737.5603792192414,,,,,,,,,,,,s20_09012022,001,2022_Sep_01_1549,test_typingtask_norepeats,2020.2.10,60.04227629135067,
therm,therm,,,,,0,109,109,109,,,,,,,,742.96024885308,None,"['t', 'h', 'e', 'r', 'm']",1,"[0.7758720857091248, 0.8718700907193124, 1.039861376862973, 1.1119360527954996, 1.4959220187738538]",742.96024885308,None,742.9604970429093,743.0605792030692,,,,,,,,,,,,s20_09012022,001,2022_Sep_01_1549,test_typingtask_norepeats,2020.2.10,60.04227629135067,
cheer,cheer,,,,,0,110,110,110,,,,,,,,748.4604854560457,None,"['c', 'h', 'e', 'e', 'r']",1,"[0.8037138250656426, 0.9556607557460666, 1.147636282723397, 1.3237175210379064, 1.379763372708112]",748.4604854560457,None,748.4605371880346,748.5608787052333,,,,,,,,,,,,s20_09012022,001,2022_Sep_01_1549,test_typingtask_norepeats,2020.2.10,60.04227629135067,
buddy,buddy,,,,,0,111,111,111,,,,,,,,753.9603839083575,None,"['b', 'u', 'f', 'f', 'y']",0,"[0.8077522697858512, 1.7437320561148226, 1.887778460048139, 2.0238661128096282, 2.407874085009098]",753.9603839083575,None,753.9602487960831,754.0605678041466,,,,,,,,,,,,s20_09012022,001,2022_Sep_01_1549,test_typingtask_norepeats,2020.2.10,60.04227629135067,
zibja,zibja,,,,,0,112,112,112,,,,,,,,759.4603631212376,None,"['z', 'i', 'b', 'j', 'a']",1,"[1.0278997886925936, 1.1638756548054516, 1.371827291790396, 1.6118836076930165, 1.6757645569741726]",759.4603631212376,None,759.460428044945,759.5604840740561,,,,,,,,,,,,s20_09012022,001,2022_Sep_01_1549,test_typingtask_norepeats,2020.2.10,60.04227629135067,
pykka,pykka,,,,,0,113,113,113,,,,,,,,764.9609121973626,None,"['p', 'y', 'k', 'k', 'a']",1,"[1.439299140125513, 2.879282610025257, 3.2233272050507367, 3.359228097833693, 3.4472273751161993]",764.9609121973626,None,764.9604518691078,765.0606296933256,,,,,,,,,,,,s20_09012022,001,2022_Sep_01_1549,test_typingtask_norepeats,2020.2.10,60.04227629135067,
vanru,vanru,,,,,0,114,114,114,,,,,,,,770.4605079670437,None,"['c', 'a', 'n', 'r', 'y']",0,"[0.8517513461410999, 1.091749801300466, 1.7397497282363474, 2.0436164583079517, 2.1716176508925855]",770.4605079670437,None,770.4604271247983,770.5606019473635,,,,,,,,,,,,s20_09012022,001,2022_Sep_01_1549,test_typingtask_norepeats,2020.2.10,60.04227629135067,
therm,therm,,,,,0,115,115,115,,,,,,,,775.9606679449789,None,"['t', 'h', 'e', 'r', 'm']",1,"[0.8555301567539573, 0.9754784959368408, 1.0875241360627115, 1.1515726507641375, 1.327644790057093]",775.9606679449789,None,775.9606154899113,776.0603735139593,,,,,,,,,,,,s20_09012022,001,2022_Sep_01_1549,test_typingtask_norepeats,2020.2.10,60.04227629135067,
about,about,,,,,0,116,116,116,,,,,,,,781.4605368971825,None,"['a', 'b', 'o', 'u', 't']",1,"[0.9796256022527814, 1.1156625761650503, 1.4197110491804779, 1.5236658090725541, 1.651625505182892]",781.4605368971825,None,781.4604751409963,781.5605108472519,,,,,,,,,,,,s20_09012022,001,2022_Sep_01_1549,test_typingtask_norepeats,2020.2.10,60.04227629135067,
edthe,edthe,,,,,0,117,117,117,,,,,,,,786.9604162583128,None,"['e', 'd', 't', 'h', 'e']",1,"[1.6638304889202118, 1.8477422590367496, 2.103790197055787, 2.215829989872873, 2.3358127349056304]",786.9604162583128,None,786.9604549038224,787.0604117321782,,,,,,,,,,,,s20_09012022,001,2022_Sep_01_1549,test_typingtask_norepeats,2020.2.10,60.04227629135067,
theme,theme,,,,,0,118,118,118,,,,,,,,792.4605340240523,None,"['t', 'h', 'e', 'r', 'e']",0,"[0.7796087581664324, 0.9076716820709407, 1.0276955170556903, 1.0998094039969146, 1.307597764302045]",792.4605340240523,None,792.4605595211499,792.5603232881986,,,,,,,,,,,,s20_09012022,001,2022_Sep_01_1549,test_typingtask_norepeats,2020.2.10,60.04227629135067,
buddy,buddy,,,,,0,119,119,119,,,,,,,,797.9604957811534,None,"['b', 'u', 'd', 'd', 'y']",1,"[1.111753301229328, 1.2316457559354603, 1.6157160829752684, 1.7596469903364778, 1.911779650952667]",797.9604957811534,None,797.9604696080089,798.0605317489244,,,,,,,,,,,,s20_09012022,001,2022_Sep_01_1549,test_typingtask_norepeats,2020.2.10,60.04227629135067,
edthe,edthe,,,,,,,,,0,0,0,0,,,,,,,,,,,,,803.4606114649214,None,815.1834619021975,None,"['e', 'd', 't', 'h', 'e']",1,"[1.2326654270291328, 1.3767410251311958, 1.5446815229952335, 1.632665382232517, 1.7366533670574427]",815.1834619021975,None,815.1772805981338,815.2773004481569,s20_09012022,001,2022_Sep_01_1549,test_typingtask_norepeats,2020.2.10,60.04227629135067,
think,think,,,,,,,,,0,1,1,1,,,,,,,,,,,,,,,820.6939080650918,None,"['t', 'h', 'i', 'n', 'k']",1,"[0.762195167131722, 0.8743243301287293, 1.0902602490969002, 1.250199242029339, 1.3943226938135922]",820.6939080650918,None,820.6936961797066,820.7941009751521,s20_09012022,001,2022_Sep_01_1549,test_typingtask_norepeats,2020.2.10,60.04227629135067,
pykka,pykka,,,,,,,,,0,2,2,2,,,,,,,,,,,,,,,826.1939897579141,None,"['p', 'y', 'k', 'k', 'a']",1,"[0.6062277033925056, 1.286196538247168, 1.5661503872834146, 1.694202319253236, 1.7742371540516615]",826.1939897579141,None,826.1937803349458,826.293975729961,s20_09012022,001,2022_Sep_01_1549,test_typingtask_norepeats,2020.2.10,60.04227629135067,
champ,champ,,,,,,,,,0,3,3,3,,,,,,,,,,,,,,,831.6939449571073,None,"['c', 'h', 'a', 'm', 'p', 'o']",0,"[0.8102334709838033, 0.962288545910269, 1.106314554810524, 1.282212648075074, 1.5542691280134022, 1.5622876058332622]",831.6939449571073,None,831.693753744755,831.7939329189248,s20_09012022,001,2022_Sep_01_1549,test_typingtask_norepeats,2020.2.10,60.04227629135067,
edthe,edthe,,,,,,,,,0,4,4,4,,,,,,,,,,,,,,,837.1941688242368,None,"['e', 'd', 't', 'h', 'e']",1,"[1.0060265590436757, 1.1900795861147344, 1.3979982729069889, 1.5339638269506395, 1.6300750877708197]",837.1941688242368,None,837.1939567400143,837.2938279933296,s20_09012022,001,2022_Sep_01_1549,test_typingtask_norepeats,2020.2.10,60.04227629135067,
vodka,vodka,,,,,,,,,0,5,5,5,,,,,,,,,,,,,,,842.6940124342218,None,"['v', 'o', 'd', 'k', 'a']",1,"[1.202227735426277, 1.5702506233938038, 2.202248985413462, 2.354276122059673, 2.458165486343205]",842.6940124342218,None,842.6938871208579,842.7937305350788,s20_09012022,001,2022_Sep_01_1549,test_typingtask_norepeats,2020.2.10,60.04227629135067,
buddy,buddy,,,,,,,,,0,6,6,6,,,,,,,,,,,,,,,848.1939676310867,None,"['b', 'u', 'd', 'd', 'y']",1,"[1.038285817950964, 1.1422259048558772, 1.358165964949876, 1.5101813720539212, 1.6221916917711496]",848.1939676310867,None,848.1940703269095,848.2939129471779,s20_09012022,001,2022_Sep_01_1549,test_typingtask_norepeats,2020.2.10,60.04227629135067,
tithe,tithe,,,,,,,,,0,7,7,7,,,,,,,,,,,,,,,853.6940427590162,None,"['t', 'i', 't', 'h', 'e']",1,"[1.1540837474167347, 1.282154311425984, 1.3781860023736954, 1.5781796192750335, 1.6901995460502803]",853.6940427590162,None,853.6939367570915,853.7940630312078,s20_09012022,001,2022_Sep_01_1549,test_typingtask_norepeats,2020.2.10,60.04227629135067,
druze,druze,,,,,,,,,0,8,8,8,,,,,,,,,,,,,,,859.1939057973213,None,"['d', 'r', 'u', 'z', 'e']",1,"[1.2383498288691044, 1.85419629374519, 2.3583266800269485, 2.454297186806798, 2.6223443681374192]",859.1939057973213,None,859.1938894938678,859.2939013969153,s20_09012022,001,2022_Sep_01_1549,test_typingtask_norepeats,2020.2.10,60.04227629135067,
theme,theme,,,,,,,,,0,9,9,9,,,,,,,,,,,,,,,864.6939261979423,None,"['t', 'h', 'e', 'm', 'e']",1,"[0.9303116016089916, 1.0341929020360112, 1.1543167079798877, 1.3303135856986046, 1.4582715537399054]",864.6939261979423,None,864.6940741411411,864.7938563302159,s20_09012022,001,2022_Sep_01_1549,test_typingtask_norepeats,2020.2.10,60.04227629135067,
edthe,edthe,,,,,,,,,0,10,10,10,,,,,,,,,,,,,,,870.1939268573187,None,"['e', 'd', 't', 'h', 'e']",1,"[0.8541805171407759, 1.0462529170326889, 1.25423216028139, 1.3981727622449398, 1.4862755900248885]",870.1939268573187,None,870.1939069868997,870.2940361099318,s20_09012022,001,2022_Sep_01_1549,test_typingtask_norepeats,2020.2.10,60.04227629135067,
puppy,puppy,,,,,,,,,0,11,11,11,,,,,,,,,,,,,,,875.6939439983107,None,"['p', 'i', 'p', 'p', 'y']",0,"[1.186233903747052, 1.6502406098879874, 1.9461623281240463, 2.130234722048044, 2.642153878696263]",875.6939439983107,None,875.6940780028701,875.7940061530098,s20_09012022,001,2022_Sep_01_1549,test_typingtask_norepeats,2020.2.10,60.04227629135067,
about,about,,,,,,,,,0,12,12,12,,,,,,,,,,,,,,,881.1939575453289,None,"['a', 'b', 'o', 'u', 't']",1,"[0.8942922339774668, 0.990256099961698, 1.3022883352823555, 1.3502511871047318, 1.4862961629405618]",881.1939575453289,None,881.193891179096,881.2940521719866,s20_09012022,001,2022_Sep_01_1549,test_typingtask_norepeats,2020.2.10,60.04227629135067,
cooed,cooed,,,,,,,,,0,13,13,13,,,,,,,,,,,,,,,886.694399644155,None,"['c', 'o', 'o', 'e', 'd']",1,"[0.8657843028195202, 1.0977357062511146, 1.2178068929351866, 1.2818352058529854, 1.4738307599909604]",886.694399644155,None,886.6942251010798,886.794441441074,s20_09012022,001,2022_Sep_01_1549,test_typingtask_norepeats,2020.2.10,60.04227629135067,
zibja,zibja,,,,,,,,,0,14,14,14,,,,,,,,,,,,,,,892.1941232252866,None,"['z', 'i', 'b', 'j', 'a']",1,"[0.9260093430057168, 1.110036974772811, 1.3260144609957933, 1.5180076030083, 1.5901158335618675]",892.1941232252866,None,892.1939898680896,892.2939086821862,s20_09012022,001,2022_Sep_01_1549,test_typingtask_norepeats,2020.2.10,60.04227629135067,
tithe,tithe,,,,,,,,,0,15,15,15,,,,,,,,,,,,,,,897.6940964031965,None,"['t', 'i', 't', 'h', 'e']",1,"[0.8900169930420816, 0.9780999189242721, 1.0980830038897693, 1.282116177957505, 1.4420277210883796]",897.6940964031965,None,897.6939133189619,897.7939214413054,s20_09012022,001,2022_Sep_01_1549,test_typingtask_norepeats,2020.2.10,60.04227629135067,
pykka,pykka,,,,,,,,,0,16,16,16,,,,,,,,,,,,,,,903.1940405219793,None,"['p', 'y', 'k', 'k', 'a']",1,"[1.0301667568273842, 1.542122040875256, 2.270199242979288, 2.390155519824475, 2.4862066651694477]",903.1940405219793,None,903.1939737729729,903.2940753479488,s20_09012022,001,2022_Sep_01_1549,test_typingtask_norepeats,2020.2.10,60.04227629135067,
cheer,cheer,,,,,,,,,0,17,17,17,,,,,,,,,,,,,,,908.6940748072229,None,"['c', 'h', 'e', 'e', 'r']",1,"[0.7701802728697658, 0.9301297566853464, 1.0901299356482923, 1.242055197712034, 1.3221818166784942]",908.6940748072229,None,908.6939703769051,908.7941212509759,s20_09012022,001,2022_Sep_01_1549,test_typingtask_norepeats,2020.2.10,60.04227629135067,
faqir,faqir,,,,,,,,,0,18,18,18,,,,,,,,,,,,,,,914.1941701243632,None,"['f', 'a', 'q', 'i', 'r']",1,"[1.5899592088535428, 1.7099821367301047, 2.2700332910753787, 2.5179667649790645, 2.605970613658428]",914.1941701243632,None,914.1942011949607,914.2942226473242,s20_09012022,001,2022_Sep_01_1549,test_typingtask_norepeats,2020.2.10,60.04227629135067,
lucky,lucky,,,,,,,,,0,19,19,19,,,,,,,,,,,,,,,919.6939793950878,None,"['l', 'u', 'c', 'k', 'y']",1,"[1.330275041051209, 1.5223076101392508, 1.7142017451114953, 1.8982253721915185, 2.32222142489627]",919.6939793950878,None,919.6940091511235,919.7937425361015,s20_09012022,001,2022_Sep_01_1549,test_typingtask_norepeats,2020.2.10,60.04227629135067,
think,think,,,,,,,,,0,20,20,20,,,,,,,,,,,,,,,925.1941948900931,None,"['t', 'h', 'i', 'n', 'k']",1,"[0.8700187066569924, 0.9660077057778835, 1.109920762013644, 1.2860687356442213, 1.4380917358212173]",925.1941948900931,None,925.1938623877243,925.2940249289386,s20_09012022,001,2022_Sep_01_1549,test_typingtask_norepeats,2020.2.10,60.04227629135067,
puppy,puppy,,,,,,,,,0,21,21,21,,,,,,,,,,,,,,,930.6941712000407,None,"['p', 'u', 'p', 'p', 'y']",1,"[1.274072177708149, 1.5780438799411058, 1.866057704668492, 2.017943734768778, 2.2259543277323246]",930.6941712000407,None,930.69405440595,930.7944744811393,s20_09012022,001,2022_Sep_01_1549,test_typingtask_norepeats,2020.2.10,60.04227629135067,
zibja,zibja,,,,,,,,,0,22,22,22,,,,,,,,,,,,,,,936.1941420091316,None,"['z', 'i', 'b', 'j', 'a']",1,"[0.9500040910206735, 1.0940602151677012, 1.3979770061559975, 1.6459612851031125, 1.7259828629903495]",936.1941420091316,None,936.194152083993,936.2940499940887,s20_09012022,001,2022_Sep_01_1549,test_typingtask_norepeats,2020.2.10,60.04227629135067,
faqir,faqir,,,,,,,,,0,23,23,23,,,,,,,,,,,,,,,941.6940435571596,None,"['f', 'a', 'q', 'i', 'r']",1,"[0.9381053945980966, 1.0742068057879806, 1.826083782594651, 2.026098023634404, 2.1622202680446208]",941.6940435571596,None,941.6941486339085,941.7941716113128,s20_09012022,001,2022_Sep_01_1549,test_typingtask_norepeats,2020.2.10,60.04227629135067,
vanru,vanru,,,,,,,,,0,24,24,24,,,,,,,,,,,,,,,947.1939325593412,None,"['v', 'a', 'n', 'r', 'u']",1,"[1.0382927656173706, 1.2382958768866956, 1.3421991257928312, 1.7422951869666576, 1.894253523554653]",947.1939325593412,None,947.1940831828863,947.2943936479278,s20_09012022,001,2022_Sep_01_1549,test_typingtask_norepeats,2020.2.10,60.04227629135067,
edthe,edthe,,,,,,,,,0,25,25,25,,,,,,,,,,,,,,,952.6940642162226,None,"['e', 'd', 't', 'h', 'e']",1,"[0.8340695309452713, 1.0661015240475535, 1.3220331487245858, 1.4580338168889284, 1.5460597868077457]",952.6940642162226,None,952.6940155018121,952.7941684941761,s20_09012022,001,2022_Sep_01_1549,test_typingtask_norepeats,2020.2.10,60.04227629135067,
faqir,faqir,,,,,,,,,0,26,26,26,,,,,,,,,,,,,,,958.1939518130384,None,"['f', 'a', 'q', 'i', 'r']",1,"[0.7502516391687095, 0.8862951202318072, 1.6461678221821785, 1.9182070009410381, 2.1102169509977102]",958.1939518130384,None,958.1941300689243,958.2941745542921,s20_09012022,001,2022_Sep_01_1549,test_typingtask_norepeats,2020.2.10,60.04227629135067,
about,about,,,,,,,,,0,27,27,27,,,,,,,,,,,,,,,963.6942591322586,None,"['a', 'b', 'o', 'u', 't']",1,"[0.7699872809462249, 0.8819234408438206, 1.1938960966654122, 1.4098370028659701, 1.5779306939803064]",963.6942591322586,None,963.6940713997931,963.7940112310462,s20_09012022,001,2022_Sep_01_1549,test_typingtask_norepeats,2020.2.10,60.04227629135067,
heond,heond,,,,,,,,,0,28,28,28,,,,,,,,,,,,,,,969.1941722412594,None,"['h', 'e', 'o', 'n', 'd']",1,"[1.2780526150017977, 1.82207785313949, 1.933959478046745, 2.1259486800991, 2.2539690798148513]",969.1941722412594,None,969.1941267729737,969.2944034752436,s20_09012022,001,2022_Sep_01_1549,test_typingtask_norepeats,2020.2.10,60.04227629135067,
there,there,,,,,,,,,0,29,29,29,,,,,,,,,,,,,,,974.6940265740268,None,"['t', 'h', 'e', 'r', 'e']",1,"[0.7701964136213064, 0.9061077898368239, 1.0421174289658666, 1.1222208039835095, 1.3062152438797057]",974.6940265740268,None,974.6940096177161,974.7942435001023,s20_09012022,001,2022_Sep_01_1549,test_typingtask_norepeats,2020.2.10,60.04227629135067,
kremp,kremp,,,,,,,,,0,30,30,30,,,,,,,,,,,,,,,980.1942237131298,None,"['k', 'r', 'e', 'm', 'p']",1,"[1.4939061650075018, 1.5659817112609744, 1.645917815156281, 1.8540064333938062, 2.278014665003866]",980.1942237131298,None,980.1940162999556,980.294526217971,s20_09012022,001,2022_Sep_01_1549,test_typingtask_norepeats,2020.2.10,60.04227629135067,
there,there,,,,,,,,,0,31,31,31,,,,,,,,,,,,,,,985.6942396289669,None,"['t', 'h', 'e', 'r', 'e']",1,"[0.7859715833328664, 0.8979405541904271, 1.0258835391141474, 1.0898931440897286, 1.2820001072250307]",985.6942396289669,None,985.6941248097457,985.7939904420637,s20_09012022,001,2022_Sep_01_1549,test_typingtask_norepeats,2020.2.10,60.04227629135067,
kremp,kremp,,,,,,,,,0,32,32,32,,,,,,,,,,,,,,,991.1942098080181,None,"['l', 'r', 'e', 'm', 'p']",0,"[1.3979287878610194, 1.4780162200331688, 1.5420295409858227, 2.2220331681892276, 2.405922330915928]",991.1942098080181,None,991.1941436420195,991.2940993271768,s20_09012022,001,2022_Sep_01_1549,test_typingtask_norepeats,2020.2.10,60.04227629135067,
edthe,edthe,,,,,,,,,0,33,33,33,,,,,,,,,,,,,,,996.6942846770398,None,"['e', 'd', 't', 'h', 'e']",1,"[1.1859517628327012, 1.3619801211170852, 1.5938358181156218, 1.72191476309672, 1.8019562107510865]",996.6942846770398,None,996.6942668629811,996.7942049349658,s20_09012022,001,2022_Sep_01_1549,test_typingtask_norepeats,2020.2.10,60.04227629135067,
think,think,,,,,,,,,0,34,34,34,,,,,,,,,,,,,,,1002.1941879140213,None,"['t', 'h', 'i', 'n', 'k']",1,"[0.7500763279385865, 0.8459648718126118, 1.078016540966928, 1.2860458050854504, 1.4540417287498713]",1002.1941879140213,None,1002.1941679858603,1002.2942575803027,s20_09012022,001,2022_Sep_01_1549,test_typingtask_norepeats,2020.2.10,60.04227629135067,
theme,theme,,,,,,,,,0,35,35,35,,,,,,,,,,,,,,,1007.6945980940945,None,"['t', 'h', 'e', 'm', 'e']",1,"[0.7696425500325859, 0.9055324401706457, 1.0816363468766212, 1.2335649668239057, 1.3856496419757605]",1007.6945980940945,None,1007.6942353717052,1007.7942241383716,s20_09012022,001,2022_Sep_01_1549,test_typingtask_norepeats,2020.2.10,60.04227629135067,
therm,therm,,,,,,,,,0,36,36,36,,,,,,,,,,,,,,,1013.1941974712536,None,"['t', 'h', 'e', 'r', 'm']",1,"[0.742061136290431, 0.8380497079342604, 0.9659790489822626, 1.046000910922885, 1.1979803922586143]",1013.1941974712536,None,1013.1942268258892,1013.2941096900031,s20_09012022,001,2022_Sep_01_1549,test_typingtask_norepeats,2020.2.10,60.04227629135067,
lucky,lucky,,,,,,,,,0,37,37,37,,,,,,,,,,,,,,,1018.6941693210974,None,"['l', 'u', 'c', 'k', 'y']",1,"[0.9300351249985397, 1.537987848278135, 1.6339319800026715, 1.7780235093086958, 2.0740412999875844]",1018.6941693210974,None,1018.6942368888297,1018.7945954413153,s20_09012022,001,2022_Sep_01_1549,test_typingtask_norepeats,2020.2.10,60.04227629135067,
druze,druze,,,,,,,,,0,38,38,38,,,,,,,,,,,,,,,1024.194150917232,None,"['d', 'r', 'u', 'z', 'e']",1,"[1.8860838692635298, 2.070091442205012, 2.3179618013091385, 2.4220355059951544, 2.58998906519264]",1024.194150917232,None,1024.194183240924,1024.294264011085,s20_09012022,001,2022_Sep_01_1549,test_typingtask_norepeats,2020.2.10,60.04227629135067,
zibja,zibja,,,,,,,,,0,39,39,39,,,,,,,,,,,,,,,1029.6940099583007,None,"['z', 'i', 'b', 'j', 'a']",1,"[1.0021918336860836, 1.1941598178818822, 1.3941032509319484, 1.610102520789951, 1.706222622655332]",1029.6940099583007,None,1029.6939130037092,1029.794098394923,s20_09012022,001,2022_Sep_01_1549,test_typingtask_norepeats,2020.2.10,60.04227629135067,
theme,theme,,,,,,,,,0,40,40,40,,,,,,,,,,,,,,,1035.1942352801561,None,"['t', 'h', 'e', 'm', 'e']",1,"[0.6699922559782863, 0.7979340208694339, 0.9819922279566526, 1.1178770679980516, 1.3499850020743906]",1035.1942352801561,None,1035.1942111819983,1035.2947076163255,s20_09012022,001,2022_Sep_01_1549,test_typingtask_norepeats,2020.2.10,60.04227629135067,
faqir,faqir,,,,,,,,,0,41,41,41,,,,,,,,,,,,,,,1040.6945141633041,None,"['f', 'a', 'q', 'i', 'e']",0,"[0.8656915579922497, 0.9777205972932279, 1.57776253297925, 2.5936110080219805, 2.6736979060806334]",1040.6945141633041,None,1040.6939839588479,1040.7941256421618,s20_09012022,001,2022_Sep_01_1549,test_typingtask_norepeats,2020.2.10,60.04227629135067,
haole,haole,,,,,,,,,0,42,42,42,,,,,,,,,,,,,,,1046.1944474289194,None,"['h', 'a', 'o', 'l', 'e']",1,"[1.0137927480973303, 1.1417821408249438, 1.7017988888546824, 1.8378066197037697, 1.9336853791028261]",1046.1944474289194,None,1046.1940598220565,1046.294290407095,s20_09012022,001,2022_Sep_01_1549,test_typingtask_norepeats,2020.2.10,60.04227629135067,
faqir,faqir,,,,,,,,,0,43,43,43,,,,,,,,,,,,,,,1051.6943658431992,None,"['f', 'a', 'q', 'i', 'r']",1,"[0.7378870439715683, 0.8498775609768927, 1.481875907164067, 1.6658710641786456, 2.081838209182024]",1051.6943658431992,None,1051.6941670009867,1051.7941488479264,s20_09012022,001,2022_Sep_01_1549,test_typingtask_norepeats,2020.2.10,60.04227629135067,
cheer,cheer,,,,,,,,,0,44,44,44,,,,,,,,,,,,,,,1057.1942192651331,None,"['c', 'h', 'e', 'e', 'r']",1,"[1.373911686707288, 1.5021302970126271, 1.6780126886442304, 1.8459362676367164, 1.8459362676367164]",1057.1942192651331,None,1057.1942071367987,1057.2940056719817,s20_09012022,001,2022_Sep_01_1549,test_typingtask_norepeats,2020.2.10,60.04227629135067,
there,there,,,,,,,,,0,45,45,45,,,,,,,,,,,,,,,1062.6942980242893,None,"['t', 'h', 'e', 'r', 'e']",1,"[0.6499309879727662, 0.7699523041956127, 0.8738429988734424, 0.9378946488723159, 1.1058647129684687]",1062.6942980242893,None,1062.6943097480573,1062.7940267580561,s20_09012022,001,2022_Sep_01_1549,test_typingtask_norepeats,2020.2.10,60.04227629135067,
belly,belly,,,,,,,,,0,46,46,46,,,,,,,,,,,,,,,1068.194422319997,None,"['b', 'e', 'l', 'l', 'y']",1,"[0.9977602302096784, 1.1097219469957054, 1.3097692299634218, 1.4777996349148452, 1.7337051699869335]",1068.194422319997,None,1068.194104641024,1068.29429394193,s20_09012022,001,2022_Sep_01_1549,test_typingtask_norepeats,2020.2.10,60.04227629135067,
puppy,puppy,,,,,,,,,0,47,47,47,,,,,,,,,,,,,,,1073.6942369211465,None,"['p', 'u', 'p', 'p', 'y']",1,"[1.4178905510343611, 1.7219500201754272, 1.9938809871673584, 2.1780237113125622, 2.3619601242244244]",1073.6942369211465,None,1073.6944174140692,1073.7943181400187,s20_09012022,001,2022_Sep_01_1549,test_typingtask_norepeats,2020.2.10,60.04227629135067,
there,there,,,,,,,,,0,48,48,48,,,,,,,,,,,,,,,1079.1946590221487,None,"['t', 'h', 'e', 'r', 'e']",1,"[0.7015411327593029, 0.8214829489588737, 0.9495781371369958, 1.013584006112069, 1.181574007961899]",1079.1946590221487,None,1079.1942929409445,1079.2948437710293,s20_09012022,001,2022_Sep_01_1549,test_typingtask_norepeats,2020.2.10,60.04227629135067,
tithe,tithe,,,,,,,,,0,49,49,49,,,,,,,,,,,,,,,1084.694297524169,None,"['t', 'i', 't', 'h', 'e']",1,"[0.8738774210214615, 1.3059285953640938, 1.633790863212198, 2.145834144204855, 2.4578080670908093]",1084.694297524169,None,1084.6942945339717,1084.7943152091466,s20_09012022,001,2022_Sep_01_1549,test_typingtask_norepeats,2020.2.10,60.04227629135067,
about,about,,,,,,,,,0,50,50,50,,,,,,,,,,,,,,,1090.1940767350607,None,"['a', 'b', 'o', 'u', 't']",1,"[0.8301480179652572, 0.9180266088806093, 1.2861601430922747, 1.4621595391072333, 1.5740404981188476]",1090.1940767350607,None,1090.1943835907616,1090.2941914843395,s20_09012022,001,2022_Sep_01_1549,test_typingtask_norepeats,2020.2.10,60.04227629135067,
tithe,tithe,,,,,,,,,0,51,51,51,,,,,,,,,,,,,,,1095.6941669071093,None,"['t', 'i', 't', 'h', 'e']",1,"[0.8900427999906242, 1.0339452703483403, 1.1700530662201345, 1.5859971810132265, 1.6820392603985965]",1095.6941669071093,None,1095.6941502991133,1095.7942978469655,s20_09012022,001,2022_Sep_01_1549,test_typingtask_norepeats,2020.2.10,60.04227629135067,
cheer,cheer,,,,,,,,,0,52,52,52,,,,,,,,,,,,,,,1101.1942315921187,None,"['c', 'h', 'e', 'r']",0,"[0.9899716177023947, 1.1500138528645039, 1.3819757089950144, 1.5660099037922919]",1101.1942315921187,None,1101.1942027018406,1101.2943282411434,s20_09012022,001,2022_Sep_01_1549,test_typingtask_norepeats,2020.2.10,60.04227629135067,
champ,champ,,,,,,,,,0,53,53,53,,,,,,,,,,,,,,,1106.6945080063306,None,"['c', 'h', 'a', 'm', 'o']",0,"[0.7936178389936686, 0.9377030786126852, 1.1057520159520209, 1.2817235169932246, 1.4496698789298534]",1106.6945080063306,None,1106.6941758997739,1106.794134228956,s20_09012022,001,2022_Sep_01_1549,test_typingtask_norepeats,2020.2.10,60.04227629135067,
belly,belly,,,,,,,,,0,54,54,54,,,,,,,,,,,,,,,1112.1943179583177,None,"['b', 'e', 'l', 'l', 'y']",1,"[0.9098258311860263, 1.0779070891439915, 1.2299209418706596, 1.3978796480223536, 1.6778937270864844]",1112.1943179583177,None,1112.1942638599314,1112.2946219881997,s20_09012022,001,2022_Sep_01_1549,test_typingtask_norepeats,2020.2.10,60.04227629135067,
champ,champ,,,,,,,,,0,55,55,55,,,,,,,,,,,,,,,1117.694333248306,None,"['c', 'h', 'a', 'm', 'o']",0,"[0.737873655743897, 0.8259256319142878, 1.0498894988559186, 1.1938018850050867, 1.4018377466127276]",1117.694333248306,None,1117.6941597068683,1117.7944024470635,s20_09012022,001,2022_Sep_01_1549,test_typingtask_norepeats,2020.2.10,60.04227629135067,
about,about,,,,,,,,,0,56,56,56,,,,,,,,,,,,,,,1123.1943884901702,None,"['a', 'b', 'o', 'u', 't']",1,"[0.9337401408702135, 1.0617813719436526, 1.3177434341050684, 1.4138473309576511, 1.4937474369071424]",1123.1943884901702,None,1123.1942242610269,1123.2943756040186,s20_09012022,001,2022_Sep_01_1549,test_typingtask_norepeats,2020.2.10,60.04227629135067,
vanru,vanru,,,,,,,,,0,57,57,57,,,,,,,,,,,,,,,1128.6943919551559,None,"['c', 'a', 'n', 'r', 'y']",0,"[1.0498521183617413, 1.8337222202681005, 2.033725162036717, 2.505868451204151, 2.6818111520260572]",1128.6943919551559,None,1128.694508041069,1128.7945946860127,s20_09012022,001,2022_Sep_01_1549,test_typingtask_norepeats,2020.2.10,60.04227629135067,
cheer,cheer,,,,,,,,,0,58,58,58,,,,,,,,,,,,,,,1134.1944739962928,None,"['c', 'h', 'e', 'e', 'r']",1,"[0.7418570099398494, 0.9096617386676371, 1.0537671796046197, 1.2457134639844298, 1.3417842276394367]",1134.1944739962928,None,1134.1944604136982,1134.2942104842514,s20_09012022,001,2022_Sep_01_1549,test_typingtask_norepeats,2020.2.10,60.04227629135067,
puppy,puppy,,,,,,,,,0,59,59,59,,,,,,,,,,,,,,,1139.6945396889932,None,"['u', 'p', 'p', 'y']",0,"[1.6496929749846458, 1.9537091189995408, 2.0896011069417, 2.353628713171929]",1139.6945396889932,None,1139.6944952819497,1139.7944169100374,s20_09012022,001,2022_Sep_01_1549,test_typingtask_norepeats,2020.2.10,60.04227629135067,
lucky,lucky,,,,,,,,,0,60,60,60,,,,,,,,,,,,,,,1145.1944811139256,None,"['l', 'u', 'c', 'k', 'y']",1,"[0.7497359360568225, 1.6137077929452062, 1.717654081992805, 1.8936372390016913, 2.3817213652655482]",1145.1944811139256,None,1145.1942301898264,1145.2943151113577,s20_09012022,001,2022_Sep_01_1549,test_typingtask_norepeats,2020.2.10,60.04227629135067,
haole,haole,,,,,,,,,0,61,61,61,,,,,,,,,,,,,,,1150.6944211912341,None,"['h', 'a', 'o', 'l', 'e']",1,"[1.08977160602808, 1.2258647442795336, 1.4498147373087704, 1.6738665052689612, 1.7857682472094893]",1150.6944211912341,None,1150.6944108817727,1150.7942918129265,s20_09012022,001,2022_Sep_01_1549,test_typingtask_norepeats,2020.2.10,60.04227629135067,
kremp,kremp,,,,,,,,,0,62,62,62,,,,,,,,,,,,,,,1156.1943605630659,None,"['k', 'r', 'e', 'm', 'p']",1,"[1.7898996458388865, 1.8698462462052703, 1.9578919862397015, 2.21385693596676, 2.4298106259666383]",1156.1943605630659,None,1156.1945665658452,1156.2944175573066,s20_09012022,001,2022_Sep_01_1549,test_typingtask_norepeats,2020.2.10,60.04227629135067,
there,there,,,,,,,,,0,63,63,63,,,,,,,,,,,,,,,1161.6943792020902,None,"['t', 'h', 'e', 'r', 'e']",1,"[0.7218836201354861, 0.833715929184109, 0.9539178102277219, 1.025913787074387, 1.2018699059262872]",1161.6943792020902,None,1161.6945037099533,1161.7945846603252,s20_09012022,001,2022_Sep_01_1549,test_typingtask_norepeats,2020.2.10,60.04227629135067,
therm,therm,,,,,,,,,0,64,64,64,,,,,,,,,,,,,,,1167.1943793101236,None,"['t', 'h', 'e', 'r', 'm']",1,"[0.6698187883011997, 0.7738672592677176, 0.8937447760254145, 0.9818284683860838, 1.0937420022673905]",1167.1943793101236,None,1167.1942342159339,1167.2943353392184,s20_09012022,001,2022_Sep_01_1549,test_typingtask_norepeats,2020.2.10,60.04227629135067,
vanru,vanru,,,,,,,,,0,65,65,65,,,,,,,,,,,,,,,1172.6941239279695,None,"['v', 'a', 'n', 'r', 'u']",1,"[1.2100211041979492, 1.4100084933452308, 1.5701208179816604, 1.9221277330070734, 2.042018929030746]",1172.6941239279695,None,1172.694118556846,1172.794237588998,s20_09012022,001,2022_Sep_01_1549,test_typingtask_norepeats,2020.2.10,60.04227629135067,
vodka,vodka,,,,,,,,,0,66,66,66,,,,,,,,,,,,,,,1178.1944114239886,None,"['v', 'o', 'd', 'k', 'a']",1,"[1.9577247188426554, 2.125718372873962, 2.4778546229936182, 2.597745690960437, 2.717703513801098]",1178.1944114239886,None,1178.1944458580576,1178.2944568642415,s20_09012022,001,2022_Sep_01_1549,test_typingtask_norepeats,2020.2.10,60.04227629135067,
cooed,cooed,,,,,,,,,0,67,67,67,,,,,,,,,,,,,,,1183.694408975076,None,"['c', 'o', 'o', 'e', 'd']",1,"[0.9298079386353493, 1.113809724804014, 1.2497305236756802, 1.3377988915890455, 1.5378345400094986]",1183.694408975076,None,1183.6947575870902,1183.7939922353253,s20_09012022,001,2022_Sep_01_1549,test_typingtask_norepeats,2020.2.10,60.04227629135067,
vanru,vanru,,,,,,,,,0,68,68,68,,,,,,,,,,,,,,,1189.194540426135,None,"['v', 'a', 'n', 'r', 'u']",1,"[1.0456285909749568, 1.2296113236807287, 1.4137038616463542, 1.6136774406768382, 1.7255912995897233]",1189.194540426135,None,1189.1941964121536,1189.2944133239798,s20_09012022,001,2022_Sep_01_1549,test_typingtask_norepeats,2020.2.10,60.04227629135067,
puppy,puppy,,,,,,,,,0,69,69,69,,,,,,,,,,,,,,,1194.6944306599908,None,"['p', 'u', 'p', 'p', 'y']",1,"[1.2177025121636689, 1.7137585319578648, 1.9858203381299973, 2.161811274010688, 2.3697734251618385]",1194.6944306599908,None,1194.6943278227002,1194.7944473633543,s20_09012022,001,2022_Sep_01_1549,test_typingtask_norepeats,2020.2.10,60.04227629135067,
vanru,vanru,,,,,,,,,0,70,70,70,,,,,,,,,,,,,,,1200.1943464693613,None,"['v', 'a', 'n', 'r', 'u']",1,"[0.8938091858290136, 1.0937762400135398, 1.2298517129383981, 1.3738475837744772, 1.501777749042958]",1200.1943464693613,None,1200.1943928848953,1200.2945314892568,s20_09012022,001,2022_Sep_01_1549,test_typingtask_norepeats,2020.2.10,60.04227629135067,
druze,druze,,,,,,,,,0,71,71,71,,,,,,,,,,,,,,,1205.694539835211,None,"['d', 'r', 'u', 'z', 'e']",1,"[1.3376207100227475, 1.48162551689893, 1.7297191671095788, 1.9537067459896207, 2.297641301061958]",1205.694539835211,None,1205.6944809679874,1205.7944691260345,s20_09012022,001,2022_Sep_01_1549,test_typingtask_norepeats,2020.2.10,60.04227629135067,
lucky,lucky,,,,,,,,,0,72,72,72,,,,,,,,,,,,,,,1211.1946015609428,None,"['l', 'u', 'c', 'k', 'y']",1,"[1.1255604098550975, 1.3495608097873628, 1.501633936073631, 1.797548331785947, 2.1256164349615574]",1211.1946015609428,None,1211.1943707608618,1211.2944142492488,s20_09012022,001,2022_Sep_01_1549,test_typingtask_norepeats,2020.2.10,60.04227629135067,
buddy,buddy,,,,,,,,,0,73,73,73,,,,,,,,,,,,,,,1216.694085767027,None,"['b', 'u', 'f', 'd', 'y']",0,"[0.9621528261341155, 1.074025000911206, 1.386119888164103, 2.090060777030885, 2.2341221813112497]",1216.694085767027,None,1216.6943061261438,1216.794604117982,s20_09012022,001,2022_Sep_01_1549,test_typingtask_norepeats,2020.2.10,60.04227629135067,
zibja,zibja,,,,,,,,,0,74,74,74,,,,,,,,,,,,,,,1222.1946876542643,None,"['z', 'i', 'b', 'j', 'a']",1,"[1.901486056856811, 2.045516376849264, 2.2934282538481057, 2.5174402678385377, 2.5974941812455654]",1222.1946876542643,None,1222.1943294678815,1222.2944570393302,s20_09012022,001,2022_Sep_01_1549,test_typingtask_norepeats,2020.2.10,60.04227629135067,
vodka,vodka,,,,,,,,,0,75,75,75,,,,,,,,,,,,,,,1227.6945876833051,None,"['v', 'o', 'd', 'k', 'a']",1,"[1.2496401071548462, 1.465614196844399, 1.7455343771725893, 1.9216081779450178, 2.0255987062118948]",1227.6945876833051,None,1227.6945261338726,1227.794638323132,s20_09012022,001,2022_Sep_01_1549,test_typingtask_norepeats,2020.2.10,60.04227629135067,
druze,druze,,,,,,,,,0,76,76,76,,,,,,,,,,,,,,,1233.1944282231852,None,"['d', 'r', 'u', 'e']",0,"[1.3577863699756563, 1.461801864206791, 1.741827451158315, 2.2297631432302296]",1233.1944282231852,None,1233.1946466949769,1233.2944241389632,s20_09012022,001,2022_Sep_01_1549,test_typingtask_norepeats,2020.2.10,60.04227629135067,
think,think,,,,,,,,,0,77,77,77,,,,,,,,,,,,,,,1238.6943141701631,None,"['t', 'h', 'i', 'n', 'k']",1,"[0.8177835340611637, 0.9218960432335734, 1.0738573148846626, 1.2337739332579076, 1.401789028197527]",1238.6943141701631,None,1238.6945189328865,1238.7947093471885,s20_09012022,001,2022_Sep_01_1549,test_typingtask_norepeats,2020.2.10,60.04227629135067,
champ,champ,,,,,,,,,0,78,78,78,,,,,,,,,,,,,,,1244.194372603204,None,"['c', 'h', 'a', 'm', 'o']",0,"[0.8618513881228864, 1.0138664869591594, 1.1578656379133463, 1.3338275272399187, 1.4778424161486328]",1244.194372603204,None,1244.1946042997763,1244.2943621133454,s20_09012022,001,2022_Sep_01_1549,test_typingtask_norepeats,2020.2.10,60.04227629135067,
cooed,cooed,,,,,,,,,0,79,79,79,,,,,,,,,,,,,,,1249.6944337943569,None,"['c', 'o', 'o', 'e', 'd']",1,"[0.8417955478653312, 0.9936584550887346, 1.1297446549870074, 1.2417821758426726, 1.4256688430905342]",1249.6944337943569,None,1249.6943735320122,1249.7944578290917,s20_09012022,001,2022_Sep_01_1549,test_typingtask_norepeats,2020.2.10,60.04227629135067,
belly,belly,,,,,,,,,0,80,80,80,,,,,,,,,,,,,,,1255.1946323830634,None,"['b', 'e', 'l', 'l', 'y']",1,"[0.8616429208777845, 0.9815770420245826, 1.1656196741387248, 1.333524668123573, 1.5334875788539648]",1255.1946323830634,None,1255.1944659150206,1255.2946850452572,s20_09012022,001,2022_Sep_01_1549,test_typingtask_norepeats,2020.2.10,60.04227629135067,
pykka,pykka,,,,,,,,,0,81,81,81,,,,,,,,,,,,,,,1260.6944314753637,None,"['p', 'y', 'k', 'k', 'a']",1,"[1.0658044177107513, 1.3539797300472856, 1.833839442115277, 1.9618377778679132, 2.0658169998787344]",1260.6944314753637,None,1260.6943716106937,1260.7944343383424,s20_09012022,001,2022_Sep_01_1549,test_typingtask_norepeats,2020.2.10,60.04227629135067,
heond,heond,,,,,,,,,0,82,82,82,,,,,,,,,,,,,,,1266.1946358121932,None,"['h', 'e', 'o', 'n', 'd']",1,"[1.1174972727894783, 1.2374973520636559, 1.4056235840544105, 1.6295415158383548, 1.7975391577929258]",1266.1946358121932,None,1266.1942844049074,1266.2944413041696,s20_09012022,001,2022_Sep_01_1549,test_typingtask_norepeats,2020.2.10,60.04227629135067,
haole,haole,,,,,,,,,0,83,83,83,,,,,,,,,,,,,,,1271.6946287853643,None,"['h', 'a', 'o', 'l', 'e']",1,"[1.3696114108897746, 1.4656098210252821, 1.721579270903021, 1.913629012182355, 2.0016336189582944]",1271.6946287853643,None,1271.694549597148,1271.7943304972723,s20_09012022,001,2022_Sep_01_1549,test_typingtask_norepeats,2020.2.10,60.04227629135067,
druze,druze,,,,,,,,,0,84,84,84,,,,,,,,,,,,,,,1277.1946202102117,None,"['d', 'r', 'u', 'e']",0,"[1.2535988478921354, 1.389586034230888, 1.6696249721571803, 1.9975608731620014]",1277.1946202102117,None,1277.1946048930288,1277.2944168923423,s20_09012022,001,2022_Sep_01_1549,test_typingtask_norepeats,2020.2.10,60.04227629135067,
kremp,kremp,,,,,,,,,0,85,85,85,,,,,,,,,,,,,,,1282.694468793925,None,"['k', 'r', 'e', 'm', 'p']",1,"[1.0497264759615064, 1.2176665319129825, 1.3456804929301143, 1.8736778618767858, 2.0737915970385075]",1282.694468793925,None,1282.6961239141413,None,s20_09012022,001,2022_Sep_01_1549,test_typingtask_norepeats,2020.2.10,60.04227629135067,
buddy,buddy,,,,,,,,,0,86,86,86,,,,,,,,,,,,,,,1288.1946209711023,None,"['b', 'u', 'd', 'd', 'y']",1,"[1.085555313155055, 1.1975155919790268, 1.6455090721137822, 1.805508429184556, 1.9095018128864467]",1288.1946209711023,None,1288.194648297783,1288.2949075903744,s20_09012022,001,2022_Sep_01_1549,test_typingtask_norepeats,2020.2.10,60.04227629135067,
vodka,vodka,,,,,,,,,0,87,87,87,,,,,,,,,,,,,,,1293.6948122652248,None,"['v', 'o', 'd', 'k', 'a']",1,"[1.6494114152155817, 1.8253346378915012, 2.0973278488963842, 2.3293611090630293, 2.4253018270246685]",1293.6948122652248,None,1293.6945385460742,1293.7944880491123,s20_09012022,001,2022_Sep_01_1549,test_typingtask_norepeats,2020.2.10,60.04227629135067,
buddy,buddy,,,,,,,,,0,88,88,88,,,,,,,,,,,,,,,1299.1947188549675,None,"['b', 'u', 'd', 'd', 'y']",1,"[1.053525404073298, 1.1654805480502546, 1.5734103159047663, 1.7414054870605469, 1.8294765641912818]",1299.1947188549675,None,1299.1945645197295,1299.2947271079756,s20_09012022,001,2022_Sep_01_1549,test_typingtask_norepeats,2020.2.10,60.04227629135067,
zibja,zibja,,,,,,,,,0,89,89,89,,,,,,,,,,,,,,,1304.694530595094,None,"['z', 'i', 'b', 'j', 'a']",1,"[1.689746486954391, 1.8737101829610765, 2.081658552866429, 2.3056402909569442, 2.409594709984958]",1304.694530595094,None,1304.6945820639842,1304.7948496723548,s20_09012022,001,2022_Sep_01_1549,test_typingtask_norepeats,2020.2.10,60.04227629135067,
therm,therm,,,,,,,,,0,90,90,90,,,,,,,,,,,,,,,1310.1944453101605,None,"['t', 'h', 'e', 'r', 'm']",1,"[0.8297150270082057, 0.9737902660854161, 1.085668277926743, 1.2457284540869296, 1.3336954321712255]",1310.1944453101605,None,1310.1945904198103,1310.2946350723505,s20_09012022,001,2022_Sep_01_1549,test_typingtask_norepeats,2020.2.10,60.04227629135067,
pykka,pykka,,,,,,,,,0,91,91,91,,,,,,,,,,,,,,,1315.6944843851961,None,"['p', 'y', 'k', 'k', 'a']",1,"[1.1296769147738814, 1.4017776451073587, 1.69772558985278, 1.8336306428536773, 1.9137480910867453]",1315.6944843851961,None,1315.6944079820998,1315.7949347300455,s20_09012022,001,2022_Sep_01_1549,test_typingtask_norepeats,2020.2.10,60.04227629135067,
belly,belly,,,,,,,,,0,92,92,92,,,,,,,,,,,,,,,1321.194469769951,None,"['b', 'e', 'l', 'l', 'y']",1,"[0.8537741499021649, 1.0137269529514015, 1.1897742529399693, 1.3577678417786956, 1.5497593488544226]",1321.194469769951,None,1321.1947102628649,1321.2946486109868,s20_09012022,001,2022_Sep_01_1549,test_typingtask_norepeats,2020.2.10,60.04227629135067,
theme,theme,,,,,,,,,0,93,93,93,,,,,,,,,,,,,,,1326.694552729372,None,"['t', 'h', 'e', 'm', 'e']",1,"[0.7616885490715504, 0.8575661117210984, 1.0095680998638272, 1.2496357019990683, 1.3935937196947634]",1326.694552729372,None,1326.6941753861495,1326.7943567079492,s20_09012022,001,2022_Sep_01_1549,test_typingtask_norepeats,2020.2.10,60.04227629135067,
heond,heond,,,,,,,,,0,94,94,94,,,,,,,,,,,,,,,1332.1947283763438,None,"['h', 'e', 'o', 'n', 'd']",1,"[1.101474286057055, 1.2374676680192351, 1.4535120991058648, 1.7174027301371098, 1.8854400981217623]",1332.1947283763438,None,1332.1944895249792,1332.2944593951106,s20_09012022,001,2022_Sep_01_1549,test_typingtask_norepeats,2020.2.10,60.04227629135067,
cooed,cooed,,,,,,,,,0,95,95,95,,,,,,,,,,,,,,,1337.6947323512286,None,"['c', 'o', 'o', 'e', 'd']",1,"[0.8253949489444494, 0.9774258132092655, 1.1134556201286614, 1.2093961108475924, 1.4014838058501482]",1337.6947323512286,None,1337.6944864120335,1337.7947136713192,s20_09012022,001,2022_Sep_01_1549,test_typingtask_norepeats,2020.2.10,60.04227629135067,
would,would,,,,,,,,,0,96,96,96,,,,,,,,,,,,,,,1343.1945716659538,None,"['w', 'o', 'u', 'l', 'd']",1,"[1.0056225089356303, 1.1095626247115433, 1.2295875456184149, 1.4456645669415593, 1.565671200864017]",1343.1945716659538,None,1343.1944839728997,1343.2945220232941,s20_09012022,001,2022_Sep_01_1549,test_typingtask_norepeats,2020.2.10,60.04227629135067,
cooed,cooed,,,,,,,,,0,97,97,97,,,,,,,,,,,,,,,1348.6946555390023,None,"['c', 'o', 'o', 'e', 'd']",1,"[0.7934813150204718, 0.9375914093106985, 1.0734648741781712, 1.169591577257961, 1.3695520982146263]",1348.6946555390023,None,1348.6946551327594,1348.7945249150507,s20_09012022,001,2022_Sep_01_1549,test_typingtask_norepeats,2020.2.10,60.04227629135067,
think,think,,,,,,,,,0,98,98,98,,,,,,,,,,,,,,,1354.1946476050653,None,"['t', 'h', 'i', 'n', 'k']",1,"[0.717474561650306, 0.813576178625226, 1.005598058924079, 1.1174790998920798, 1.293488151859492]",1354.1946476050653,None,1354.1945298139938,1354.2944041793235,s20_09012022,001,2022_Sep_01_1549,test_typingtask_norepeats,2020.2.10,60.04227629135067,
would,would,,,,,,,,,0,99,99,99,,,,,,,,,,,,,,,1359.694713264238,None,"['w', 'o', 'u', 'l', 'd']",1,"[0.7374815768562257, 0.9054221860133111, 1.025407292880118, 1.2494921619072556, 1.4014735668897629]",1359.694713264238,None,1359.6945666687564,1359.7946872953326,s20_09012022,001,2022_Sep_01_1549,test_typingtask_norepeats,2020.2.10,60.04227629135067,
haole,haole,,,,,,,,,0,100,100,100,,,,,,,,,,,,,,,1365.1948265219107,None,"['h', 'a', 'o', 'l', 'e']",1,"[1.2293229289352894, 1.3332874267362058, 1.5894171330146492, 1.797407397069037, 1.893368910998106]",1365.1948265219107,None,1365.1948146720417,1365.2949025519192,s20_09012022,001,2022_Sep_01_1549,test_typingtask_norepeats,2020.2.10,60.04227629135067,
tithe,tithe,,,,,,,,,0,101,101,101,,,,,,,,,,,,,,,1370.6946832919493,None,"['t', 'i', 't', 'h', 'e']",1,"[0.8575464449822903, 0.9934666217304766, 1.121553034055978, 1.65749591588974, 1.7854312686249614]",1370.6946832919493,None,1370.6946941961535,1370.7947262460366,s20_09012022,001,2022_Sep_01_1549,test_typingtask_norepeats,2020.2.10,60.04227629135067,
lucky,lucky,,,,,,,,,0,102,102,102,,,,,,,,,,,,,,,1376.1946139452048,None,"['l', 'u', 'c', 'k', 'y']",1,"[0.9335266510024667, 1.1736199096776545, 1.3336026459001005, 1.4855743246152997, 1.9335224269889295]",1376.1946139452048,None,1376.1945844560862,1376.2945393179543,s20_09012022,001,2022_Sep_01_1549,test_typingtask_norepeats,2020.2.10,60.04227629135067,
would,would,,,,,,,,,0,103,103,103,,,,,,,,,,,,,,,1381.6945454101078,None,"['w', 'o', 'u', 'l', 'd']",1,"[1.017585861030966, 1.1056003808043897, 1.2017680797725916, 1.3936404730193317, 1.4976493697613478]",1381.6945454101078,None,1381.6946953370236,1381.795106376987,s20_09012022,001,2022_Sep_01_1549,test_typingtask_norepeats,2020.2.10,60.04227629135067,
pykka,pykka,,,,,,,,,0,104,104,104,,,,,,,,,,,,,,,1387.1945088962093,None,"['p', 'y', 'y', 'k', 'k', 'a']",0,"[1.0697229988873005, 1.3497202172875404, 1.5256135081872344, 2.2377384300343692, 2.3656894071027637, 2.5096186962909997]",1387.1945088962093,None,1387.194772749953,1387.2947211870924,s20_09012022,001,2022_Sep_01_1549,test_typingtask_norepeats,2020.2.10,60.04227629135067,
vodka,vodka,,,,,,,,,0,105,105,105,,,,,,,,,,,,,,,1392.6946876109578,None,"['v', 'o', 'd', 'k', 'a']",1,"[1.3055656710639596, 1.4895648201927543, 2.1135332519188523, 2.21744557376951, 2.3854895709082484]",1392.6946876109578,None,1392.6946454949677,1392.7946367370896,s20_09012022,001,2022_Sep_01_1549,test_typingtask_norepeats,2020.2.10,60.04227629135067,
kremp,kremp,,,,,,,,,0,106,106,106,,,,,,,,,,,,,,,1398.1947273439728,None,"['k', 'r', 'e', 'm', 'p']",1,"[1.3894704920239747, 1.477478093933314, 1.565511459019035, 1.7894082721322775, 1.9495034320279956]",1398.1947273439728,None,1398.1949683179148,1398.2945000133477,s20_09012022,001,2022_Sep_01_1549,test_typingtask_norepeats,2020.2.10,60.04227629135067,
belly,belly,,,,,,,,,0,107,107,107,,,,,,,,,,,,,,,1403.694966411218,None,"['b', 'e', 'l', 'l', 'y']",1,"[0.9692804906517267, 1.0972796706482768, 1.2971682730130851, 1.4652406168170273, 1.6572857988066971]",1403.694966411218,None,1403.6948769160547,1403.7951443400234,s20_09012022,001,2022_Sep_01_1549,test_typingtask_norepeats,2020.2.10,60.04227629135067,
cheer,cheer,,,,,,,,,0,108,108,108,,,,,,,,,,,,,,,1409.1947701792233,None,"['c', 'h', 'e', 'e', 'r']",1,"[1.0614704536274076, 1.221485171932727, 1.333441318012774, 1.5494671198539436, 1.5734272319823503]",1409.1947701792233,None,1409.194468708057,1409.2947199842893,s20_09012022,001,2022_Sep_01_1549,test_typingtask_norepeats,2020.2.10,60.04227629135067,
heond,heond,,,,,,,,,0,109,109,109,,,,,,,,,,,,,,,1414.6948253801093,None,"['h', 'e', 'o', 'n', 'd']",1,"[1.2013186872936785, 1.2813132172450423, 1.5053346301428974, 1.7694268212653697, 1.8973397822119296]",1414.6948253801093,None,1414.6946374366992,1414.7950780522078,s20_09012022,001,2022_Sep_01_1549,test_typingtask_norepeats,2020.2.10,60.04227629135067,
haole,haole,,,,,,,,,0,110,110,110,,,,,,,,,,,,,,,1420.1947956969962,None,"['h', 'a', 'o', 'l', 'e']",1,"[1.0293438383378088, 1.141455814242363, 1.3334241872653365, 1.5334566179662943, 1.6134193493053317]",1420.1947956969962,None,1420.19482149072,1420.2946521812119,s20_09012022,001,2022_Sep_01_1549,test_typingtask_norepeats,2020.2.10,60.04227629135067,
would,would,,,,,,,,,0,111,111,111,,,,,,,,,,,,,,,1425.6948518571444,None,"['w', 'o', 'u', 'l', 'd']",1,"[0.8973827362060547, 1.0413647713139653, 1.161367469932884, 1.4573901859112084, 1.5933144818991423]",1425.6948518571444,None,1425.6949079770595,1425.795061040204,s20_09012022,001,2022_Sep_01_1549,test_typingtask_norepeats,2020.2.10,60.04227629135067,
theme,theme,,,,,,,,,0,112,112,112,,,,,,,,,,,,,,,1431.1949231452309,None,"['t', 'h', 'e', 'e', 'm']",0,"[0.9092150181531906, 1.029233886860311, 1.1492833280935884, 1.4213310931809247, 1.469278766773641]",1431.1949231452309,None,1431.1947572639212,1431.2947769532911,s20_09012022,001,2022_Sep_01_1549,test_typingtask_norepeats,2020.2.10,60.04227629135067,
would,would,,,,,,,,,0,113,113,113,,,,,,,,,,,,,,,1436.6949556972831,None,"['w', 'o', 'u', 'l', 'd']",1,"[0.8811779008246958, 1.0171793140470982, 1.1292041870765388, 1.3292195247486234, 1.409181724768132]",1436.6949556972831,None,1436.6946020939388,1436.794824653305,s20_09012022,001,2022_Sep_01_1549,test_typingtask_norepeats,2020.2.10,60.04227629135067,
therm,therm,,,,,,,,,0,114,114,114,,,,,,,,,,,,,,,1442.1944658169523,None,"['t', 'h', 'e', 'r', 'm']",1,"[0.7416697908192873, 0.8617410608567297, 0.9896653457544744, 1.069750536698848, 1.1416652668267488]",1442.1944658169523,None,1442.1947188380175,1442.2949066301808,s20_09012022,001,2022_Sep_01_1549,test_typingtask_norepeats,2020.2.10,60.04227629135067,
champ,champ,,,,,,,,,0,115,115,115,,,,,,,,,,,,,,,1447.6948180971667,None,"['c', 'h', 'a', 'm', 'o']",0,"[0.77736492222175, 0.9054338349960744, 1.0813613161444664, 1.2494229241274297, 1.4014164311811328]",1447.6948180971667,None,1447.6946082951501,1447.794616209343,s20_09012022,001,2022_Sep_01_1549,test_typingtask_norepeats,2020.2.10,60.04227629135067,
about,about,,,,,,,,,0,116,116,116,,,,,,,,,,,,,,,1453.1947547201999,None,"['a', 'b', 'o', 'u', 't']",1,"[0.8374901311472058, 0.9013776392675936, 1.1894607404246926, 1.2694665002636611, 1.3654829883016646]",1453.1947547201999,None,1453.194802563917,1453.2948966720141,s20_09012022,001,2022_Sep_01_1549,test_typingtask_norepeats,2020.2.10,60.04227629135067,
buddy,buddy,,,,,,,,,0,117,117,117,,,,,,,,,,,,,,,1458.694685833063,None,"['b', 'u', 'd', 'd', 'y']",1,"[0.9455449432134628, 1.1214434332214296, 1.3294725231826305, 1.5055550909601152, 1.6415113601833582]",1458.694685833063,None,1458.6946470870637,1458.7948097889312,s20_09012022,001,2022_Sep_01_1549,test_typingtask_norepeats,2020.2.10,60.04227629135067,
therm,therm,,,,,,,,,0,118,118,118,,,,,,,,,,,,,,,1464.1947037889622,None,"['t', 'h', 'e', 'r', 'm']",1,"[0.7094197440892458, 0.8294953731819987, 0.9575489899143577, 1.021584671922028, 1.1415425301529467]",1464.1947037889622,None,1464.1947599801235,1464.2949625253677,s20_09012022,001,2022_Sep_01_1549,test_typingtask_norepeats,2020.2.10,60.04227629135067,
heond,heond,,,,,,,,,0,119,119,119,,,,,,,,,,,,,,,1469.6947455531918,None,"['h', 'e', 'o', 'n', 'd']",1,"[0.9615305261686444, 1.0734506328590214, 1.2814027648419142, 1.513486587908119, 1.6813955758698285]",1469.6947455531918,None,1469.6947442468256,1469.794870716054,s20_09012022,001,2022_Sep_01_1549,test_typingtask_norepeats,2020.2.10,60.04227629135067,
