string,corrAns,practice_trials.thisRepN,practice_trials.thisTrialN,practice_trials.thisN,practice_trials.thisIndex,trials_1.thisRepN,trials_1.thisTrialN,trials_1.thisN,trials_1.thisIndex,trials_2.thisRepN,trials_2.thisTrialN,trials_2.thisN,trials_2.thisIndex,key_resp_0.keys,key_resp_0.corr,key_resp_0.rt,text_1.started,text_1.stopped,key_resp_1.keys,key_resp_1.corr,key_resp_1.rt,key_resp_1.started,key_resp_1.stopped,sound_1A_1.started,sound_1A_1.stopped,break_time.started,break_time.stopped,text_2.started,text_2.stopped,key_resp_2.keys,key_resp_2.corr,key_resp_2.rt,key_resp_2.started,key_resp_2.stopped,sound_1A_2.started,sound_1A_2.stopped,participant,session,date,expName,psychopyVersion,frameRate,
fresh,fresh,0,0,0,0,,,,,,,,,"['f', 'r', 'e', 's', 'h']",1,"[1.467403271002695, 1.715379853034392, 1.9633844700292684, 2.1953825520467944, 2.3473813210148364]",,,,,,,,,,,,,,,,,,,,,p10_kasra_08052022,001,2022_Aug_05_1634,test_typingtask_norepeats,2020.2.10,60.00105866701967,
dream,dream,0,1,1,1,,,,,,,,,"['d', 'r', 'a', 'm']",0,"[1.384858317032922, 1.608834894024767, 2.4248670610249974, 2.6088346079923213]",,,,,,,,,,,,,,,,,,,,,p10_kasra_08052022,001,2022_Aug_05_1634,test_typingtask_norepeats,2020.2.10,60.00105866701967,
slime,slime,0,2,2,2,,,,,,,,,"['s', 'l', 'i', 'm', 'e']",1,"[1.0927744900109246, 1.3007825300446711, 1.508779134019278, 1.740786612033844, 1.8127700359909795]",,,,,,,,,,,,,,,,,,,,,p10_kasra_08052022,001,2022_Aug_05_1634,test_typingtask_norepeats,2020.2.10,60.00105866701967,
haole,haole,,,,,0,0,0,0,,,,,,,,184.93479658901924,None,"['h', 'a', 'i', 'backspace', 'o', 'l', 'e']",0,"[1.57147740497021, 1.7394242929876782, 2.019424142956268, 2.595436888979748, 2.9794780510128476, 3.147426854004152, 3.227453922969289]",184.93479658901924,None,184.92077793460922,185.0204648610088,,,,,,,,,,,,p10_kasra_08052022,001,2022_Aug_05_1634,test_typingtask_norepeats,2020.2.10,60.00105866701967,
buddy,buddy,,,,,0,1,1,1,,,,,,,,190.43919330299832,None,"['b', 'u', 'd', 'd', 'y']",1,"[1.2510919829946943, 1.5230573980370536, 1.8270996750216, 2.0030284890090115, 2.0910401709843427]",190.43919330299832,None,190.43725204462535,190.53709341201466,,,,,,,,,,,,p10_kasra_08052022,001,2022_Aug_05_1634,test_typingtask_norepeats,2020.2.10,60.00105866701967,
druze,druze,,,,,0,2,2,2,,,,,,,,195.95354599202983,None,"['d', 'r', 'u', 'z', 'e']",1,"[0.9126923400326632, 1.1368124230066314, 1.320724635035731, 1.6647293920395896, 1.9527325910166837]",195.95354599202983,None,195.9538680976315,196.05406432703603,,,,,,,,,,,,p10_kasra_08052022,001,2022_Aug_05_1634,test_typingtask_norepeats,2020.2.10,60.00105866701967,
puppy,puppy,,,,,0,3,3,3,,,,,,,,201.45403962704586,None,"['p', 'u', 'p', 'p', 'y']",1,"[1.0122487140470184, 1.5163247510208748, 1.7962493850500323, 1.9402203170466237, 2.124186149041634]",201.45403962704586,None,201.45458749763785,201.55371559900232,,,,,,,,,,,,p10_kasra_08052022,001,2022_Aug_05_1634,test_typingtask_norepeats,2020.2.10,60.00105866701967,
therm,therm,,,,,0,4,4,4,,,,,,,,206.9568577040336,None,"['t', 'h', 'e', 'r', 'm']",1,"[1.069384174013976, 1.285395770042669, 1.413475000008475, 1.613925283018034, 1.7416556540410966]",206.9568577040336,None,206.95380226959824,207.0538051800104,,,,,,,,,,,,p10_kasra_08052022,001,2022_Aug_05_1634,test_typingtask_norepeats,2020.2.10,60.00105866701967,
haole,haole,,,,,0,5,5,5,,,,,,,,212.4718335189973,None,"['h', 'a', 'o', 'l', 'e']",1,"[1.138388429011684, 1.3385968310176395, 1.5943915270036086, 1.77038621698739, 1.8743997699930333]",212.4718335189973,None,212.47062499862514,212.57058558403514,,,,,,,,,,,,p10_kasra_08052022,001,2022_Aug_05_1634,test_typingtask_norepeats,2020.2.10,60.00105866701967,
about,about,,,,,0,6,6,6,,,,,,,,217.98735853401013,None,"['a', 'b', 'o', 'u', 't']",1,"[0.8068606700398959, 1.0309079220169224, 1.2548558380221948, 1.4308952889987268, 1.5269129510270432]",217.98735853401013,None,217.9872157496342,218.08748140302487,,,,,,,,,,,,p10_kasra_08052022,001,2022_Aug_05_1634,test_typingtask_norepeats,2020.2.10,60.00105866701967,
champ,champ,,,,,0,7,7,7,,,,,,,,223.4873065620195,None,"['c', 'h', 'a', 'm', 'p']",1,"[0.9949217810062692, 1.1469758560415357, 1.3069319530040957, 1.4509232630371116, 1.6429248250206]",223.4873065620195,None,223.48775490664994,223.58745394699508,,,,,,,,,,,,p10_kasra_08052022,001,2022_Aug_05_1634,test_typingtask_norepeats,2020.2.10,60.00105866701967,
would,would,,,,,0,8,8,8,,,,,,,,228.98715056304354,None,"['w', 'o', 'u', 'l', 'd']",1,"[1.0550881139934063, 1.6631460990174673, 1.8791133550112136, 2.247173292969819, 2.3590683930087835]",228.98715056304354,None,228.9873355966469,229.08724839100614,,,,,,,,,,,,p10_kasra_08052022,001,2022_Aug_05_1634,test_typingtask_norepeats,2020.2.10,60.00105866701967,
vanru,vanru,,,,,0,9,9,9,,,,,,,,234.4967967090197,None,"['v', 'a', 'n', 'r', 'u']",1,"[1.3694499870180152, 1.465441517997533, 1.7374493419774808, 1.977542602980975, 2.1058488939888775]",234.4967967090197,None,234.48839810363134,234.58784449403174,,,,,,,,,,,,p10_kasra_08052022,001,2022_Aug_05_1634,test_typingtask_norepeats,2020.2.10,60.00105866701967,
pykka,pykka,,,,,0,10,10,10,,,,,,,,240.00348087004386,None,"['p', 'y', 'k', 'k', 'a', 'f']",0,"[1.1427403209963813, 1.5107968329684809, 1.8227720009745099, 1.9427500540041365, 2.030796126986388, 2.662784610991366]",240.00348087004386,None,240.003386605595,240.10333047102904,,,,,,,,,,,,p10_kasra_08052022,001,2022_Aug_05_1634,test_typingtask_norepeats,2020.2.10,60.00105866701967,
would,would,,,,,0,11,11,11,,,,,,,,245.50353498803452,None,"['w', 'u', 'l', 'd']",0,"[0.9867430080194026, 1.6906834159744903, 2.0106899910024367, 2.1226846849895082]",245.50353498803452,None,245.50436269259663,None,,,,,,,,,,,,p10_kasra_08052022,001,2022_Aug_05_1634,test_typingtask_norepeats,2020.2.10,60.00105866701967,
cheer,cheer,,,,,0,12,12,12,,,,,,,,251.00374351302162,None,"['c', 'h', 'e', 'e', 'r']",1,"[0.8544838590314612, 1.014475753006991, 1.1904709150549024, 1.3825538420351222, 1.5744726289995015]",251.00374351302162,None,251.00362829561928,251.10350275202654,,,,,,,,,,,,p10_kasra_08052022,001,2022_Aug_05_1634,test_typingtask_norepeats,2020.2.10,60.00105866701967,
about,about,,,,,0,13,13,13,,,,,,,,256.5035783810308,None,"['a', 'b', 'o', 'u', 't']",1,"[0.9706672840402462, 1.1786410119966604, 1.4586364240385592, 1.7786792440456338, 1.898713687027339]",256.5035783810308,None,256.50341178360975,256.60336171102244,,,,,,,,,,,,p10_kasra_08052022,001,2022_Aug_05_1634,test_typingtask_norepeats,2020.2.10,60.00105866701967,
zibja,zibja,,,,,0,14,14,14,,,,,,,,262.0049387370236,None,"['a', 'b', 'i', 'j']",0,"[1.317280118004419, 1.6293155379826203, 3.0692737409844995, 3.405266560963355]",262.0049387370236,None,262.0048137086036,None,,,,,,,,,,,,p10_kasra_08052022,001,2022_Aug_05_1634,test_typingtask_norepeats,2020.2.10,60.00105866701967,
druze,druze,,,,,0,15,15,15,,,,,,,,267.52020710799843,None,"['d', 'r', 'u', 'z', 'e']",1,"[1.2660567429848015, 1.5140199500019662, 1.6420142980059609, 1.9140097869676538, 2.170062713965308]",267.52020710799843,None,267.52022484661427,267.62022080499446,,,,,,,,,,,,p10_kasra_08052022,001,2022_Aug_05_1634,test_typingtask_norepeats,2020.2.10,60.00105866701967,
vanru,vanru,,,,,0,16,16,16,,,,,,,,273.02018597500864,None,"['v', 'a', 'n', 'r', 'u']",1,"[1.0700766860391013, 1.1740288430009969, 1.3740181929897517, 1.542021363042295, 1.670067569008097]",273.02018597500864,None,273.02020114160257,273.12038653402124,,,,,,,,,,,,p10_kasra_08052022,001,2022_Aug_05_1634,test_typingtask_norepeats,2020.2.10,60.00105866701967,
buddy,buddy,,,,,0,17,17,17,,,,,,,,278.5203478560434,None,"['b', 'u', 'd', 'd', 'y']",1,"[0.8659401399781927, 1.1138953879708424, 1.2898578469757922, 1.465964952018112, 1.561907393974252]",278.5203478560434,None,278.52018752263973,278.6202871670248,,,,,,,,,,,,p10_kasra_08052022,001,2022_Aug_05_1634,test_typingtask_norepeats,2020.2.10,60.00105866701967,
tithe,tithe,,,,,0,18,18,18,,,,,,,,284.0202036810224,None,"['t', 'i', 't', 'h', 'e']",1,"[1.1020637270412408, 1.414017639006488, 1.7180611380026676, 1.942023619019892, 2.0540623030392453]",284.0202036810224,None,284.0201655976183,284.1201842970331,,,,,,,,,,,,p10_kasra_08052022,001,2022_Aug_05_1634,test_typingtask_norepeats,2020.2.10,60.00105866701967,
kremp,kremp,,,,,0,19,19,19,,,,,,,,289.5202364710276,None,"['k', 'r', 'e', 'm', 'p']",1,"[1.1700374420033768, 1.297976556001231, 1.5219770449912176, 1.6579890149878338, 1.8820166590157896]",289.5202364710276,None,289.52004567563415,289.620091830031,,,,,,,,,,,,p10_kasra_08052022,001,2022_Aug_05_1634,test_typingtask_norepeats,2020.2.10,60.00105866701967,
cooed,cooed,,,,,0,20,20,20,,,,,,,,295.02020530903246,None,"['c', 'o', 'o', 'e', 'd']",1,"[1.0220110119553283, 1.4140128629514948, 1.8460132549516857, 2.2300992109812796, 2.4540525960037485]",295.02020530903246,None,295.02029207960584,295.1201217120397,,,,,,,,,,,,p10_kasra_08052022,001,2022_Aug_05_1634,test_typingtask_norepeats,2020.2.10,60.00105866701967,
vanru,vanru,,,,,0,21,21,21,,,,,,,,300.5203470860142,None,"['v', 'a', 'n', 'r', 'u']",1,"[1.065948917006608, 1.2178781449911185, 1.4178795999614522, 1.5699347839690745, 1.6979093969566748]",300.5203470860142,None,300.52027887659494,300.620347454038,,,,,,,,,,,,p10_kasra_08052022,001,2022_Aug_05_1634,test_typingtask_norepeats,2020.2.10,60.00105866701967,
puppy,puppy,,,,,0,22,22,22,,,,,,,,306.02037497999845,None,"['p', 'u', 'p', 'p', 'y']",1,"[0.9178700670017861, 1.2218199289636686, 1.6298723410000093, 1.7978222519741394, 1.8938456230098382]",306.02037497999845,None,306.0201489756058,306.12011467304546,,,,,,,,,,,,p10_kasra_08052022,001,2022_Aug_05_1634,test_typingtask_norepeats,2020.2.10,60.00105866701967,
faqir,faqir,,,,,0,23,23,23,,,,,,,,311.5207692750264,None,"['f', 'a', 'q', 'i', 'r']",1,"[1.857440444000531, 1.961440269020386, 2.201506461016834, 2.4414409280288965, 3.09744005597895]",311.5207692750264,None,311.5201852756494,311.6202872390277,,,,,,,,,,,,p10_kasra_08052022,001,2022_Aug_05_1634,test_typingtask_norepeats,2020.2.10,60.00105866701967,
cooed,cooed,,,,,0,24,24,24,,,,,,,,317.020254083036,None,"['c', 'o', 'o', 'e', 'd']",1,"[0.8379664300009608, 1.03000572999008, 1.1820360079873353, 1.349991915980354, 1.5660387059906498]",317.020254083036,None,317.0202949086146,317.120344911993,,,,,,,,,,,,p10_kasra_08052022,001,2022_Aug_05_1634,test_typingtask_norepeats,2020.2.10,60.00105866701967,
there,there,,,,,0,25,25,25,,,,,,,,322.5201958900434,None,"['t', 'h', 'e', 'r', 'e']",1,"[0.906021717004478, 1.10602458298672, 1.194027028977871, 1.3860753659973852, 1.5781271969899535]",322.5201958900434,None,322.5203772386361,322.6203895310173,,,,,,,,,,,,p10_kasra_08052022,001,2022_Aug_05_1634,test_typingtask_norepeats,2020.2.10,60.00105866701967,
puppy,puppy,,,,,0,26,26,26,,,,,,,,328.02030222903704,None,"['p', 'u', 'p', 'p', 'y']",1,"[0.8779879409703426, 1.237912462966051, 1.6299561189953238, 1.78195842000423, 1.8779901210218668]",328.02030222903704,None,328.02039718960293,328.12011207599426,,,,,,,,,,,,p10_kasra_08052022,001,2022_Aug_05_1634,test_typingtask_norepeats,2020.2.10,60.00105866701967,
tithe,tithe,,,,,0,27,27,27,,,,,,,,333.52017856104067,None,"['t', 'i', 't', 'h', 'e']",1,"[0.9300783390062861, 1.1140887499786913, 1.1940386740025133, 1.3620392989832908, 1.4740399760194123]",333.52017856104067,None,333.5204610216373,333.6203469460015,,,,,,,,,,,,p10_kasra_08052022,001,2022_Aug_05_1634,test_typingtask_norepeats,2020.2.10,60.00105866701967,
lucky,lucky,,,,,0,28,28,28,,,,,,,,339.0202781680273,None,"['l', 'u', 'c', 'k', 'y']",1,"[0.9659865919966251, 1.2619560689781792, 1.4939412110252306, 1.637936728016939, 1.8939412549952976]",339.0202781680273,None,339.0204320446413,339.1203666010406,,,,,,,,,,,,p10_kasra_08052022,001,2022_Aug_05_1634,test_typingtask_norepeats,2020.2.10,60.00105866701967,
cheer,cheer,,,,,0,29,29,29,,,,,,,,344.520288455009,None,"['c', 'h', 'e', 'e', 'r']",1,"[0.7459232459659688, 0.9219180049840361, 1.065965857997071, 1.2419331209966913, 1.44192968896823]",344.520288455009,None,344.5202522386156,344.6204359430121,,,,,,,,,,,,p10_kasra_08052022,001,2022_Aug_05_1634,test_typingtask_norepeats,2020.2.10,60.00105866701967,
haole,haole,,,,,0,30,30,30,,,,,,,,350.0205701790401,None,"['h', 'a', 'o', 'l', 'e']",1,"[0.9816560230101459, 1.0696739600389265, 1.2696762840496376, 1.4376205640146509, 1.5176993510103785]",350.0205701790401,None,350.0202616135997,350.1201994899893,,,,,,,,,,,,p10_kasra_08052022,001,2022_Aug_05_1634,test_typingtask_norepeats,2020.2.10,60.00105866701967,
puppy,puppy,,,,,0,31,31,31,,,,,,,,355.52031623601215,None,"['p', 'u', 'p', 'y', 'p']",0,"[0.9779562070034444, 1.2179661870468408, 1.47392984299222, 1.753963057009969, 1.8899027320439927]",355.52031623601215,None,355.52026663761933,355.62014102202374,,,,,,,,,,,,p10_kasra_08052022,001,2022_Aug_05_1634,test_typingtask_norepeats,2020.2.10,60.00105866701967,
belly,belly,,,,,0,32,32,32,,,,,,,,361.0203154400224,None,"['b', 'e', 'l', 'l', 'y']",1,"[0.8939058690448292, 1.0539926700294018, 1.2619056060211733, 1.4139042160240933, 1.5339054740034044]",361.0203154400224,None,361.0203296516032,361.12030779203633,,,,,,,,,,,,p10_kasra_08052022,001,2022_Aug_05_1634,test_typingtask_norepeats,2020.2.10,60.00105866701967,
lucky,lucky,,,,,0,33,33,33,,,,,,,,366.52029278100235,None,"['l', 'u', 'c', 'h', 'y']",0,"[1.0180166839854792, 1.3939288849942386, 1.7939235210069455, 1.9699662210186943, 3.1619409709819593]",366.52029278100235,None,366.52021413262116,366.6202017440228,,,,,,,,,,,,p10_kasra_08052022,001,2022_Aug_05_1634,test_typingtask_norepeats,2020.2.10,60.00105866701967,
cooed,cooed,,,,,0,34,34,34,,,,,,,,372.0204077429953,None,"['c', 'o', 'o', 'e', 'd']",1,"[0.8298717039870098, 1.0378164639696479, 1.1738113450119272, 1.301860356994439, 1.5498745829681866]",372.0204077429953,None,372.02123784664434,372.1201869780198,,,,,,,,,,,,p10_kasra_08052022,001,2022_Aug_05_1634,test_typingtask_norepeats,2020.2.10,60.00105866701967,
cheer,cheer,,,,,0,35,35,35,,,,,,,,377.5203666079906,None,"['c', 'h', 'e', 'e', 'r']",1,"[0.7378497140016407, 0.9058485730201937, 1.057853997044731, 1.2818898030091077, 1.5058509460068308]",377.5203666079906,None,377.52035878564345,377.6203007050208,,,,,,,,,,,,p10_kasra_08052022,001,2022_Aug_05_1634,test_typingtask_norepeats,2020.2.10,60.00105866701967,
belly,belly,,,,,0,36,36,36,,,,,,,,383.02053413703106,None,"['b', 'e', 'l', 'l', 'l', 'y']",0,"[0.7976809140527621, 0.9256856780266389, 1.173691594041884, 1.3177334979991429, 1.461695142032113, 1.629799175017979]",383.02053413703106,None,383.0203343196248,383.12031462899176,,,,,,,,,,,,p10_kasra_08052022,001,2022_Aug_05_1634,test_typingtask_norepeats,2020.2.10,60.00105866701967,
vanru,vanru,,,,,0,37,37,37,,,,,,,,388.53687067801366,None,"['v', 'a', 'n', 'r', 'u']",1,"[1.129354499047622, 1.2413486370351166, 1.4014861360192299, 1.5533970820251852, 1.6733473120257258]",388.53687067801366,None,388.5371557146485,388.63711349799996,,,,,,,,,,,,p10_kasra_08052022,001,2022_Aug_05_1634,test_typingtask_norepeats,2020.2.10,60.00105866701967,
cooed,cooed,,,,,0,38,38,38,,,,,,,,394.0371864470071,None,"['c', 'o', 'o', 'e', 'd']",1,"[1.0210668559884652, 1.2050459409947507, 1.3491051840246655, 1.4691119429771788, 1.7970365619985387]",394.0371864470071,None,394.03708337562273,394.1370576280169,,,,,,,,,,,,p10_kasra_08052022,001,2022_Aug_05_1634,test_typingtask_norepeats,2020.2.10,60.00105866701967,
would,would,,,,,0,39,39,39,,,,,,,,399.5372206240427,None,"['w', 'o', 'u', 'l', 'd']",1,"[1.0330603869515471, 1.38507594098337, 1.640996762958821, 1.9770097519503906, 2.104993086948525]",399.5372206240427,None,399.53696658462866,399.63698577304604,,,,,,,,,,,,p10_kasra_08052022,001,2022_Aug_05_1634,test_typingtask_norepeats,2020.2.10,60.00105866701967,
about,about,,,,,0,40,40,40,,,,,,,,405.03697261901107,None,"['a', 'b', 'o', 'u', 't']",1,"[1.0614029939752072, 1.2372439129976556, 1.493309966986999, 1.701251575956121, 1.8053316769655794]",405.03697261901107,None,405.0368842576339,405.136988666025,,,,,,,,,,,,p10_kasra_08052022,001,2022_Aug_05_1634,test_typingtask_norepeats,2020.2.10,60.00105866701967,
therm,therm,,,,,0,41,41,41,,,,,,,,410.53697573801037,None,"['t', 'h', 'e', 'r', 'm']",1,"[0.9212457190151326, 1.1453425079816952, 1.2412387789809145, 1.4492989580030553, 1.5452828059787862]",410.53697573801037,None,410.53711913963195,410.6380652959924,,,,,,,,,,,,p10_kasra_08052022,001,2022_Aug_05_1634,test_typingtask_norepeats,2020.2.10,60.00105866701967,
vodka,vodka,,,,,0,42,42,42,,,,,,,,416.0371486520162,None,"['v', 'o', 'd', 'k', 'a']",1,"[1.0451457020244561, 1.7250951300375164, 1.845129072025884, 1.973064596997574, 2.1570672880043276]",416.0371486520162,None,416.0369223226502,416.1370805260376,,,,,,,,,,,,p10_kasra_08052022,001,2022_Aug_05_1634,test_typingtask_norepeats,2020.2.10,60.00105866701967,
tithe,tithe,,,,,0,43,43,43,,,,,,,,421.5373280380154,None,"['t', 'i', 't', 'h', 'e']",1,"[0.8648858270025812, 1.0088487190078013, 1.1129126320010982, 1.2808478130027652, 1.4648874970152974]",421.5373280380154,None,421.5371087206353,421.63697119703284,,,,,,,,,,,,p10_kasra_08052022,001,2022_Aug_05_1634,test_typingtask_norepeats,2020.2.10,60.00105866701967,
edthe,edthe,,,,,0,44,44,44,,,,,,,,427.0370867050369,None,"['e', 'd', 't', 'h', 'e']",1,"[1.4931450330186635, 1.6931576530332677, 1.7971600760356523, 2.021129581029527, 2.117134709027596]",427.0370867050369,None,427.03714341461307,427.1369798940141,,,,,,,,,,,,p10_kasra_08052022,001,2022_Aug_05_1634,test_typingtask_norepeats,2020.2.10,60.00105866701967,
zibja,zibja,,,,,0,45,45,45,,,,,,,,432.53727955400245,None,"['z', 'i', 'b', 'j']",0,"[2.3129933710442856, 2.5369732810067944, 3.1049366400111467, 3.4650076950201765]",432.53727955400245,None,432.5371484826377,432.63710412499495,,,,,,,,,,,,p10_kasra_08052022,001,2022_Aug_05_1634,test_typingtask_norepeats,2020.2.10,60.00105866701967,
cheer,cheer,,,,,0,46,46,46,,,,,,,,438.0537133900216,None,"['c', 'h', 'e', 'e', 'r']",1,"[0.9165378420148045, 1.0445625590509735, 1.1724887500167824, 1.4285205579944886, 1.4285205579944886]",438.0537133900216,None,438.05384095264014,438.1538492880063,,,,,,,,,,,,p10_kasra_08052022,001,2022_Aug_05_1634,test_typingtask_norepeats,2020.2.10,60.00105866701967,
lucky,lucky,,,,,0,47,47,47,,,,,,,,443.5538294730359,None,"['l', 'u', 'c', 'k', 'y']",1,"[0.8083970969892107, 1.1923874610220082, 1.344437102030497, 1.5044091730378568, 1.7364315779996105]",443.5538294730359,None,443.5538357346144,443.653782642039,,,,,,,,,,,,p10_kasra_08052022,001,2022_Aug_05_1634,test_typingtask_norepeats,2020.2.10,60.00105866701967,
about,about,,,,,0,48,48,48,,,,,,,,449.0537049859995,None,"['a', 'b', 'o', 'u', 't']",1,"[1.0605277310241945, 1.2205131869995967, 1.5565140530234203, 1.8125167810358107, 1.9085270910291001]",449.0537049859995,None,449.0539302016317,449.15375617402606,,,,,,,,,,,,p10_kasra_08052022,001,2022_Aug_05_1634,test_typingtask_norepeats,2020.2.10,60.00105866701967,
champ,champ,,,,,0,49,49,49,,,,,,,,454.55380475503625,None,"['c', 'h', 'a', 'm', 'p']",1,"[0.8484592739841901, 1.0004122820100747, 1.2004157539922744, 1.408413007040508, 1.7684579310007393]",454.55380475503625,None,454.5536876656173,454.65385945903836,,,,,,,,,,,,p10_kasra_08052022,001,2022_Aug_05_1634,test_typingtask_norepeats,2020.2.10,60.00105866701967,
heond,heond,,,,,0,50,50,50,,,,,,,,460.05436652799835,None,"['h', 'e', 'o', 'n', 'd']",1,"[1.651924842968583, 2.0439252969808877, 2.203839246998541, 2.48388855002122, 2.89984235400334]",460.05436652799835,None,460.0542159015953,460.15385221899487,,,,,,,,,,,,p10_kasra_08052022,001,2022_Aug_05_1634,test_typingtask_norepeats,2020.2.10,60.00105866701967,
vodka,vodka,,,,,0,51,51,51,,,,,,,,465.55371662200196,None,"['v', 'o', 'd', 'k', 'a']",1,"[1.0165481769945472, 1.1685846289619803, 1.3285472230054438, 1.5605087459553033, 1.6644996849936433]",465.55371662200196,None,465.55377969163817,465.6537759670173,,,,,,,,,,,,p10_kasra_08052022,001,2022_Aug_05_1634,test_typingtask_norepeats,2020.2.10,60.00105866701967,
zibja,zibja,,,,,0,52,52,52,,,,,,,,471.0538528190227,None,"['z', 'i', 'b', 'j', 'a']",1,"[1.3403620640165173, 1.5324116430128925, 1.7643616890418343, 1.980401219043415, 2.0524341740529053]",471.0538528190227,None,471.0536343906482,471.1537031439948,,,,,,,,,,,,p10_kasra_08052022,001,2022_Aug_05_1634,test_typingtask_norepeats,2020.2.10,60.00105866701967,
about,about,,,,,0,53,53,53,,,,,,,,476.5540043960209,None,"['a', 'b', 'o', 'u', 't']",1,"[0.8642130649532191, 1.0002221819595434, 1.232252471963875, 1.4162604910088703, 1.4962546739843674]",476.5540043960209,None,476.5541538516467,476.6537671550177,,,,,,,,,,,,p10_kasra_08052022,001,2022_Aug_05_1634,test_typingtask_norepeats,2020.2.10,60.00105866701967,
kremp,kremp,,,,,0,54,54,54,,,,,,,,482.05401748704026,None,"['k', 'r', 'e', 'm', 'p']",1,"[1.0522452130098827, 1.1803679619915783, 1.4121977500035428, 1.5401954149710946, 1.7721960519556887]",482.05401748704026,None,482.0537994086102,482.1539672650397,,,,,,,,,,,,p10_kasra_08052022,001,2022_Aug_05_1634,test_typingtask_norepeats,2020.2.10,60.00105866701967,
tithe,tithe,,,,,0,55,55,55,,,,,,,,487.5538971230271,None,"['t', 'i', 't', 'h', 'e']",1,"[1.0003276049974374, 1.1043186630122364, 1.2003228350076824, 1.3603648099815473, 1.4803888750029728]",487.5538971230271,None,487.5537199426384,487.6536811190308,,,,,,,,,,,,p10_kasra_08052022,001,2022_Aug_05_1634,test_typingtask_norepeats,2020.2.10,60.00105866701967,
heond,heond,,,,,0,56,56,56,,,,,,,,493.0539922330063,None,"['h', 'e', 'o', 'n', 'd']",1,"[1.1562568440567702, 1.3242589470464736, 1.444276983034797, 1.67623474705033, 1.8202582450467162]",493.0539922330063,None,493.0538825626194,493.15364636300365,,,,,,,,,,,,p10_kasra_08052022,001,2022_Aug_05_1634,test_typingtask_norepeats,2020.2.10,60.00105866701967,
there,there,,,,,0,57,57,57,,,,,,,,498.55385785200633,None,"['t', 'h', 'e', 'r', 'e']",1,"[0.7763630470144562, 1.1284735670196824, 1.2403956460184418, 1.4563585930154659, 1.6563564520329237]",498.55385785200633,None,498.5539342436299,498.6538960750331,,,,,,,,,,,,p10_kasra_08052022,001,2022_Aug_05_1634,test_typingtask_norepeats,2020.2.10,60.00105866701967,
think,think,,,,,0,58,58,58,,,,,,,,504.0537692470243,None,"['t', 'h', 'i', 'n', 'k']",1,"[0.876456385012716, 1.1084512550150976, 1.3324926089844666, 1.5244817130151205, 1.748521575005725]",504.0537692470243,None,504.0539237615943,504.1539177550003,,,,,,,,,,,,p10_kasra_08052022,001,2022_Aug_05_1634,test_typingtask_norepeats,2020.2.10,60.00105866701967,
druze,druze,,,,,0,59,59,59,,,,,,,,509.5538354419987,None,"['d', 'r', 'u', 'z', 'e']",1,"[1.0804566229926422, 1.3043756569968536, 1.432417647971306, 1.7043777789804153, 1.9763948429608718]",509.5538354419987,None,509.5540282705973,509.65384668903425,,,,,,,,,,,,p10_kasra_08052022,001,2022_Aug_05_1634,test_typingtask_norepeats,2020.2.10,60.00105866701967,
belly,belly,,,,,0,60,60,60,,,,,,,,515.0537210360053,None,"['b', 'e', 'l', 'l', 'y']",1,"[0.8285769989597611, 0.9405366579885595, 1.1644935899530537, 1.3165391059592366, 1.4605164919630624]",515.0537210360053,None,515.0540350376453,515.1538950550021,,,,,,,,,,,,p10_kasra_08052022,001,2022_Aug_05_1634,test_typingtask_norepeats,2020.2.10,60.00105866701967,
edthe,edthe,,,,,0,61,61,61,,,,,,,,520.5537217340316,None,"['e', 'd', 't', 'h', 'e']",1,"[0.920482337998692, 1.1285233660019003, 1.3205502339988016, 1.5044673850061372, 1.576482489996124]",520.5537217340316,None,520.5540859056113,520.6539600440301,,,,,,,,,,,,p10_kasra_08052022,001,2022_Aug_05_1634,test_typingtask_norepeats,2020.2.10,60.00105866701967,
think,think,,,,,0,62,62,62,,,,,,,,526.0538578760461,None,"['t', 'h', 'i', 'n', 'k']",1,"[0.7964252330129966, 0.9003861069795676, 1.0843758709961548, 1.3083776900311932, 1.5003490659873933]",526.0538578760461,None,526.0538001146109,526.1541022430174,,,,,,,,,,,,p10_kasra_08052022,001,2022_Aug_05_1634,test_typingtask_norepeats,2020.2.10,60.00105866701967,
theme,theme,,,,,0,63,63,63,,,,,,,,531.5540742320009,None,"['t', 'h', 'e', 'm', 'e']",1,"[0.8241307139978744, 1.1121849049814045, 1.576157154981047, 1.7121593710035086, 1.8081337719922885]",531.5540742320009,None,531.5539437566243,531.6539178169915,,,,,,,,,,,,p10_kasra_08052022,001,2022_Aug_05_1634,test_typingtask_norepeats,2020.2.10,60.00105866701967,
think,think,,,,,0,64,64,64,,,,,,,,537.0537731079967,None,"['t', 'h', 'i', 'n', 'k']",1,"[0.8764517169911414, 1.0285093190032057, 1.2044441479956731, 1.3965534479939379, 1.6044381280080415]",537.0537731079967,None,537.0538343405991,537.1537297189934,,,,,,,,,,,,p10_kasra_08052022,001,2022_Aug_05_1634,test_typingtask_norepeats,2020.2.10,60.00105866701967,
therm,therm,,,,,0,65,65,65,,,,,,,,542.5543031510315,None,"['t', 'h', 'e', 'r', 'm']",1,"[0.8639041180140339, 1.0079046980245039, 1.1599653779994696, 1.4479468979989178, 1.6239061870146543]",542.5543031510315,None,542.5539994476188,542.6539353430271,,,,,,,,,,,,p10_kasra_08052022,001,2022_Aug_05_1634,test_typingtask_norepeats,2020.2.10,60.00105866701967,
kremp,kremp,,,,,0,66,66,66,,,,,,,,548.0548344069975,None,"['k', 'r', 'e', 'm', 'p']",1,"[0.9154823190183379, 1.043503976019565, 1.2514428160502575, 1.323419702006504, 1.5394033130141906]",548.0548344069975,None,548.0545294806419,548.1544000600115,,,,,,,,,,,,p10_kasra_08052022,001,2022_Aug_05_1634,test_typingtask_norepeats,2020.2.10,60.00105866701967,
champ,champ,,,,,0,67,67,67,,,,,,,,553.5547788760159,None,"['c', 'h', 'a', 'm', 'p']",1,"[0.8394493570085615, 1.0795492970501073, 1.2554456480429508, 1.4394389580120333, 1.6874679640168324]",553.5547788760159,None,553.5543817826023,553.6546176260454,,,,,,,,,,,,p10_kasra_08052022,001,2022_Aug_05_1634,test_typingtask_norepeats,2020.2.10,60.00105866701967,
faqir,faqir,,,,,0,68,68,68,,,,,,,,559.0714702780242,None,"['f', 'a', 'q', 'i', 'r']",1,"[0.9227317799814045, 1.3707556659937836, 1.6107864390360191, 1.7227635980234481, 1.9067439869977534]",559.0714702780242,None,559.0709769995941,559.1714565980365,,,,,,,,,,,,p10_kasra_08052022,001,2022_Aug_05_1634,test_typingtask_norepeats,2020.2.10,60.00105866701967,
therm,therm,,,,,0,69,69,69,,,,,,,,564.5711962990463,None,"['t', 'h', 'e', 'r', 'm']",1,"[0.7991281850263476, 1.023083491018042, 1.1430409040185623, 1.3590411870391108, 1.4310321590164676]",564.5711962990463,None,564.5712709696439,564.6710710850311,,,,,,,,,,,,p10_kasra_08052022,001,2022_Aug_05_1634,test_typingtask_norepeats,2020.2.10,60.00105866701967,
pykka,pykka,,,,,0,70,70,70,,,,,,,,570.071488837013,None,"['p', 'y', 'k', 'k', 'a']",1,"[1.1467387730372138, 1.4507424090406857, 1.7707363840308972, 1.9148124960483983, 2.0427472620503977]",570.071488837013,None,570.071330486628,570.1709635480074,,,,,,,,,,,,p10_kasra_08052022,001,2022_Aug_05_1634,test_typingtask_norepeats,2020.2.10,60.00105866701967,
faqir,faqir,,,,,0,71,71,71,,,,,,,,575.570547381998,None,"['f', 'a', 'q', 'i', 'r']",1,"[1.007663264987059, 1.3676692789886147, 1.591663500003051, 1.7197172610322013, 1.8797174770152196]",575.570547381998,None,575.5707356736006,575.6706804220448,,,,,,,,,,,,p10_kasra_08052022,001,2022_Aug_05_1634,test_typingtask_norepeats,2020.2.10,60.00105866701967,
think,think,,,,,0,72,72,72,,,,,,,,581.0706940820091,None,"['t', 'h', 'i', 'n', 'k']",1,"[0.787512078997679, 0.9155530880088918, 1.4115677360096015, 1.643524929007981, 1.8675281290197745]",581.0706940820091,None,581.0705148886249,581.1706611239933,,,,,,,,,,,,p10_kasra_08052022,001,2022_Aug_05_1634,test_typingtask_norepeats,2020.2.10,60.00105866701967,
champ,champ,,,,,0,73,73,73,,,,,,,,586.5705025159987,None,"['c', 'h', 'a', 'm', 'p']",1,"[0.7357578960363753, 0.9597280550515279, 1.055711452034302, 1.231752977008, 1.4797652310226113]",586.5705025159987,None,586.5706229296105,586.670604545041,,,,,,,,,,,,p10_kasra_08052022,001,2022_Aug_05_1634,test_typingtask_norepeats,2020.2.10,60.00105866701967,
haole,haole,,,,,0,74,74,74,,,,,,,,592.0705298770336,None,"['h', 'a', 'o', 'l', 'e']",1,"[1.0756844870047644, 1.203761722019408, 1.395723091030959, 1.563729442015756, 1.667691187991295]",592.0705298770336,None,592.0705998456164,592.1707926670206,,,,,,,,,,,,p10_kasra_08052022,001,2022_Aug_05_1634,test_typingtask_norepeats,2020.2.10,60.00105866701967,
pykka,pykka,,,,,0,75,75,75,,,,,,,,597.5718824040378,None,"['p', 'y', 'k', 'k', 'a']",1,"[0.9983846709947102, 1.2783896430046298, 1.4623840510030277, 1.606337353005074, 1.7183843820239417]",597.5718824040378,None,597.5713559286145,597.6705888709985,,,,,,,,,,,,p10_kasra_08052022,001,2022_Aug_05_1634,test_typingtask_norepeats,2020.2.10,60.00105866701967,
edthe,edthe,,,,,0,76,76,76,,,,,,,,603.0874887559912,None,"['e', 'd', 't', 'h', 'e']",1,"[0.8987977340002544, 1.114772481028922, 1.25876363000134, 1.4587309689959511, 1.5547660710290074]",603.0874887559912,None,603.0873391886183,603.1872540740296,,,,,,,,,,,,p10_kasra_08052022,001,2022_Aug_05_1634,test_typingtask_norepeats,2020.2.10,60.00105866701967,
faqir,faqir,,,,,0,77,77,77,,,,,,,,608.5875231910031,None,"['f', 'a', 'q', 'i', 'r']",1,"[0.9346882299869321, 1.246802175999619, 1.518745785986539, 1.70312759000808, 1.8627692890004255]",608.5875231910031,None,608.587616098643,608.6872698040097,,,,,,,,,,,,p10_kasra_08052022,001,2022_Aug_05_1634,test_typingtask_norepeats,2020.2.10,60.00105866701967,
vodka,vodka,,,,,0,78,78,78,,,,,,,,614.0871695459937,None,"['v', 'o', 'd', 'k', 'a']",1,"[0.9310667280224152, 1.1711229690117761, 1.3631055389996618, 1.5710441900300793, 1.6910446230322123]",614.0871695459937,None,614.0874976926192,614.1874090150231,,,,,,,,,,,,p10_kasra_08052022,001,2022_Aug_05_1634,test_typingtask_norepeats,2020.2.10,60.00105866701967,
pykka,pykka,,,,,0,79,79,79,,,,,,,,619.5872044970165,None,"['p', 'y', 'k', 'k', 'a']",1,"[1.0630049729952589, 1.4070107489824295, 1.7830519499839284, 1.967004015983548, 2.1190873500308953]",619.5872044970165,None,619.5875746016449,619.68735707202,,,,,,,,,,,,p10_kasra_08052022,001,2022_Aug_05_1634,test_typingtask_norepeats,2020.2.10,60.00105866701967,
kremp,kremp,,,,,0,80,80,80,,,,,,,,625.0872418810031,None,"['k', 'r', 'e', 'm', 'p']",1,"[1.099017275031656, 1.2350226260023192, 1.450983131013345, 1.53897486301139, 1.8030247549759224]",625.0872418810031,None,625.0873657746182,625.1873738190043,,,,,,,,,,,,p10_kasra_08052022,001,2022_Aug_05_1634,test_typingtask_norepeats,2020.2.10,60.00105866701967,
vodka,vodka,,,,,0,81,81,81,,,,,,,,630.5874179720413,None,"['v', 'o', 'd', 'k', 'a']",1,"[1.1348758779931813, 2.0787877980037592, 2.2227888929774053, 2.5268021369702183, 2.6147880269563757]",630.5874179720413,None,630.587368850602,630.6874021510012,,,,,,,,,,,,p10_kasra_08052022,001,2022_Aug_05_1634,test_typingtask_norepeats,2020.2.10,60.00105866701967,
cheer,cheer,,,,,0,82,82,82,,,,,,,,636.0874295110116,None,"['c', 'h', 'e', 'e', 'r']",1,"[1.0987795619876124, 1.314814520010259, 1.6028248729999177, 1.8187814780394547, 2.0747331370366737]",636.0874295110116,None,636.0872475496202,636.1874826850253,,,,,,,,,,,,p10_kasra_08052022,001,2022_Aug_05_1634,test_typingtask_norepeats,2020.2.10,60.00105866701967,
cooed,cooed,,,,,0,83,83,83,,,,,,,,641.5876019989955,None,"['c', 'o', 'o', 'e', 'd']",1,"[0.8226111860130914, 1.038646791013889, 1.2226098229875788, 1.3266381219727919, 1.56661154597532]",641.5876019989955,None,641.5876212946081,641.6875252810423,,,,,,,,,,,,p10_kasra_08052022,001,2022_Aug_05_1634,test_typingtask_norepeats,2020.2.10,60.00105866701967,
faqir,faqir,,,,,0,84,84,84,,,,,,,,647.0873751240433,None,"['f', 'a', 'q', 'i', 'r']",1,"[0.8748448819969781, 1.3068423889926635, 1.5868866199743934, 1.7388545769499615, 1.8908389499993064]",647.0873751240433,None,647.087246213638,647.1874231080292,,,,,,,,,,,,p10_kasra_08052022,001,2022_Aug_05_1634,test_typingtask_norepeats,2020.2.10,60.00105866701967,
there,there,,,,,0,85,85,85,,,,,,,,652.5873481630115,None,"['t', 'h', 'e', 'r', 'e']",1,"[0.8949573769932613, 1.1108676150324754, 1.230904144991655, 1.4228701239917427, 1.6229265650035813]",652.5873481630115,None,652.5873871566204,652.6872448700015,,,,,,,,,,,,p10_kasra_08052022,001,2022_Aug_05_1634,test_typingtask_norepeats,2020.2.10,60.00105866701967,
would,would,,,,,0,86,86,86,,,,,,,,658.0873258950305,None,"['w', 'o', 'u', 'l', 'd']",1,"[0.8189349389867857, 1.0349776379880495, 1.2829301980091259, 1.6189362870063633, 1.7309101840364747]",658.0873258950305,None,658.0873827286472,658.1873097569915,,,,,,,,,,,,p10_kasra_08052022,001,2022_Aug_05_1634,test_typingtask_norepeats,2020.2.10,60.00105866701967,
belly,belly,,,,,0,87,87,87,,,,,,,,663.5876585220103,None,"['b', 'e', 'l', 'l', 'y']",1,"[0.814597287971992, 0.934602310997434, 1.1665637120022438, 1.3106219919864088, 1.4946181990089826]",663.5876585220103,None,663.5876558716467,663.6874273930443,,,,,,,,,,,,p10_kasra_08052022,001,2022_Aug_05_1634,test_typingtask_norepeats,2020.2.10,60.00105866701967,
buddy,buddy,,,,,0,88,88,88,,,,,,,,669.0873804110452,None,"['b', 'u', 'd', 'd', 'y']",1,"[0.738863569975365, 0.9868826160090975, 1.1308372389758006, 1.3068384409998544, 1.3949057729914784]",669.0873804110452,None,669.087471819605,669.1873252119985,,,,,,,,,,,,p10_kasra_08052022,001,2022_Aug_05_1634,test_typingtask_norepeats,2020.2.10,60.00105866701967,
there,there,,,,,0,89,89,89,,,,,,,,674.5876228910056,None,"['t', 'h', 'e', 'r', 'e']",1,"[0.7826703949831426, 0.9746925589861348, 1.0786121189594269, 1.262612550985068, 1.4626091429963708]",674.5876228910056,None,674.5874978926207,674.6874857009971,,,,,,,,,,,,p10_kasra_08052022,001,2022_Aug_05_1634,test_typingtask_norepeats,2020.2.10,60.00105866701967,
lucky,lucky,,,,,0,90,90,90,,,,,,,,680.08740175399,None,"['l', 'u', 'c', 'k', 'y']",1,"[0.7948726619943045, 1.114816894987598, 1.3148577010142617, 1.4668210559757426, 1.754809155012481]",680.08740175399,None,680.0875156086462,680.1875394660165,,,,,,,,,,,,p10_kasra_08052022,001,2022_Aug_05_1634,test_typingtask_norepeats,2020.2.10,60.00105866701967,
would,would,,,,,0,91,91,91,,,,,,,,685.6040747649968,None,"['w', 'o', 'u', 'l', 'd']",1,"[0.8862076040240936, 1.1101498090429232, 1.4941358320065774, 1.9021926849964075, 2.038130101049319]",685.6040747649968,None,685.6041031996195,685.7039995910018,,,,,,,,,,,,p10_kasra_08052022,001,2022_Aug_05_1634,test_typingtask_norepeats,2020.2.10,60.00105866701967,
buddy,buddy,,,,,0,92,92,92,,,,,,,,691.1040790550178,None,"['b', 'u', 'd', 'd', 'y']",1,"[0.8741419700090773, 1.1862134159891866, 1.4261532030068338, 1.6021852070116438, 1.698188501992263]",691.1040790550178,None,691.1041279805999,691.2039867250132,,,,,,,,,,,,p10_kasra_08052022,001,2022_Aug_05_1634,test_typingtask_norepeats,2020.2.10,60.00105866701967,
heond,heond,,,,,0,93,93,93,,,,,,,,696.6043598820106,None,"['h', 'e', 'o', 'n', 'd']",1,"[0.9498559820349328, 1.037858606025111, 1.221855140000116, 1.4618580430396833, 1.621849671995733]",696.6043598820106,None,696.6043403036368,696.7040875169914,,,,,,,,,,,,p10_kasra_08052022,001,2022_Aug_05_1634,test_typingtask_norepeats,2020.2.10,60.00105866701967,
edthe,edthe,,,,,0,94,94,94,,,,,,,,702.1042812660453,None,"['e', 'd', 't', 'h', 'e']",1,"[0.8339437570539303, 1.049935766030103, 1.1540186130441725, 1.345976191048976, 1.409941564023029]",702.1042812660453,None,702.1040195736044,702.2040493840468,,,,,,,,,,,,p10_kasra_08052022,001,2022_Aug_05_1634,test_typingtask_norepeats,2020.2.10,60.00105866701967,
buddy,buddy,,,,,0,95,95,95,,,,,,,,707.6040930789895,None,"['b', 'u', 'd', 'd', 'y']",1,"[0.7741468289750628, 0.9821647189673968, 1.126128115982283, 1.2941716489731334, 1.3821632459876128]",707.6040930789895,None,707.6040682146034,707.7040038999985,,,,,,,,,,,,p10_kasra_08052022,001,2022_Aug_05_1634,test_typingtask_norepeats,2020.2.10,60.00105866701967,
vodka,vodka,,,,,0,96,96,96,,,,,,,,713.1043765740469,None,"['v', 'o', 'd', 'j', 'k', 'a']",0,"[0.8658845800091513, 1.4979022560291924, 1.6258533879881725, 1.7858917160192505, 2.76184985000873, 2.8898435109877028]",713.1043765740469,None,713.104997404624,713.2041435230058,,,,,,,,,,,,p10_kasra_08052022,001,2022_Aug_05_1634,test_typingtask_norepeats,2020.2.10,60.00105866701967,
edthe,edthe,,,,,0,97,97,97,,,,,,,,718.6209283920471,None,"['e', 'd', 't', 'h', 'e']",1,"[0.9172737299813889, 1.1172928619780578, 1.2133126700064167, 1.373264173977077, 1.421291103004478]",718.6209283920471,None,718.6208038725948,718.7209503600025,,,,,,,,,,,,p10_kasra_08052022,001,2022_Aug_05_1634,test_typingtask_norepeats,2020.2.10,60.00105866701967,
kremp,kremp,,,,,0,98,98,98,,,,,,,,724.1381255750312,None,"['k', 'r', 'e', 'm', 'p']",1,"[0.9121099800104275, 1.1361403670161963, 1.3361994579900056, 1.4000794640160166, 1.5601248209713958]",724.1381255750312,None,724.1380197816237,724.2380058109993,,,,,,,,,,,,p10_kasra_08052022,001,2022_Aug_05_1634,test_typingtask_norepeats,2020.2.10,60.00105866701967,
theme,theme,,,,,0,99,99,99,,,,,,,,729.6389556990471,None,"['t', 'h', 'e', 'm', 'e']",1,"[0.8032707250094973, 0.9872548659914173, 1.099252347019501, 1.2353769580367953, 1.3392862459877506]",729.6389556990471,None,729.6380616396258,729.7381136270124,,,,,,,,,,,,p10_kasra_08052022,001,2022_Aug_05_1634,test_typingtask_norepeats,2020.2.10,60.00105866701967,
heond,heond,,,,,0,100,100,100,,,,,,,,735.1543697580346,None,"['h', 'e', 'o', 'n', 'd']",1,"[0.9199077599914744, 1.1119901919737458, 1.2799143269658089, 1.5279505910002626, 1.6558511559851468]",735.1543697580346,None,735.154448531632,735.2544201540295,,,,,,,,,,,,p10_kasra_08052022,001,2022_Aug_05_1634,test_typingtask_norepeats,2020.2.10,60.00105866701967,
puppy,puppy,,,,,0,101,101,101,,,,,,,,740.654851372994,None,"['p', 'u', 'p', 'p', 'y']",1,"[0.9873730659601279, 1.275375481985975, 1.6753774069948122, 1.8674554649624042, 1.9794157720170915]",740.654851372994,None,740.6548013716296,740.754133341019,,,,,,,,,,,,p10_kasra_08052022,001,2022_Aug_05_1634,test_typingtask_norepeats,2020.2.10,60.00105866701967,
pykka,pykka,,,,,0,102,102,102,,,,,,,,746.1542823589989,None,"['p', 'y', 'k', 'k', 'k', 'a']",0,"[1.1439932229695842, 1.4559353619697504, 1.751980968983844, 1.8719607180100866, 2.111938479996752, 2.2799774109735154]",746.1542823589989,None,746.1541378126188,746.2540560429916,,,,,,,,,,,,p10_kasra_08052022,001,2022_Aug_05_1634,test_typingtask_norepeats,2020.2.10,60.00105866701967,
druze,druze,,,,,0,103,103,103,,,,,,,,751.6543331050198,None,"['d', 'r', 'u', 'z', 'e']",1,"[1.0679217069991864, 1.2679604559671134, 1.3638817659812048, 1.6118880189605989, 1.9078757489915006]",751.6543331050198,None,751.6542549466307,751.7541625419981,,,,,,,,,,,,p10_kasra_08052022,001,2022_Aug_05_1634,test_typingtask_norepeats,2020.2.10,60.00105866701967,
lucky,lucky,,,,,0,104,104,104,,,,,,,,757.1542177860392,None,"['l', 'u', 'c', 'k', 'y']",1,"[0.9280463519971818, 1.343987233005464, 1.4960230609867722, 1.62398687901441, 1.7759810449788347]",757.1542177860392,None,757.1541864436061,757.254177771043,,,,,,,,,,,,p10_kasra_08052022,001,2022_Aug_05_1634,test_typingtask_norepeats,2020.2.10,60.00105866701967,
zibja,zibja,,,,,0,105,105,105,,,,,,,,762.6541198210325,None,"['z', 'i', 'b', 'j', 'a']",1,"[1.6281833809916861, 1.8361970179830678, 2.148099640966393, 2.4040967879700474, 2.5481027250061743]",762.6541198210325,None,762.6542983526073,762.7543233530014,,,,,,,,,,,,p10_kasra_08052022,001,2022_Aug_05_1634,test_typingtask_norepeats,2020.2.10,60.00105866701967,
theme,theme,,,,,0,106,106,106,,,,,,,,768.1542929680436,None,"['t', 'h', 'e', 'm', 'e']",1,"[0.8799675280461088, 1.1119502070359886, 1.2239222450298257, 1.3519745020312257, 1.4559290570323355]",768.1542929680436,None,768.154254841624,768.254131224996,,,,,,,,,,,,p10_kasra_08052022,001,2022_Aug_05_1634,test_typingtask_norepeats,2020.2.10,60.00105866701967,
therm,therm,,,,,0,107,107,107,,,,,,,,773.6541313860216,None,"['t', 'h', 'e', 'r', 'm']",1,"[0.79607511498034, 1.004072169016581, 1.132114990032278, 1.3161517860135064, 1.4121667710132897]",773.6541313860216,None,773.6546802736178,773.7542256489978,,,,,,,,,,,,p10_kasra_08052022,001,2022_Aug_05_1634,test_typingtask_norepeats,2020.2.10,60.00105866701967,
vanru,vanru,,,,,0,108,108,108,,,,,,,,779.154263419041,None,"['v', 'a', 'n', 'r', 'u']",1,"[1.223942401993554, 1.3439454679610208, 1.5360222949529998, 1.6879409679677337, 1.8079776469967328]",779.154263419041,None,779.1544301346352,779.2543107430101,,,,,,,,,,,,p10_kasra_08052022,001,2022_Aug_05_1634,test_typingtask_norepeats,2020.2.10,60.00105866701967,
zibja,zibja,,,,,0,109,109,109,,,,,,,,784.6542235660017,None,"['z', 'i', 'b', 'j', 'a']",1,"[1.147970564023126, 1.3079712039907463, 1.5720438350108452, 1.8280312020215206, 1.9320341960410587]",784.6542235660017,None,784.6541630466294,784.7542969640344,,,,,,,,,,,,p10_kasra_08052022,001,2022_Aug_05_1634,test_typingtask_norepeats,2020.2.10,60.00105866701967,
tithe,tithe,,,,,0,110,110,110,,,,,,,,790.1551368060173,None,"['t', 'i', 't', 'h']",0,"[1.127135073998943, 1.2870689659612253, 1.3830775310052559, 1.5191331509849988]",790.1551368060173,None,790.1547947806015,790.2542179900338,,,,,,,,,,,,p10_kasra_08052022,001,2022_Aug_05_1634,test_typingtask_norepeats,2020.2.10,60.00105866701967,
haole,haole,,,,,0,111,111,111,,,,,,,,795.6709131840034,None,"['h', 'a', 'o', 'l', 'e']",1,"[1.2033791049616411, 1.3313011419959366, 1.523303217953071, 1.7233026309986599, 1.8193454190040939]",795.6709131840034,None,795.6708621086494,795.7707371520228,,,,,,,,,,,,p10_kasra_08052022,001,2022_Aug_05_1634,test_typingtask_norepeats,2020.2.10,60.00105866701967,
druze,druze,,,,,0,112,112,112,,,,,,,,801.1710859520244,None,"['d', 'r', 'u', 'z', 'e']",1,"[1.0231314490083605, 1.271125129016582, 1.3991706459783018, 1.719222933985293, 1.9911261620000005]",801.1710859520244,None,801.171034456644,801.2708744610427,,,,,,,,,,,,p10_kasra_08052022,001,2022_Aug_05_1634,test_typingtask_norepeats,2020.2.10,60.00105866701967,
there,there,,,,,0,113,113,113,,,,,,,,806.6711094620405,None,"['t', 'h', 'e', 'r', 'e']",1,"[0.7711368120508268, 0.9631505850120448, 1.0351753210416064, 1.235153576999437, 1.4191522800247185]",806.6711094620405,None,806.6708837806422,806.7710168620106,,,,,,,,,,,,p10_kasra_08052022,001,2022_Aug_05_1634,test_typingtask_norepeats,2020.2.10,60.00105866701967,
theme,theme,,,,,0,114,114,114,,,,,,,,812.1709316020133,None,"['t', 'h', 'e', 'm', 'e']",1,"[0.8232830649940297, 1.0072789959958754, 1.1273232660023496, 1.295291134971194, 1.3592862390214577]",812.1709316020133,None,812.170992558595,812.2709496360039,,,,,,,,,,,,p10_kasra_08052022,001,2022_Aug_05_1634,test_typingtask_norepeats,2020.2.10,60.00105866701967,
champ,champ,,,,,0,115,115,115,,,,,,,,817.6709961480228,None,"['c', 'h', 'a', 'm', 'p']",1,"[0.7072189899627119, 0.8832661539781839, 1.0512941419729032, 1.1792205259553157, 1.4112780939904042]",817.6709961480228,None,817.6708496926061,817.7708192150458,,,,,,,,,,,,p10_kasra_08052022,001,2022_Aug_05_1634,test_typingtask_norepeats,2020.2.10,60.00105866701967,
think,think,,,,,0,116,116,116,,,,,,,,823.1707892120467,None,"['t', 'h', 'i', 'n', 'k']",1,"[0.7194613799802028, 0.903470255958382, 1.1274193749995902, 1.3115342750097625, 1.5034734809887595]",823.1707892120467,None,823.1710517166124,823.2709702870343,,,,,,,,,,,,p10_kasra_08052022,001,2022_Aug_05_1634,test_typingtask_norepeats,2020.2.10,60.00105866701967,
heond,heond,,,,,0,117,117,117,,,,,,,,828.6709013539949,None,"['h', 'e', 'o', 'n', 'd']",1,"[0.9073133199708536, 1.363357633992564, 1.5233145169913769, 1.8273175199865364, 2.0433291539666243]",828.6709013539949,None,828.6710964505968,828.7708973310073,,,,,,,,,,,,p10_kasra_08052022,001,2022_Aug_05_1634,test_typingtask_norepeats,2020.2.10,60.00105866701967,
theme,theme,,,,,0,118,118,118,,,,,,,,834.1710129450075,None,"['t', 'h', 'e', 'm', 'e']",1,"[0.8392052769777365, 1.0312017329852097, 1.1352473839651793, 1.2952347309910692, 1.3752384369727224]",834.1710129450075,None,834.1710352796421,834.2710751830018,,,,,,,,,,,,p10_kasra_08052022,001,2022_Aug_05_1634,test_typingtask_norepeats,2020.2.10,60.00105866701967,
belly,belly,,,,,0,119,119,119,,,,,,,,839.6710162570234,None,"['b', 'e', 'l', 'l', 'y']",1,"[0.7632696639630012, 0.9152406019857153, 1.2672032609698363, 1.4592036429676227, 1.5792018189677037]",839.6710162570234,None,839.6709366186464,839.7710347810062,,,,,,,,,,,,p10_kasra_08052022,001,2022_Aug_05_1634,test_typingtask_norepeats,2020.2.10,60.00105866701967,
lucky,lucky,,,,,,,,,0,0,0,0,,,,,,,,,,,,,845.1710051019909,None,851.764495660027,None,"['l', 'u', 'c', 'k', 'y']",1,"[0.981735578039661, 1.2777863850351423, 1.4217831150162965, 1.5977461939910427, 1.861746957001742]",851.764495660027,None,851.7556557646079,851.8544247940299,p10_kasra_08052022,001,2022_Aug_05_1634,test_typingtask_norepeats,2020.2.10,60.00105866701967,
faqir,faqir,,,,,,,,,0,1,1,1,,,,,,,,,,,,,,,857.2717273200396,None,"['f', 'a', 'q', 'i', 'r']",1,"[0.9784719190211035, 1.1145083350129426, 1.3545566109823994, 1.5384667689795606, 1.7064691680134274]",857.2717273200396,None,857.2708766216005,857.371093410009,p10_kasra_08052022,001,2022_Aug_05_1634,test_typingtask_norepeats,2020.2.10,60.00105866701967,
zibja,zibja,,,,,,,,,0,2,2,2,,,,,,,,,,,,,,,862.7726699840277,None,"['z', 'i', 'b', 'j', 'a']",1,"[1.1415516539709643, 1.3495482630096376, 1.6136314009781927, 1.8695388429914601, 1.981556584010832]",862.7726699840277,None,862.7716668356501,862.8715695030405,p10_kasra_08052022,001,2022_Aug_05_1634,test_typingtask_norepeats,2020.2.10,60.00105866701967,
therm,therm,,,,,,,,,0,3,3,3,,,,,,,,,,,,,,,868.2876736640465,None,"['t', 'h', 'e', 'm', 'r']",0,"[0.7706115060136653, 0.9705443800194189, 1.074543952010572, 1.2985852750134654, 1.4025933840312064]",868.2876736640465,None,868.2877173055953,868.3877255020197,p10_kasra_08052022,001,2022_Aug_05_1634,test_typingtask_norepeats,2020.2.10,60.00105866701967,
about,about,,,,,,,,,0,4,4,4,,,,,,,,,,,,,,,873.7875595900114,None,"['a', 'b', 'o', 'u', 't']",1,"[0.8226558360038325, 0.9426785599789582, 1.206657806003932, 1.398696631018538, 1.4867154560051858]",873.7875595900114,None,873.7877500786038,873.8877521440154,p10_kasra_08052022,001,2022_Aug_05_1634,test_typingtask_norepeats,2020.2.10,60.00105866701967,
tithe,tithe,,,,,,,,,0,5,5,5,,,,,,,,,,,,,,,879.2888448050362,None,"['t', 'i', 't', 'h', 'e']",1,"[0.7454129830002785, 0.8893697959720157, 0.9693703780067153, 1.129371393006295, 1.2333815699676052]",879.2888448050362,None,879.2886484416143,879.3878564490005,p10_kasra_08052022,001,2022_Aug_05_1634,test_typingtask_norepeats,2020.2.10,60.00105866701967,
theme,theme,,,,,,,,,0,6,6,6,,,,,,,,,,,,,,,884.804331699037,None,"['t', 'h', 'e', 'm', 'e']",1,"[0.757889143016655, 0.9499361679772846, 1.0540024079964496, 1.2058872429770418, 1.3019063679967076]",884.804331699037,None,884.8044840015995,884.9044833240332,p10_kasra_08052022,001,2022_Aug_05_1634,test_typingtask_norepeats,2020.2.10,60.00105866701967,
druze,druze,,,,,,,,,0,7,7,7,,,,,,,,,,,,,,,890.3050709569943,None,"['d', 'r', 'i', 'z', 'e']",0,"[0.8891497069853358, 1.1211447169771418, 1.2411599239567295, 1.9451523079769686, 2.249273783992976]",890.3050709569943,None,890.3048794456466,890.4042826560326,p10_kasra_08052022,001,2022_Aug_05_1634,test_typingtask_norepeats,2020.2.10,60.00105866701967,
cheer,cheer,,,,,,,,,0,8,8,8,,,,,,,,,,,,,,,895.821248916036,None,"['c', 'h', 'e', 'e', 'r']",1,"[0.6929854930494912, 0.8690589740290307, 1.1809714680421166, 1.365011673013214, 1.5730035680462606]",895.821248916036,None,895.8210695906367,895.9210970679997,p10_kasra_08052022,001,2022_Aug_05_1634,test_typingtask_norepeats,2020.2.10,60.00105866701967,
heond,heond,,,,,,,,,0,9,9,9,,,,,,,,,,,,,,,901.3211973489961,None,"['h', 'e', 'o', 'n', 'd']",1,"[1.0810757220024243, 1.153069073043298, 1.3450820360449143, 1.5611081279930659, 1.665059460035991]",901.3211973489961,None,901.3209522186138,901.4210336850374,p10_kasra_08052022,001,2022_Aug_05_1634,test_typingtask_norepeats,2020.2.10,60.00105866701967,
champ,champ,,,,,,,,,0,10,10,10,,,,,,,,,,,,,,,906.821099488996,None,"['c', 'h', 'a', 'm', 'p']",1,"[0.8451607379829511, 1.021115332026966, 1.133156432013493, 1.2691607940359972, 1.4611751409829594]",906.821099488996,None,906.8210445866047,906.9212199510075,p10_kasra_08052022,001,2022_Aug_05_1634,test_typingtask_norepeats,2020.2.10,60.00105866701967,
there,there,,,,,,,,,0,11,11,11,,,,,,,,,,,,,,,912.3209982740227,None,"['t', 'h', 'e', 'r', 'e']",1,"[0.8492584520136006, 1.0732170630362816, 1.265262998000253, 1.3613172310288064, 1.5852565290406346]",912.3209982740227,None,912.3211359446344,912.4210663239937,p10_kasra_08052022,001,2022_Aug_05_1634,test_typingtask_norepeats,2020.2.10,60.00105866701967,
champ,champ,,,,,,,,,0,12,12,12,,,,,,,,,,,,,,,917.8210508510238,None,"['c', 'h', 'a', 'm', 'p']",1,"[0.813207870000042, 0.9891722940374166, 1.2212336880038492, 1.453248808044009, 1.7571672380436212]",917.8210508510238,None,917.8212657836324,917.9210833040415,p10_kasra_08052022,001,2022_Aug_05_1634,test_typingtask_norepeats,2020.2.10,60.00105866701967,
edthe,edthe,,,,,,,,,0,13,13,13,,,,,,,,,,,,,,,923.3225681750337,None,"['e', 'd', 't', 'h', 'e']",1,"[0.9597275879932567, 1.3836883339681663, 1.5597601240151562, 1.7356436100089923, 1.8637033349950798]",923.3225681750337,None,923.3214640656428,923.4211599589908,p10_kasra_08052022,001,2022_Aug_05_1634,test_typingtask_norepeats,2020.2.10,60.00105866701967,
vanru,vanru,,,,,,,,,0,14,14,14,,,,,,,,,,,,,,,928.8376637580222,None,"['c', 'v', 'a', 'n', 'r', 'u']",0,"[0.8205855879932642, 1.9725526599795558, 2.284560011990834, 2.4686194239766337, 2.6045568239642307, 2.7085577149991877]",928.8376637580222,None,928.837608050619,928.9379025640083,p10_kasra_08052022,001,2022_Aug_05_1634,test_typingtask_norepeats,2020.2.10,60.00105866701967,
faqir,faqir,,,,,,,,,0,15,15,15,,,,,,,,,,,,,,,934.3396245880285,None,"['f', 'a', 'q', 'i', 'r']",1,"[0.9186404240317643, 1.31865612603724, 1.5506024680216797, 1.7346930149942636, 1.8946568390238099]",934.3396245880285,None,934.3386659296287,934.4377109880443,p10_kasra_08052022,001,2022_Aug_05_1634,test_typingtask_norepeats,2020.2.10,60.00105866701967,
lucky,lucky,,,,,,,,,0,16,16,16,,,,,,,,,,,,,,,939.8376905400073,None,"['l', 'u', 'c', 'k', 'y']",1,"[1.6446165770175867, 1.9405267179827206, 2.1325644070166163, 2.236572558991611, 2.5085216559818946]",939.8376905400073,None,939.8379411445989,939.9377130300272,p10_kasra_08052022,001,2022_Aug_05_1634,test_typingtask_norepeats,2020.2.10,60.00105866701967,
think,think,,,,,,,,,0,17,17,17,,,,,,,,,,,,,,,945.3379080080194,None,"['t', 'h', 'i', 'n', 'k']",1,"[0.9123141909949481, 1.0643058349960484, 1.304307812009938, 1.5923125519766472, 1.7603135249810293]",945.3379080080194,None,945.3378935866116,945.4378244890249,p10_kasra_08052022,001,2022_Aug_05_1634,test_typingtask_norepeats,2020.2.10,60.00105866701967,
belly,belly,,,,,,,,,0,18,18,18,,,,,,,,,,,,,,,950.8379918709979,None,"['b', 'e', 'l', 'l', 'y']",1,"[0.8602366710547358, 1.0522694300161675, 1.2762278590234928, 1.4523399290046655, 1.7402578570181504]",950.8379918709979,None,950.8376768415968,950.9378124750219,p10_kasra_08052022,001,2022_Aug_05_1634,test_typingtask_norepeats,2020.2.10,60.00105866701967,
puppy,puppy,,,,,,,,,0,19,19,19,,,,,,,,,,,,,,,956.3379891320365,None,"['p', 'u', 'p', 'p', 'y']",1,"[1.144288097973913, 1.4803144210018218, 1.7283276889938861, 1.944274419976864, 2.104278903978411]",956.3379891320365,None,956.3378697036009,956.4378540620091,p10_kasra_08052022,001,2022_Aug_05_1634,test_typingtask_norepeats,2020.2.10,60.00105866701967,
tithe,tithe,,,,,,,,,0,20,20,20,,,,,,,,,,,,,,,961.837661802012,None,"['t', 'i', 't', 'h', 'e']",1,"[0.9405510979704559, 1.1085528699913993, 1.2366027159732766, 1.3805914389668033, 1.5405868560192175]",961.837661802012,None,961.8378715105995,961.9380365210236,p10_kasra_08052022,001,2022_Aug_05_1634,test_typingtask_norepeats,2020.2.10,60.00105866701967,
theme,theme,,,,,,,,,0,21,21,21,,,,,,,,,,,,,,,967.3377966110129,None,"['t', 'h', 'e', 'm', 'e']",1,"[0.7924283680040389, 1.0724200569675304, 1.2484696849714965, 1.424420288996771, 1.5364691019640304]",967.3377966110129,None,967.3379732376255,967.4378441119916,p10_kasra_08052022,001,2022_Aug_05_1634,test_typingtask_norepeats,2020.2.10,60.00105866701967,
there,there,,,,,,,,,0,22,22,22,,,,,,,,,,,,,,,972.8378467080183,None,"['t', 'h', 'e', 'r', 'e']",1,"[0.9484461580286734, 1.0843835470150225, 1.236418362997938, 1.460383752011694, 1.6043813910218887]",972.8378467080183,None,972.8379238386464,972.9376887120306,p10_kasra_08052022,001,2022_Aug_05_1634,test_typingtask_norepeats,2020.2.10,60.00105866701967,
theme,theme,,,,,,,,,0,23,23,23,,,,,,,,,,,,,,,978.3379223090014,None,"['t', 'h', 'e', 'm', 'e']",1,"[0.8002812920021825, 0.9443777339765802, 1.0323222479782999, 1.2323201579856686, 1.3363407119759358]",978.3379223090014,None,978.3377934426011,978.4379037650069,p10_kasra_08052022,001,2022_Aug_05_1634,test_typingtask_norepeats,2020.2.10,60.00105866701967,
buddy,buddy,,,,,,,,,0,24,24,24,,,,,,,,,,,,,,,983.8378646160127,None,"['b', 'u', 'f', 'f', 'y']",0,"[0.772361823997926, 0.9723374390159734, 1.0843443360063247, 1.2603532550274394, 1.3883392959833145]",983.8378646160127,None,983.8379620756081,983.9385550610023,p10_kasra_08052022,001,2022_Aug_05_1634,test_typingtask_norepeats,2020.2.10,60.00105866701967,
puppy,puppy,,,,,,,,,0,25,25,25,,,,,,,,,,,,,,,989.354556950042,None,"['p', 'u', 'p', 'p', 'y']",1,"[0.9197121320175938, 1.191661414981354, 1.4317214579787105, 1.6157482889830135, 1.7197304840083234]",989.354556950042,None,989.3557207196194,989.4546041070134,p10_kasra_08052022,001,2022_Aug_05_1634,test_typingtask_norepeats,2020.2.10,60.00105866701967,
zibja,zibja,,,,,,,,,0,26,26,26,,,,,,,,,,,,,,,994.8549256260158,None,"['z', 'i', 'b', 'j', 'a']",1,"[1.5153164630173706, 1.7713129870244302, 2.0113354310160503, 2.3232917499844916, 2.451287064002827]",994.8549256260158,None,994.8547588725982,994.955100496998,p10_kasra_08052022,001,2022_Aug_05_1634,test_typingtask_norepeats,2020.2.10,60.00105866701967,
haole,haole,,,,,,,,,0,27,27,27,,,,,,,,,,,,,,,1000.3547622589977,None,"['h', 'a', 'o', 'l', 'e']",1,"[0.9115162090165541, 1.4954600630444475, 1.6954575609997846, 1.903516018006485, 2.0234548180014826]",1000.3547622589977,None,1000.3552286946273,1000.454408399004,p10_kasra_08052022,001,2022_Aug_05_1634,test_typingtask_norepeats,2020.2.10,60.00105866701967,
there,there,,,,,,,,,0,28,28,28,,,,,,,,,,,,,,,1005.856356074044,None,"['t', 'h', 'e', 'r', 'e']",1,"[0.8418562990264036, 0.9618824099889025, 1.16984541103011, 1.3058424009941518, 1.4578562790411524]",1005.856356074044,None,1005.8552063076116,1005.9548595690285,p10_kasra_08052022,001,2022_Aug_05_1634,test_typingtask_norepeats,2020.2.10,60.00105866701967,
haole,haole,,,,,,,,,0,29,29,29,,,,,,,,,,,,,,,1011.3554993520374,None,"['h', 'a', 'o', 'l', 'e']",1,"[0.9587198559893295, 1.102764290990308, 1.2947225020034239, 1.5587457360234112, 1.6627639140351675]",1011.3554993520374,None,1011.3549037736433,1011.4546002550051,p10_kasra_08052022,001,2022_Aug_05_1634,test_typingtask_norepeats,2020.2.10,60.00105866701967,
there,there,,,,,,,,,0,30,30,30,,,,,,,,,,,,,,,1016.8546494290349,None,"['t', 'h', 'e', 'r', 'e']",1,"[0.8116725200088695, 0.9555734590394422, 1.0756013850332238, 1.227593199990224, 1.4116349529940635]",1016.8546494290349,None,1016.8547045616491,1016.9551980760298,p10_kasra_08052022,001,2022_Aug_05_1634,test_typingtask_norepeats,2020.2.10,60.00105866701967,
vanru,vanru,,,,,,,,,0,31,31,31,,,,,,,,,,,,,,,1022.3563018360292,None,"['v', 'a', 'n', 'r', 'u']",1,"[0.9419182279962115, 1.0859293010435067, 1.3659131940221414, 1.5659023100160994, 1.7739441450103186]",1022.3563018360292,None,1022.3548951446486,1022.4545504220296,p10_kasra_08052022,001,2022_Aug_05_1634,test_typingtask_norepeats,2020.2.10,60.00105866701967,
puppy,puppy,,,,,,,,,0,32,32,32,,,,,,,,,,,,,,,1027.874596749025,None,"['p', 'u', 'p', 'p', 'y']",1,"[1.239639682986308, 1.5356259339605458, 1.8476281019975431, 2.0156743559637107, 2.1356152249500155]",1027.874596749025,None,1027.8716629796022,1027.9717646950157,p10_kasra_08052022,001,2022_Aug_05_1634,test_typingtask_norepeats,2020.2.10,60.00105866701967,
would,would,,,,,,,,,0,33,33,33,,,,,,,,,,,,,,,1033.3724860030343,None,"['w', 'o', 'u', 'l', 'd']",1,"[0.9978121719905175, 1.173730559006799, 1.4057301110005938, 1.765731256979052, 1.877740869007539]",1033.3724860030343,None,1033.3713773486147,1033.471100897994,p10_kasra_08052022,001,2022_Aug_05_1634,test_typingtask_norepeats,2020.2.10,60.00105866701967,
theme,theme,,,,,,,,,0,34,34,34,,,,,,,,,,,,,,,1038.8711346730124,None,"['t', 'h', 'e', 'm', 'e']",1,"[0.7872040920192376, 0.9230829660082236, 1.0590874910121784, 1.219136112020351, 1.2991262630093843]",1038.8711346730124,None,1038.871406826604,1038.9713784370106,p10_kasra_08052022,001,2022_Aug_05_1634,test_typingtask_norepeats,2020.2.10,60.00105866701967,
heond,heond,,,,,,,,,0,35,35,35,,,,,,,,,,,,,,,1044.3713983769994,None,"['h', 'e', 'o', 'n', 'd']",1,"[1.0949189370148815, 1.2228573019965552, 1.4388144119875506, 1.7508479470270686, 1.990813787037041]",1044.3713983769994,None,1044.3713272046357,1044.4722103720414,p10_kasra_08052022,001,2022_Aug_05_1634,test_typingtask_norepeats,2020.2.10,60.00105866701967,
belly,belly,,,,,,,,,0,36,36,36,,,,,,,,,,,,,,,1049.8714340430452,None,"['b', 'e', 'l', 'l', 'y']",1,"[0.7948691069614142, 0.9148428600165062, 1.1707842979812995, 1.3468292269972153, 1.4828257029876113]",1049.8714340430452,None,1049.8711984035967,1049.9710381450132,p10_kasra_08052022,001,2022_Aug_05_1634,test_typingtask_norepeats,2020.2.10,60.00105866701967,
zibja,zibja,,,,,,,,,0,37,37,37,,,,,,,,,,,,,,,1055.3714900120394,None,"['z', 'i', 'b', 'j', 'a']",1,"[1.2627815050072968, 1.45473136898363, 1.7027807799750008, 1.9827733209822327, 2.0867744460119866]",1055.3714900120394,None,1055.3714803506214,1055.471200673026,p10_kasra_08052022,001,2022_Aug_05_1634,test_typingtask_norepeats,2020.2.10,60.00105866701967,
theme,theme,,,,,,,,,0,38,38,38,,,,,,,,,,,,,,,1060.872129150026,None,"['t', 'h', 'e', 'm', 'e']",1,"[0.8661559830070473, 1.0261122590163723, 1.1541625040117651, 1.3621277139754966, 1.7381160960067064]",1060.872129150026,None,1060.8718941586035,1060.971294623043,p10_kasra_08052022,001,2022_Aug_05_1634,test_typingtask_norepeats,2020.2.10,60.00105866701967,
vodka,vodka,,,,,,,,,0,39,39,39,,,,,,,,,,,,,,,1066.3733431700384,None,"['v', 'o', 'd', 'k', 'a']",1,"[1.0208924309699796, 1.2451844830065966, 1.4450714719714597, 1.7009354120236821, 1.9809330009738915]",1066.3733431700384,None,1066.3716360856256,1066.4718507160433,p10_kasra_08052022,001,2022_Aug_05_1634,test_typingtask_norepeats,2020.2.10,60.00105866701967,
druze,druze,,,,,,,,,0,40,40,40,,,,,,,,,,,,,,,1071.885903966031,None,"['d', 'r', 'u', 'z', 'e']",1,"[1.0763199729844928, 1.276323384954594, 1.4203233389998786, 1.6771888780058362, 1.948314038978424]",1071.885903966031,None,1071.8715247666173,1071.9730700679938,p10_kasra_08052022,001,2022_Aug_05_1634,test_typingtask_norepeats,2020.2.10,60.00105866701967,
buddy,buddy,,,,,,,,,0,41,41,41,,,,,,,,,,,,,,,1077.3716040430008,None,"['b', 'u', 'd', 'd', 'y']",1,"[0.8066078850533813, 1.0626452320138924, 1.1745957450475544, 1.3586027760175057, 1.4385965980472974]",1077.3716040430008,None,1077.3711951896025,1077.4717127259937,p10_kasra_08052022,001,2022_Aug_05_1634,test_typingtask_norepeats,2020.2.10,60.00105866701967,
zibja,zibja,,,,,,,,,0,42,42,42,,,,,,,,,,,,,,,1082.889273267996,None,"['z', 'i', 'b', 'j', 'a']",1,"[1.4169798599905334, 1.6569856510031968, 1.9529318339773454, 2.3369345599785447, 2.5289917010231875]",1082.889273267996,None,1082.887925137597,1082.988375585992,p10_kasra_08052022,001,2022_Aug_05_1634,test_typingtask_norepeats,2020.2.10,60.00105866701967,
think,think,,,,,,,,,0,43,43,43,,,,,,,,,,,,,,,1088.3888518250315,None,"['t', 'h', 'i', 'n', 'k']",1,"[0.7814226579503156, 0.9173922789632343, 1.0774762429646216, 1.2934970279457048, 1.4294372579897754]",1088.3888518250315,None,1088.3886407635932,1088.4885648970376,p10_kasra_08052022,001,2022_Aug_05_1634,test_typingtask_norepeats,2020.2.10,60.00105866701967,
haole,haole,,,,,,,,,0,44,44,44,,,,,,,,,,,,,,,1093.8882855980191,None,"['h', 'a', 'o', 'l', 'e']",1,"[0.7779917330481112, 1.1859866400482133, 1.3700217030127533, 1.5939693480031565, 1.705952029034961]",1093.8882855980191,None,1093.8879818625924,1093.9880956810084,p10_kasra_08052022,001,2022_Aug_05_1634,test_typingtask_norepeats,2020.2.10,60.00105866701967,
there,there,,,,,,,,,0,45,45,45,,,,,,,,,,,,,,,1099.3881329779979,None,"['t', 'h', 'e', 'r', 'e']",1,"[0.8782341899932362, 1.0060787289985456, 1.1981687049847096, 1.3500882519874722, 1.5661349250003695]",1099.3881329779979,None,1099.387923250621,1099.4884231940378,p10_kasra_08052022,001,2022_Aug_05_1634,test_typingtask_norepeats,2020.2.10,60.00105866701967,
haole,haole,,,,,,,,,0,46,46,46,,,,,,,,,,,,,,,1104.8880247049965,None,"['h', 'a', 'o', 'l', 'e']",1,"[0.8181870479602367, 0.9701830939739011, 1.1541771809570491, 1.3701860589790158, 1.4901767809642479]",1104.8880247049965,None,1104.888100766641,1104.9878843009938,p10_kasra_08052022,001,2022_Aug_05_1634,test_typingtask_norepeats,2020.2.10,60.00105866701967,
think,think,,,,,,,,,0,47,47,47,,,,,,,,,,,,,,,1110.3879711970221,None,"['t', 'h', 'i', 'n', 'k']",1,"[0.8862924280110747, 0.9502502189716324, 1.182292615994811, 1.4862914719851688, 1.7182889949763194]",1110.3879711970221,None,1110.3882028456487,1110.487955935998,p10_kasra_08052022,001,2022_Aug_05_1634,test_typingtask_norepeats,2020.2.10,60.00105866701967,
belly,belly,,,,,,,,,0,48,48,48,,,,,,,,,,,,,,,1115.9067029140424,None,"['b', 'e', 'l', 'l', 'y']",1,"[0.8715069239842705, 1.0395065479679033, 1.2955135939992033, 1.4715109499520622, 1.5915258139721118]",1115.9067029140424,None,1115.9053883576476,1116.0047227730392,p10_kasra_08052022,001,2022_Aug_05_1634,test_typingtask_norepeats,2020.2.10,60.00105866701967,
cooed,cooed,,,,,,,,,0,49,49,49,,,,,,,,,,,,,,,1121.4045593480114,None,"['c', 'o', 'o', 'e', 'd']",1,"[0.941657786956057, 1.1896580909960903, 1.3497019069618545, 1.4697376609547064, 1.6777058109873906]",1121.4045593480114,None,1121.4047842966452,1121.5046384620364,p10_kasra_08052022,001,2022_Aug_05_1634,test_typingtask_norepeats,2020.2.10,60.00105866701967,
therm,therm,,,,,,,,,0,50,50,50,,,,,,,,,,,,,,,1126.9046546270256,None,"['t', 'h', 'e', 'r', 'm']",1,"[1.1776224119821563, 1.4255587519728579, 1.5776138149667531, 1.697560077009257, 1.9296128959977068]",1126.9046546270256,None,1126.9048341736257,1127.0045502739958,p10_kasra_08052022,001,2022_Aug_05_1634,test_typingtask_norepeats,2020.2.10,60.00105866701967,
vodka,vodka,,,,,,,,,0,51,51,51,,,,,,,,,,,,,,,1132.4048161950195,None,"['v', 'o', 'f', 'd', 'k', 'a']",0,"[0.9894141799886711, 1.1414815459866077, 1.357397233019583, 2.1413967279950157, 2.373400298994966, 2.781467247987166]",1132.4048161950195,None,1132.4045937386168,1132.5045859840466,p10_kasra_08052022,001,2022_Aug_05_1634,test_typingtask_norepeats,2020.2.10,60.00105866701967,
faqir,faqir,,,,,,,,,0,52,52,52,,,,,,,,,,,,,,,1137.9215223640203,None,"['f', 'a', 'w', 'i']",0,"[1.2327709979726933, 1.8886954669724219, 2.672690537991002, 3.2007007770007476]",1137.9215223640203,None,1137.9213321586199,1138.021399477031,p10_kasra_08052022,001,2022_Aug_05_1634,test_typingtask_norepeats,2020.2.10,60.00105866701967,
heond,heond,,,,,,,,,0,53,53,53,,,,,,,,,,,,,,,1143.4213328220067,None,"['h', 'e', 'o', 'n', 'd']",1,"[0.9648880550521426, 1.1728873359970748, 1.5729093000409193, 2.0689444960444234, 2.236962224007584]",1143.4213328220067,None,1143.4215979406204,1143.521387225017,p10_kasra_08052022,001,2022_Aug_05_1634,test_typingtask_norepeats,2020.2.10,60.00105866701967,
vanru,vanru,,,,,,,,,0,54,54,54,,,,,,,,,,,,,,,1148.9213491420378,None,"['v', 'a', 'n', 'r', 'u']",1,"[0.9928757270099595, 1.0728646770003252, 1.5209470379631966, 1.8489042019937187, 2.400881095963996]",1148.9213491420378,None,1148.9216734946299,1149.0214732810273,p10_kasra_08052022,001,2022_Aug_05_1634,test_typingtask_norepeats,2020.2.10,60.00105866701967,
therm,therm,,,,,,,,,0,55,55,55,,,,,,,,,,,,,,,1154.4212662189966,None,"['t', 'h', 'e', 'r', 'm']",1,"[0.9569246810278855, 1.0689781110268086, 1.236982454021927, 1.3809236459783278, 1.5329847669927403]",1154.4212662189966,None,1154.4214354676137,1154.52151869901,p10_kasra_08052022,001,2022_Aug_05_1634,test_typingtask_norepeats,2020.2.10,60.00105866701967,
champ,champ,,,,,,,,,0,56,56,56,,,,,,,,,,,,,,,1159.9214976280346,None,"['c', 'h', 'a', 'm', 'p']",1,"[0.7847568999859504, 0.9687615259899758, 1.0407118709990755, 1.2647107639932074, 1.512752358976286]",1159.9214976280346,None,1159.9213364626107,1160.0214473810047,p10_kasra_08052022,001,2022_Aug_05_1634,test_typingtask_norepeats,2020.2.10,60.00105866701967,
would,would,,,,,,,,,0,57,57,57,,,,,,,,,,,,,,,1165.4216861490277,None,"['w', 'o', 'u', 'l', 'd']",1,"[0.9965772700379603, 1.2845749040134251, 1.6125288250041194, 2.0525797310401686, 2.1565306190168485]",1165.4216861490277,None,1165.4213479266095,1165.5216294850106,p10_kasra_08052022,001,2022_Aug_05_1634,test_typingtask_norepeats,2020.2.10,60.00105866701967,
pykka,pykka,,,,,,,,,0,58,58,58,,,,,,,,,,,,,,,1170.9213743180153,None,"['p', 'y', 'k', 'k', 'a', 's']",0,"[0.9688931929995306, 1.3449059830163606, 1.6008593009901233, 1.7528842930332758, 1.872840473020915, 1.872840473020915]",1170.9213743180153,None,1170.9213734876307,1171.0215278440155,p10_kasra_08052022,001,2022_Aug_05_1634,test_typingtask_norepeats,2020.2.10,60.00105866701967,
zibja,zibja,,,,,,,,,0,59,59,59,,,,,,,,,,,,,,,1176.4214038220234,None,"['z', 'i', 'b', 'j', 'a']",1,"[1.237007426971104, 1.5728095999802463, 1.8448665289906785, 2.1248088129796088, 2.2448780609993264]",1176.4214038220234,None,1176.4214450326458,1176.5215054129949,p10_kasra_08052022,001,2022_Aug_05_1634,test_typingtask_norepeats,2020.2.10,60.00105866701967,
vanru,vanru,,,,,,,,,0,60,60,60,,,,,,,,,,,,,,,1181.9214437380433,None,"['v', 'a', 'n', 'r', 'u']",1,"[0.9207815859699622, 1.0568034559837542, 1.2407710360130295, 1.4007762349792756, 1.61677319399314]",1181.9214437380433,None,1181.9214025576425,1182.021264014009,p10_kasra_08052022,001,2022_Aug_05_1634,test_typingtask_norepeats,2020.2.10,60.00105866701967,
buddy,buddy,,,,,,,,,0,61,61,61,,,,,,,,,,,,,,,1187.4214343900094,None,"['b', 'u', 'd', 'd', 'y']",1,"[0.7968263800139539, 1.0368211260065436, 1.2368273480096832, 1.4208278340520337, 1.484829000022728]",1187.4214343900094,None,1187.4214474096138,1187.521313247038,p10_kasra_08052022,001,2022_Aug_05_1634,test_typingtask_norepeats,2020.2.10,60.00105866701967,
haole,haole,,,,,,,,,0,62,62,62,,,,,,,,,,,,,,,1192.9215535430121,None,"['h', 'a', 'o', 'l', 'e']",1,"[0.7847542520030402, 0.8886874979943968, 1.1206563619780354, 1.3367088719969615, 1.4327061150106601]",1192.9215535430121,None,1192.9215683926072,1193.0213893760229,p10_kasra_08052022,001,2022_Aug_05_1634,test_typingtask_norepeats,2020.2.10,60.00105866701967,
think,think,,,,,,,,,0,63,63,63,,,,,,,,,,,,,,,1198.421682300046,None,"['t', 'h', 'i', 'n', 'k']",1,"[0.8365785470232368, 1.0045318739721552, 1.380530837981496, 1.5885295799816959, 1.7725303070037626]",1198.421682300046,None,1198.421326450602,1198.5216274069971,p10_kasra_08052022,001,2022_Aug_05_1634,test_typingtask_norepeats,2020.2.10,60.00105866701967,
edthe,edthe,,,,,,,,,0,64,64,64,,,,,,,,,,,,,,,1203.921467339038,None,"['e', 'd', 't', 'h', 'e']",1,"[1.2807860000175424, 1.5448048429680057, 1.6567473559989594, 1.8487911180127412, 1.8887469199835323]",1203.921467339038,None,1203.9214023196314,1204.0213386190007,p10_kasra_08052022,001,2022_Aug_05_1634,test_typingtask_norepeats,2020.2.10,60.00105866701967,
therm,therm,,,,,,,,,0,65,65,65,,,,,,,,,,,,,,,1209.421584463038,None,"['t', 'h', 'e', 'r', 'm']",1,"[0.8609107870142907, 1.0527007229975425, 1.1406293300096877, 1.332678641017992, 1.7326997100026347]",1209.421584463038,None,1209.4215320446006,1209.521487930033,p10_kasra_08052022,001,2022_Aug_05_1634,test_typingtask_norepeats,2020.2.10,60.00105866701967,
would,would,,,,,,,,,0,66,66,66,,,,,,,,,,,,,,,1214.9214549470344,None,"['w', 'o', 'u', 'l', 'd']",1,"[0.9448213939904235, 1.128765920002479, 1.3528088689781725, 1.6887603779905476, 1.7767828709911555]",1214.9214549470344,None,1214.9216083546112,1215.0215813069954,p10_kasra_08052022,001,2022_Aug_05_1634,test_typingtask_norepeats,2020.2.10,60.00105866701967,
edthe,edthe,,,,,,,,,0,67,67,67,,,,,,,,,,,,,,,1220.4215170660173,None,"['e', 'd', 't', 'h', 'e']",1,"[0.9567201030440629, 1.1086854330496863, 1.2847034130245447, 1.4687283390085213, 1.572686206025537]",1220.4215170660173,None,1220.421398786601,1220.5214407530148,p10_kasra_08052022,001,2022_Aug_05_1634,test_typingtask_norepeats,2020.2.10,60.00105866701967,
cheer,cheer,,,,,,,,,0,68,68,68,,,,,,,,,,,,,,,1225.9214963720297,None,"['c', 'h', 'e', 'e', 'r']",1,"[0.8567162880208343, 1.0328512280248106, 1.5447751060128212, 1.7287143520079553, 1.8727244210313074]",1225.9214963720297,None,1225.9215785046167,1226.0215633630287,p10_kasra_08052022,001,2022_Aug_05_1634,test_typingtask_norepeats,2020.2.10,60.00105866701967,
pykka,pykka,,,,,,,,,0,69,69,69,,,,,,,,,,,,,,,1231.4214879520005,None,"['p', 'y', 'k', 'k', 'a']",1,"[1.4927246599690989, 1.8687707119970582, 2.1487718650023453, 2.2927532399771735, 2.3967785249697044]",1231.4214879520005,None,1231.4215331226064,1231.5216733799898,p10_kasra_08052022,001,2022_Aug_05_1634,test_typingtask_norepeats,2020.2.10,60.00105866701967,
lucky,lucky,,,,,,,,,0,70,70,70,,,,,,,,,,,,,,,1236.9216373980162,None,"['l', 'u', 'c', 'k', 'y']",1,"[1.608590534015093, 1.9366014350089245, 2.344741275010165, 2.528604927007109, 2.824553658021614]",1236.9216373980162,None,1236.921438628639,1237.0216638700222,p10_kasra_08052022,001,2022_Aug_05_1634,test_typingtask_norepeats,2020.2.10,60.00105866701967,
faqir,faqir,,,,,,,,,0,71,71,71,,,,,,,,,,,,,,,1242.4215699750348,None,"['f', 'a', 'q', 'i', 'r']",1,"[1.0367282590013929, 1.1246310519636609, 1.7006368509610184, 1.972632528981194, 2.2206357499817386]",1242.4215699750348,None,1242.4214314956394,1242.521451208042,p10_kasra_08052022,001,2022_Aug_05_1634,test_typingtask_norepeats,2020.2.10,60.00105866701967,
tithe,tithe,,,,,,,,,0,72,72,72,,,,,,,,,,,,,,,1247.9214147269959,None,"['t', 'i', 't', 'h', 'e']",1,"[0.8968515089945868, 1.0888411899795756, 1.216799028974492, 1.3848553269635886, 1.5608065010164864]",1247.9214147269959,None,1247.9214699186327,1248.021464901045,p10_kasra_08052022,001,2022_Aug_05_1634,test_typingtask_norepeats,2020.2.10,60.00105866701967,
druze,druze,,,,,,,,,0,73,73,73,,,,,,,,,,,,,,,1253.4214977360098,None,"['d', 'r', 'u', 'z', 'e']",1,"[1.004715285031125, 1.2447881550178863, 1.324720660049934, 1.8287416280363686, 2.5407204390503466]",1253.4214977360098,None,1253.421707343607,1253.5214732949971,p10_kasra_08052022,001,2022_Aug_05_1634,test_typingtask_norepeats,2020.2.10,60.00105866701967,
tithe,tithe,,,,,,,,,0,74,74,74,,,,,,,,,,,,,,,1258.921511572029,None,"['t', 'i', 't', 'h', 'e']",1,"[0.9047360820113681, 1.0487925339839421, 1.1367890469846316, 1.2727027779910713, 1.3847514549852349]",1258.921511572029,None,1258.9214827406163,1259.0214310400188,p10_kasra_08052022,001,2022_Aug_05_1634,test_typingtask_norepeats,2020.2.10,60.00105866701967,
about,about,,,,,,,,,0,75,75,75,,,,,,,,,,,,,,,1264.421723239997,None,"['a', 'b', 'o', 'u', 't']",1,"[0.7724918419844471, 0.9084917159634642, 1.188524475961458, 1.4045220759580843, 1.5244929799810052]",1264.421723239997,None,1264.421449844615,1264.5215009039966,p10_kasra_08052022,001,2022_Aug_05_1634,test_typingtask_norepeats,2020.2.10,60.00105866701967,
edthe,edthe,,,,,,,,,0,76,76,76,,,,,,,,,,,,,,,1269.9216031600372,None,"['e', 'd', 't', 'h', 'e']",1,"[0.9926213779835962, 1.2486862699734047, 1.3926182870054618, 1.7046141489990987, 1.9126173529657535]",1269.9216031600372,None,1269.921489103645,1270.0215506509994,p10_kasra_08052022,001,2022_Aug_05_1634,test_typingtask_norepeats,2020.2.10,60.00105866701967,
about,about,,,,,,,,,0,77,77,77,,,,,,,,,,,,,,,1275.4216961490456,None,"['a', 'b', 'o', 'u', 't']",1,"[0.8445780749898404, 1.0125243999646045, 1.3005284239770845, 1.4846122899907641, 1.5805745020043105]",1275.4216961490456,None,1275.4215058035975,1275.5216156149982,p10_kasra_08052022,001,2022_Aug_05_1634,test_typingtask_norepeats,2020.2.10,60.00105866701967,
druze,druze,,,,,,,,,0,78,78,78,,,,,,,,,,,,,,,1280.921649091004,None,"['d', 'r', 'u', 'z', 'e']",1,"[0.9606089529697783, 1.2085658819996752, 1.3446156819700263, 1.6166204269975424, 1.9125636299722828]",1280.921649091004,None,1280.921510996594,1281.021493695036,p10_kasra_08052022,001,2022_Aug_05_1634,test_typingtask_norepeats,2020.2.10,60.00105866701967,
therm,therm,,,,,,,,,0,79,79,79,,,,,,,,,,,,,,,1286.4215953800012,None,"['t', 'h', 'e', 'r', 'm']",1,"[0.8526627449900843, 0.9886086360202171, 1.1486707649892196, 1.3646082520135678, 1.524608089006506]",1286.4215953800012,None,1286.4216792465945,1286.5214327450376,p10_kasra_08052022,001,2022_Aug_05_1634,test_typingtask_norepeats,2020.2.10,60.00105866701967,
tithe,tithe,,,,,,,,,0,80,80,80,,,,,,,,,,,,,,,1291.9213867840008,None,"['t', 'i', 't', 'h', 'e']",1,"[0.7690258639631793, 0.9448846819577739, 1.0008353719604202, 1.168874684954062, 1.2808608849882148]",1291.9213867840008,None,1291.921761435637,1292.0215751440264,p10_kasra_08052022,001,2022_Aug_05_1634,test_typingtask_norepeats,2020.2.10,60.00105866701967,
champ,champ,,,,,,,,,0,81,81,81,,,,,,,,,,,,,,,1297.4216253340128,None,"['c', 'h', 'a', 'm', 'p']",1,"[0.7405904540210031, 0.9565875120460987, 1.0765959780546837, 1.2206705250428058, 1.4686423900420777]",1297.4216253340128,None,1297.421892361605,1297.5216181119904,p10_kasra_08052022,001,2022_Aug_05_1634,test_typingtask_norepeats,2020.2.10,60.00105866701967,
belly,belly,,,,,,,,,0,82,82,82,,,,,,,,,,,,,,,1302.9217184520094,None,"['b', 'e', 'l', 'l', 'y']",1,"[0.7685478369821794, 0.9124979600310326, 1.1765176770277321, 1.328549475001637, 1.4244966210098937]",1302.9217184520094,None,1302.9215303935985,1303.0216441700468,p10_kasra_08052022,001,2022_Aug_05_1634,test_typingtask_norepeats,2020.2.10,60.00105866701967,
kremp,kremp,,,,,,,,,0,83,83,83,,,,,,,,,,,,,,,1308.4225015940028,None,"['k', 'r', 'e', 'm', 'p']",1,"[1.0677526780054905, 1.2357913440209813, 1.4277254689950496, 1.5318402380216867, 1.7557445249985904]",1308.4225015940028,None,1308.4221409386432,1308.5218151140143,p10_kasra_08052022,001,2022_Aug_05_1634,test_typingtask_norepeats,2020.2.10,60.00105866701967,
edthe,edthe,,,,,,,,,0,84,84,84,,,,,,,,,,,,,,,1313.9215829630266,None,"['e', 'd', 't', 'h', 'e']",1,"[0.8246330689871684, 1.0886759199784137, 1.2166341089759953, 1.3926336609874852, 1.4646693160175346]",1313.9215829630266,None,1313.9215612836474,1314.021692698996,p10_kasra_08052022,001,2022_Aug_05_1634,test_typingtask_norepeats,2020.2.10,60.00105866701967,
kremp,kremp,,,,,,,,,0,85,85,85,,,,,,,,,,,,,,,1319.4216267250013,None,"['k', 'r', 'e', 'm', 'p']",1,"[1.060591476969421, 1.3326585209579207, 1.5086016249842942, 1.5885867399629205, 1.8206476079649292]",1319.4216267250013,None,1319.4215725196468,1319.5215707480093,p10_kasra_08052022,001,2022_Aug_05_1634,test_typingtask_norepeats,2020.2.10,60.00105866701967,
cheer,cheer,,,,,,,,,0,86,86,86,,,,,,,,,,,,,,,1324.9218192379922,None,"['c', 'h', 'e', 'r']",0,"[0.8883953919867054, 1.0964738560141996, 1.2324408380081877, 1.4404320999747142]",1324.9218192379922,None,1324.9215380385926,1325.0216218290152,p10_kasra_08052022,001,2022_Aug_05_1634,test_typingtask_norepeats,2020.2.10,60.00105866701967,
would,would,,,,,,,,,0,87,87,87,,,,,,,,,,,,,,,1330.4215767050046,None,"['w', 'o', 'u', 'd', 'l']",0,"[0.9486788860522211, 1.140638683049474, 1.276654398010578, 1.412644113006536, 1.5646638790494762]",1330.4215767050046,None,1330.421586813644,1330.5215968060074,p10_kasra_08052022,001,2022_Aug_05_1634,test_typingtask_norepeats,2020.2.10,60.00105866701967,
druze,druze,,,,,,,,,0,88,88,88,,,,,,,,,,,,,,,1335.9218419080134,None,"['d', 'r', 'u', 'z', 'e']",1,"[0.9124207649729215, 1.1843886809656397, 1.2883771059568971, 1.5684448469546624, 2.1684216339490376]",1335.9218419080134,None,1335.921825656615,1336.0214701350196,p10_kasra_08052022,001,2022_Aug_05_1634,test_typingtask_norepeats,2020.2.10,60.00105866701967,
vodka,vodka,,,,,,,,,0,89,89,89,,,,,,,,,,,,,,,1341.4231948209926,None,"['v', 'o', 'd', 'k', 'a']",1,"[1.1390239129541442, 1.315022433991544, 1.5150641019572504, 1.8030257429927588, 1.907029355992563]",1341.4231948209926,None,1341.421621088643,1341.521629845025,p10_kasra_08052022,001,2022_Aug_05_1634,test_typingtask_norepeats,2020.2.10,60.00105866701967,
kremp,kremp,,,,,,,,,0,90,90,90,,,,,,,,,,,,,,,1346.9382820030442,None,"['k', 'r', 'e', 'm', 'o']",0,"[1.3200093780178577, 1.6239367530215532, 1.9039858560427092, 2.095960292033851, 2.447938604047522]",1346.9382820030442,None,1346.9386436306,1347.0383745040162,p10_kasra_08052022,001,2022_Aug_05_1634,test_typingtask_norepeats,2020.2.10,60.00105866701967,
cooed,cooed,,,,,,,,,0,91,91,91,,,,,,,,,,,,,,,1352.4383172640228,None,"['c', 'o', 'o', 'e', 'd']",1,"[0.9959020669921301, 1.332121344981715, 1.5239008129574358, 1.8679756009951234, 2.099944212997798]",1352.4383172640228,None,1352.4383023876057,1352.5383672250318,p10_kasra_08052022,001,2022_Aug_05_1634,test_typingtask_norepeats,2020.2.10,60.00105866701967,
would,would,,,,,,,,,0,92,92,92,,,,,,,,,,,,,,,1357.938439170015,None,"['w', 'o', 'u', 'l', 'd']",1,"[1.1118345170398243, 1.359778233047109, 1.6477591360453516, 2.103761630016379, 2.2237589150317945]",1357.938439170015,None,1357.9384163576237,1358.0384687689948,p10_kasra_08052022,001,2022_Aug_05_1634,test_typingtask_norepeats,2020.2.10,60.00105866701967,
pykka,pykka,,,,,,,,,0,93,93,93,,,,,,,,,,,,,,,1363.4383210359956,None,"['p', 'y', 'k', 'k', 'a']",1,"[1.1398901289794594, 1.3238930499646813, 1.5238918180111796, 1.6758987400098704, 2.0839026059838943]",1363.4383210359956,None,1363.438346088637,1363.538388609013,p10_kasra_08052022,001,2022_Aug_05_1634,test_typingtask_norepeats,2020.2.10,60.00105866701967,
about,about,,,,,,,,,0,94,94,94,,,,,,,,,,,,,,,1368.9383248800295,None,"['a', 'b', 'o', 'u', 't']",1,"[0.8319585129502229, 0.9758967589586973, 1.2558897259877995, 1.4718957679579034, 1.5519438879564404]",1368.9383248800295,None,1368.938404689607,1369.0384607469896,p10_kasra_08052022,001,2022_Aug_05_1634,test_typingtask_norepeats,2020.2.10,60.00105866701967,
puppy,puppy,,,,,,,,,0,95,95,95,,,,,,,,,,,,,,,1374.43834367604,None,"['p', 'u', 'p', 'p', 'y']",1,"[1.0119398140232079, 1.427944466995541, 1.6359278539894149, 1.7958727690274827, 2.0199622840154916]",1374.43834367604,None,1374.4382767695993,1374.538256129017,p10_kasra_08052022,001,2022_Aug_05_1634,test_typingtask_norepeats,2020.2.10,60.00105866701967,
lucky,lucky,,,,,,,,,0,96,96,96,,,,,,,,,,,,,,,1379.9382748950156,None,"['l', 'u', 'v', 'c', 'k']",0,"[2.2240521400235593, 2.4639838470029645, 2.9519889859948307, 2.991956438985653, 3.343944036983885]",1379.9382748950156,None,1379.9383275966452,1380.0382407419966,p10_kasra_08052022,001,2022_Aug_05_1634,test_typingtask_norepeats,2020.2.10,60.00105866701967,
think,think,,,,,,,,,0,97,97,97,,,,,,,,,,,,,,,1385.4552538360003,None,"['t', 'h', 'i', 'n', 'k']",1,"[0.986992169986479, 1.147004446014762, 1.5150381780113094, 1.7709563160315156, 1.9469780179788359]",1385.4552538360003,None,1385.4550447126444,1385.5550126479939,p10_kasra_08052022,001,2022_Aug_05_1634,test_typingtask_norepeats,2020.2.10,60.00105866701967,
buddy,buddy,,,,,,,,,0,98,98,98,,,,,,,,,,,,,,,1390.9549187709927,None,"['b', 'u', 'd', 'd', 'y']",1,"[0.8153388500213623, 1.031317986024078, 1.175342031987384, 1.639298090012744, 1.7753407059935853]",1390.9549187709927,None,1390.9550594196248,1391.0550675530103,p10_kasra_08052022,001,2022_Aug_05_1634,test_typingtask_norepeats,2020.2.10,60.00105866701967,
kremp,kremp,,,,,,,,,0,99,99,99,,,,,,,,,,,,,,,1396.4550539550255,None,"['k', 'r', 'e', 'm', 'o', 'p']",0,"[1.1551637410302646, 1.4751849920139648, 1.73916331800865, 1.8671688430476934, 2.091165752033703, 3.043174117046874]",1396.4550539550255,None,1396.455242339644,1396.5551544910413,p10_kasra_08052022,001,2022_Aug_05_1634,test_typingtask_norepeats,2020.2.10,60.00105866701967,
buddy,buddy,,,,,,,,,0,100,100,100,,,,,,,,,,,,,,,1401.9551235720282,None,"['b', 'u', 'd', 'd', 'y']",1,"[0.9351760090212338, 1.1751139410189353, 1.3271049680188298, 1.4951618679915555, 1.6231250269920565]",1401.9551235720282,None,1401.955022736633,1402.0549659730168,p10_kasra_08052022,001,2022_Aug_05_1634,test_typingtask_norepeats,2020.2.10,60.00105866701967,
lucky,lucky,,,,,,,,,0,101,101,101,,,,,,,,,,,,,,,1407.4553088989924,None,"['l', 'u', 'c', 'k', 'y']",1,"[1.1149451460223645, 1.4589052670053206, 1.6589088669861667, 1.8029531959909946, 2.090901523013599]",1407.4553088989924,None,1407.4552026705992,1407.5552445580252,p10_kasra_08052022,001,2022_Aug_05_1634,test_typingtask_norepeats,2020.2.10,60.00105866701967,
pykka,pykka,,,,,,,,,0,102,102,102,,,,,,,,,,,,,,,1412.9551748170052,None,"['p', 'y', 'k', 'k', 'a']",1,"[1.1270862080273218, 1.383047350042034, 1.5270526320091449, 1.6550277520436794, 2.1031162720173597]",1412.9551748170052,None,1412.955137388612,1413.0552588049904,p10_kasra_08052022,001,2022_Aug_05_1634,test_typingtask_norepeats,2020.2.10,60.00105866701967,
cooed,cooed,,,,,,,,,0,103,103,103,,,,,,,,,,,,,,,1418.4552531400113,None,"['c', 'o', 'o', 'e', 'd']",1,"[0.8509660690324381, 0.9871431060018949, 1.1470036930404603, 1.2669661830295809, 1.4830150560010225]",1418.4552531400113,None,1418.4553501156101,1418.5550652529928,p10_kasra_08052022,001,2022_Aug_05_1634,test_typingtask_norepeats,2020.2.10,60.00105866701967,
about,about,,,,,,,,,0,104,104,104,,,,,,,,,,,,,,,1423.955182573991,None,"['a', 'b', 'o', 'u', 't']",1,"[0.7430837569991127, 0.9031797049683519, 1.1430324889952317, 1.3510586639749818, 1.4550290589686483]",1423.955182573991,None,1423.9550469465962,1424.0550036280183,p10_kasra_08052022,001,2022_Aug_05_1634,test_typingtask_norepeats,2020.2.10,60.00105866701967,
faqir,faqir,,,,,,,,,0,105,105,105,,,,,,,,,,,,,,,1429.4561776760384,None,"['f', 'a', 'q', 'i', 'r']",1,"[1.0100883919512853, 1.6580353699973784, 2.09810722398106, 2.4660323369898833, 2.5941170509904623]",1429.4561776760384,None,1429.4552062266216,1429.5549879129976,p10_kasra_08052022,001,2022_Aug_05_1634,test_typingtask_norepeats,2020.2.10,60.00105866701967,
pykka,pykka,,,,,,,,,0,106,106,106,,,,,,,,,,,,,,,1434.9719993339968,None,"['p', 'y', 'k', 'k', 'a']",1,"[1.1342271390021779, 1.3262259130133316, 1.5102336769923568, 1.6703553330153227, 2.0142159669776447]",1434.9719993339968,None,1434.9717313206115,1435.0717010860099,p10_kasra_08052022,001,2022_Aug_05_1634,test_typingtask_norepeats,2020.2.10,60.00105866701967,
cheer,cheer,,,,,,,,,0,107,107,107,,,,,,,,,,,,,,,1440.471824362001,None,"['c', 'h', 'e', 'e', 'r']",1,"[0.8343969470006414, 1.0344353779801168, 1.1703872790094465, 1.618452946015168, 1.9064265019842423]",1440.471824362001,None,1440.4717951506086,1440.5718021200155,p10_kasra_08052022,001,2022_Aug_05_1634,test_typingtask_norepeats,2020.2.10,60.00105866701967,
kremp,kremp,,,,,,,,,0,108,108,108,,,,,,,,,,,,,,,1445.9717719340115,None,"['k', 'r', 'e', 'm', 'p']",1,"[1.0864934379933402, 1.3584422009880655, 1.5104609210393392, 1.7104479930130765, 2.4865377040114254]",1445.9717719340115,None,1445.9719286826498,1446.0717387240147,p10_kasra_08052022,001,2022_Aug_05_1634,test_typingtask_norepeats,2020.2.10,60.00105866701967,
vodka,vodka,,,,,,,,,0,109,109,109,,,,,,,,,,,,,,,1451.4718123880448,None,"['v', 'o', 'd', 'k', 'a']",1,"[0.9704114390187897, 1.10640341299586, 1.378514920012094, 1.6424129140214063, 1.9704578089877032]",1451.4718123880448,None,1451.4718606016309,1451.5717917869915,p10_kasra_08052022,001,2022_Aug_05_1634,test_typingtask_norepeats,2020.2.10,60.00105866701967,
heond,heond,,,,,,,,,0,110,110,110,,,,,,,,,,,,,,,1456.9717828400317,None,"['h', 'e', 'o', 'n', 'd']",1,"[1.0705053600249812, 1.1664992820005864, 1.3664560709730722, 1.9984740350046195, 2.150435246003326]",1456.9717828400317,None,1456.9720034016123,1457.0717486200156,p10_kasra_08052022,001,2022_Aug_05_1634,test_typingtask_norepeats,2020.2.10,60.00105866701967,
puppy,puppy,,,,,,,,,0,111,111,111,,,,,,,,,,,,,,,1462.471688885009,None,"['p', 'u', 'p', 'p', 'y']",1,"[1.0025970060378313, 1.322554462007247, 1.6425535280141048, 1.8745216809911653, 2.010547502024565]",1462.471688885009,None,1462.4718797135924,1462.5719126260374,p10_kasra_08052022,001,2022_Aug_05_1634,test_typingtask_norepeats,2020.2.10,60.00105866701967,
vodka,vodka,,,,,,,,,0,112,112,112,,,,,,,,,,,,,,,1467.971975655004,None,"['v', 'o', 'd', 'k', 'a']",1,"[1.1902520909789018, 1.3422477340209298, 1.534235548984725, 1.7262408590177074, 1.8462706339778379]",1467.971975655004,None,1467.9718568336161,1468.0719563850434,p10_kasra_08052022,001,2022_Aug_05_1634,test_typingtask_norepeats,2020.2.10,60.00105866701967,
cooed,cooed,,,,,,,,,0,113,113,113,,,,,,,,,,,,,,,1473.4720909169992,None,"['c', 'o', 'o', 'e', 'd']",1,"[0.8182942940038629, 0.9461975329904817, 1.0901569839916192, 1.2341355489916168, 1.3782755159772933]",1473.4720909169992,None,1473.4717542966305,1473.571792542003,p10_kasra_08052022,001,2022_Aug_05_1634,test_typingtask_norepeats,2020.2.10,60.00105866701967,
vanru,vanru,,,,,,,,,0,114,114,114,,,,,,,,,,,,,,,1478.9730552789988,None,"['v', 'a', 'n', 'r', 'u']",1,"[0.7891634789993986, 1.141175040975213, 1.3493031230173074, 1.525177443982102, 1.7173710080096498]",1478.9730552789988,None,1478.9723074096314,1479.071835566021,p10_kasra_08052022,001,2022_Aug_05_1634,test_typingtask_norepeats,2020.2.10,60.00105866701967,
heond,heond,,,,,,,,,0,115,115,115,,,,,,,,,,,,,,,1484.4717224480119,None,"['e', 'h', 'e', 'o', 'n', 'd']",0,"[1.1465486240340397, 1.7865493730059825, 1.9384958060109057, 2.066536058031488, 2.298548261052929, 2.4265102090430446]",1484.4717224480119,None,1484.4726752086485,1484.571869862033,p10_kasra_08052022,001,2022_Aug_05_1634,test_typingtask_norepeats,2020.2.10,60.00105866701967,
champ,champ,,,,,,,,,0,116,116,116,,,,,,,,,,,,,,,1489.971866040025,None,"['c', 'h', 'a', 'm', 'p']",1,"[0.8223480540327728, 1.0143501780112274, 1.1103626160183921, 1.2784481139970012, 1.5184007490170188]",1489.971866040025,None,1489.9719150116493,1490.0718767360086,p10_kasra_08052022,001,2022_Aug_05_1634,test_typingtask_norepeats,2020.2.10,60.00105866701967,
cheer,cheer,,,,,,,,,0,117,117,117,,,,,,,,,,,,,,,1495.4735830680002,None,"['c', 'h', 'h', 'e', 'e', 'r']",0,"[0.7846825449960306, 0.9286933349794708, 1.088631386985071, 1.3767290759715252, 1.7286785449832678, 1.9606334249838255]",1495.4735830680002,None,1495.47188153264,1495.5717998470063,p10_kasra_08052022,001,2022_Aug_05_1634,test_typingtask_norepeats,2020.2.10,60.00105866701967,
cooed,cooed,,,,,,,,,0,118,118,118,,,,,,,,,,,,,,,1500.9884750150377,None,"['c', 'o', 'o', 'e', 'd']",1,"[0.9097563329851255, 1.0857917829998769, 1.213800951023586, 1.3257525120279752, 1.6057441880111583]",1500.9884750150377,None,1500.9886233066268,1501.0884072179906,p10_kasra_08052022,001,2022_Aug_05_1634,test_typingtask_norepeats,2020.2.10,60.00105866701967,
belly,belly,,,,,,,,,0,119,119,119,,,,,,,,,,,,,,,1506.4885919180233,None,"['b', 'e', 'l', 'l', 'y']",1,"[0.8176523949950933, 0.9536769650294445, 1.1856750550214201, 1.3536874889978208, 1.4496685939957388]",1506.4885919180233,None,1506.4887974135986,1506.588527888991,p10_kasra_08052022,001,2022_Aug_05_1634,test_typingtask_norepeats,2020.2.10,60.00105866701967,
