string,corrAns,practice_trials.thisRepN,practice_trials.thisTrialN,practice_trials.thisN,practice_trials.thisIndex,trials_1.thisRepN,trials_1.thisTrialN,trials_1.thisN,trials_1.thisIndex,trials_2.thisRepN,trials_2.thisTrialN,trials_2.thisN,trials_2.thisIndex,key_resp_0.keys,key_resp_0.corr,key_resp_0.rt,text_1.started,text_1.stopped,key_resp_1.keys,key_resp_1.corr,key_resp_1.rt,key_resp_1.started,key_resp_1.stopped,sound_1A_1.started,sound_1A_1.stopped,break_time.started,break_time.stopped,text_2.started,text_2.stopped,key_resp_2.keys,key_resp_2.corr,key_resp_2.rt,key_resp_2.started,key_resp_2.stopped,sound_1A_2.started,sound_1A_2.stopped,participant,session,date,expName,psychopyVersion,frameRate,
fresh,fresh,0,0,0,0,,,,,,,,,"['f', 'r', 'e', 's', 'h', 'space', 'f']",0,"[0.8511581202037632, 1.035229572094977, 1.1232474581338465, 1.2991536520421505, 1.4112207661382854, 2.8272383152507246, 3.163211647886783]",,,,,,,,,,,,,,,,,,,,,83_07142022,001,2022_Jul_14_1619,test_typingtask_norepeats,2020.2.10,60.032648392919214,
dream,dream,0,1,1,1,,,,,,,,,"['d', 'r', 'e', 'a', 'm']",1,"[0.8402879158966243, 1.0481695123016834, 1.104231215082109, 1.408330419100821, 1.8642602390609682]",,,,,,,,,,,,,,,,,,,,,83_07142022,001,2022_Jul_14_1619,test_typingtask_norepeats,2020.2.10,60.032648392919214,
slime,slime,0,2,2,2,,,,,,,,,"['s', 'l', 'i', 'm', 'e']",1,"[0.7243745760060847, 0.9163542268797755, 1.1003845008090138, 1.2844171808101237, 1.3963616327382624]",,,,,,,,,,,,,,,,,,,,,83_07142022,001,2022_Jul_14_1619,test_typingtask_norepeats,2020.2.10,60.032648392919214,
faqir,faqir,,,,,0,0,0,0,,,,,,,,187.02250572107732,None,"['f', 'a', 'q', 'u', 'i', 'r', 'space']",0,"[0.776513110846281, 1.3125112038105726, 1.6004348541609943, 1.8565499358810484, 2.0565158440731466, 2.4405303332023323, 3.336453589145094]",187.02250572107732,None,187.0131099199876,187.1128301289864,,,,,,,,,,,,83_07142022,001,2022_Jul_14_1619,test_typingtask_norepeats,2020.2.10,60.032648392919214,
buddy,buddy,,,,,0,1,1,1,,,,,,,,192.52987160906196,None,"['b', 'u', 'd', 'd', 'y']",1,"[0.9891649540513754, 1.2371817077510059, 1.5011144718155265, 1.629108587745577, 1.8211726769804955]",192.52987160906196,None,192.52933608870953,192.62940869433805,,,,,,,,,,,,83_07142022,001,2022_Jul_14_1619,test_typingtask_norepeats,2020.2.10,60.032648392919214,
puppy,puppy,,,,,0,2,2,2,,,,,,,,198.0296670841053,None,"['p', 'u', 'p', 'p', 'y']",1,"[1.0013953782618046, 1.2332997103221714, 2.329308602027595, 2.4733789460733533, 2.593288779258728]",198.0296670841053,None,198.02957799509167,198.12948776222765,,,,,,,,,,,,83_07142022,001,2022_Jul_14_1619,test_typingtask_norepeats,2020.2.10,60.032648392919214,
haole,haole,,,,,0,3,3,3,,,,,,,,203.52941576112062,None,"['h', 'a', 'o', 'l', 'e']",1,"[0.8295734650455415, 1.2376692998223007, 1.5095583978109062, 1.7095562820322812, 1.7976525956764817]",203.52941576112062,None,203.5294816646725,203.62934183515608,,,,,,,,,,,,83_07142022,001,2022_Jul_14_1619,test_typingtask_norepeats,2020.2.10,60.032648392919214,
therm,therm,,,,,0,4,4,4,,,,,,,,209.02952251490206,None,"['t', 'h', 'e', 'r', 'm']",1,"[0.7855328163132071, 0.9294991539791226, 1.1374479793012142, 1.2495606429874897, 1.4014973561279476]",209.02952251490206,None,209.02953521385788,209.1294018351473,,,,,,,,,,,,83_07142022,001,2022_Jul_14_1619,test_typingtask_norepeats,2020.2.10,60.032648392919214,
there,there,,,,,0,5,5,5,,,,,,,,214.5295075653121,None,"['t', 'h', 'e', 'r', 'e']",1,"[0.6535685230046511, 0.7974914750084281, 0.9015689170919359, 0.9975146614015102, 1.1254458562470973]",214.5295075653121,None,214.5295810717158,214.62969078030437,,,,,,,,,,,,83_07142022,001,2022_Jul_14_1619,test_typingtask_norepeats,2020.2.10,60.032648392919214,
belly,belly,,,,,0,6,6,6,,,,,,,,220.02966332389042,None,"['b', 'e', 'l', 'l', 'y']",1,"[0.7053195158950984, 1.0013500661589205, 1.2253072471357882, 1.3774047149345279, 1.4733823710121214]",220.02966332389042,None,220.0295019689016,220.12958130333573,,,,,,,,,,,,83_07142022,001,2022_Jul_14_1619,test_typingtask_norepeats,2020.2.10,60.032648392919214,
think,think,,,,,0,7,7,7,,,,,,,,225.5297640361823,None,"['t', 'h', 'i', 'n', 'k']",1,"[0.7172022233717144, 0.9092118972912431, 1.0692938519641757, 1.2692533740773797, 1.4533153921365738]",225.5297640361823,None,225.52954265000298,225.62963239103556,,,,,,,,,,,,83_07142022,001,2022_Jul_14_1619,test_typingtask_norepeats,2020.2.10,60.032648392919214,
vodka,vodka,,,,,0,8,8,8,,,,,,,,231.02945742709562,None,"['v', 'o', 'd', 'k', 'a']",1,"[0.8655782057903707, 1.0815615439787507, 1.4255666858516634, 1.5775059079751372, 1.745604510884732]",231.02945742709562,None,231.02965950397774,231.12963374424726,,,,,,,,,,,,83_07142022,001,2022_Jul_14_1619,test_typingtask_norepeats,2020.2.10,60.032648392919214,
faqir,faqir,,,,,0,9,9,9,,,,,,,,236.52942126011476,None,"['f', 'a', 'q', 'i', 'r']",1,"[0.885635114274919, 1.3015501513145864, 1.6376919280737638, 1.9015515963546932, 2.053616809193045]",236.52942126011476,None,236.52943815374746,236.62955764401704,,,,,,,,,,,,83_07142022,001,2022_Jul_14_1619,test_typingtask_norepeats,2020.2.10,60.032648392919214,
tithe,tithe,,,,,0,10,10,10,,,,,,,,242.02933028433472,None,"['t', 'i', 't', 'h', 'e']",1,"[0.9217514800839126, 1.0896656732074916, 1.209642309229821, 1.3376890309154987, 1.4577622739598155]",242.02933028433472,None,242.02933580605313,242.1292807920836,,,,,,,,,,,,83_07142022,001,2022_Jul_14_1619,test_typingtask_norepeats,2020.2.10,60.032648392919214,
faqir,faqir,,,,,0,11,11,11,,,,,,,,247.52941342722625,None,"['f', 'a', 'q', 'i', 'r']",1,"[0.7496582013554871, 1.1336561222560704, 1.3496308350004256, 1.5736479670740664, 1.7175547564402223]",247.52941342722625,None,247.52957558389753,247.62947180029005,,,,,,,,,,,,83_07142022,001,2022_Jul_14_1619,test_typingtask_norepeats,2020.2.10,60.032648392919214,
tithe,tithe,,,,,0,12,12,12,,,,,,,,253.02939534094185,None,"['t', 'i', 't', 'h', 'e']",1,"[0.7536875018849969, 0.8895841049961746, 1.0175737319514155, 1.1536736506968737, 1.257650785613805]",253.02939534094185,None,253.0295051638037,253.1296127908863,,,,,,,,,,,,83_07142022,001,2022_Jul_14_1619,test_typingtask_norepeats,2020.2.10,60.032648392919214,
puppy,puppy,,,,,0,13,13,13,,,,,,,,258.5296589299105,None,"['p', 'u', 'p', 'p', 'y']",1,"[0.9574213279411197, 1.173384577035904, 1.6854209220036864, 1.8213245389051735, 1.9494079761207104]",258.5296589299105,None,258.5295404129662,258.6295175999403,,,,,,,,,,,,83_07142022,001,2022_Jul_14_1619,test_typingtask_norepeats,2020.2.10,60.032648392919214,
pykka,pykka,,,,,0,14,14,14,,,,,,,,264.0296622221358,None,"['p', 'y', 'k', 'k', 'a']",1,"[1.0334177911281586, 1.5853925980627537, 1.9854176421649754, 2.129334851168096, 2.2253564703278244]",264.0296622221358,None,264.0294698587619,264.1295232451521,,,,,,,,,,,,83_07142022,001,2022_Jul_14_1619,test_typingtask_norepeats,2020.2.10,60.032648392919214,
cooed,cooed,,,,,0,15,15,15,,,,,,,,269.52967167599127,None,"['c', 'o', 'o', 'e', 'd']",1,"[0.885370303876698, 1.0453830589540303, 1.1893216562457383, 1.2614109562709928, 1.3654057150706649]",269.52967167599127,None,269.5294311180711,269.62969169719145,,,,,,,,,,,,83_07142022,001,2022_Jul_14_1619,test_typingtask_norepeats,2020.2.10,60.032648392919214,
edthe,edthe,,,,,0,16,16,16,,,,,,,,275.0295025142841,None,"['e', 'd', 't', 'h', 'e']",1,"[0.7774574221111834, 0.9535852093249559, 1.1615748652257025, 1.2575394231826067, 1.3774778172373772]",275.0295025142841,None,275.0295388138853,275.1294902730733,,,,,,,,,,,,83_07142022,001,2022_Jul_14_1619,test_typingtask_norepeats,2020.2.10,60.032648392919214,
vodka,vodka,,,,,0,17,17,17,,,,,,,,280.5295740510337,None,"['v', 'o', 'd', 'k', 'a']",1,"[0.7014378551393747, 0.9415153567679226, 1.1415525218471885, 1.301450476050377, 1.4215305740945041]",280.5295740510337,None,280.52956702411177,280.6293819071725,,,,,,,,,,,,83_07142022,001,2022_Jul_14_1619,test_typingtask_norepeats,2020.2.10,60.032648392919214,
champ,champ,,,,,0,18,18,18,,,,,,,,286.02962287701666,None,"['c', 'h', 'a', 'm', 'p']",1,"[1.0414336314424872, 1.1773849432356656, 1.2974067032337189, 1.7933194423094392, 2.0093020210042596]",286.02962287701666,None,286.02974567878994,286.1295770551078,,,,,,,,,,,,83_07142022,001,2022_Jul_14_1619,test_typingtask_norepeats,2020.2.10,60.032648392919214,
zibja,zibja,,,,,0,19,19,19,,,,,,,,291.5300431032665,None,"['z', 'i', 'b', 'k', 'a']",0,"[0.9169108439236879, 1.1729780840687454, 1.900915436912328, 2.0690323347225785, 2.853027888108045]",291.5300431032665,None,291.52965826299044,291.6296492870897,,,,,,,,,,,,83_07142022,001,2022_Jul_14_1619,test_typingtask_norepeats,2020.2.10,60.032648392919214,
there,there,,,,,0,20,20,20,,,,,,,,297.0298551302403,None,"['t', 'h', 'e', 'r', 'e']",1,"[0.6492226510308683, 0.7692264658398926, 0.8572260551154613, 0.9452283941209316, 1.0651868050917983]",297.0298551302403,None,297.0296334120445,297.12977433530614,,,,,,,,,,,,83_07142022,001,2022_Jul_14_1619,test_typingtask_norepeats,2020.2.10,60.032648392919214,
belly,belly,,,,,0,21,21,21,,,,,,,,302.5296065262519,None,"['b', 'e', 'l', 'l', 'y']",1,"[0.7013648790307343, 0.8694700016640127, 1.1654665498062968, 1.3093720036558807, 1.4214868787676096]",302.5296065262519,None,302.52999077169227,302.62970893923193,,,,,,,,,,,,83_07142022,001,2022_Jul_14_1619,test_typingtask_norepeats,2020.2.10,60.032648392919214,
vanru,vanru,,,,,0,22,22,22,,,,,,,,308.02946560503915,None,"['v', 'a', 'n', 'r', 'u']",1,"[0.689567169174552, 0.8815108123235404, 1.417503942269832, 1.5535929212346673, 1.681552563328296]",308.02946560503915,None,308.0297646507621,308.12972733797505,,,,,,,,,,,,83_07142022,001,2022_Jul_14_1619,test_typingtask_norepeats,2020.2.10,60.032648392919214,
pykka,pykka,,,,,0,23,23,23,,,,,,,,313.5295249419287,None,"['p', 'y', 'k', 'k', 'a']",1,"[0.9094365118071437, 1.301445229910314, 1.981493033003062, 2.1174449459649622, 2.2615789039991796]",313.5295249419287,None,313.5296331671067,313.62966707907617,,,,,,,,,,,,83_07142022,001,2022_Jul_14_1619,test_typingtask_norepeats,2020.2.10,60.032648392919214,
zibja,zibja,,,,,0,24,24,24,,,,,,,,319.02938786288723,None,"['z', 'i', 'b', 'j', 'a']",1,"[0.9776358241215348, 1.2095878990367055, 1.8095888057723641, 2.1776067158207297, 2.65769404405728]",319.02938786288723,None,319.0294215887785,319.129517306108,,,,,,,,,,,,83_07142022,001,2022_Jul_14_1619,test_typingtask_norepeats,2020.2.10,60.032648392919214,
about,about,,,,,0,25,25,25,,,,,,,,324.5296793691814,None,"['a', 'b', 'o', 'u', 't']",1,"[0.6853780006058514, 0.949393730610609, 1.1413608728908002, 1.2533964118920267, 1.381338112987578]",324.5296793691814,None,324.5296679478139,324.6299698832445,,,,,,,,,,,,83_07142022,001,2022_Jul_14_1619,test_typingtask_norepeats,2020.2.10,60.032648392919214,
haole,haole,,,,,0,26,26,26,,,,,,,,330.0296831591986,None,"['h', 'a', 'o', 'l', 'e']",1,"[0.8092910158447921, 0.9454625560902059, 1.193296556826681, 1.393325257115066, 1.4812945839948952]",330.0296831591986,None,330.02958460887896,330.12969053396955,,,,,,,,,,,,83_07142022,001,2022_Jul_14_1619,test_typingtask_norepeats,2020.2.10,60.032648392919214,
lucky,lucky,,,,,0,27,27,27,,,,,,,,335.5295582260005,None,"['l', 'u', 'c', 'k', 'y']",1,"[1.0294399252161384, 1.2294103810563684, 1.405530998017639, 1.5255564819090068, 1.7254623072221875]",335.5295582260005,None,335.5292787029408,335.62926850793883,,,,,,,,,,,,83_07142022,001,2022_Jul_14_1619,test_typingtask_norepeats,2020.2.10,60.032648392919214,
there,there,,,,,0,28,28,28,,,,,,,,341.0297339502722,None,"['t', 'h', 'e', 'r', 'e']",1,"[0.6733014769852161, 0.7853600149974227, 0.857363329268992, 0.9292836040258408, 1.0493463389575481]",341.0297339502722,None,341.0295388078317,341.1296555730514,,,,,,,,,,,,83_07142022,001,2022_Jul_14_1619,test_typingtask_norepeats,2020.2.10,60.032648392919214,
buddy,buddy,,,,,0,29,29,29,,,,,,,,346.52970613725483,None,"['b', 'u', 'd', 'd', 'y']",1,"[0.6213275459595025, 0.8932561501860619, 1.093264545314014, 1.2613685042597353, 1.349367894232273]",346.52970613725483,None,346.5297211021185,346.62960203317925,,,,,,,,,,,,83_07142022,001,2022_Jul_14_1619,test_typingtask_norepeats,2020.2.10,60.032648392919214,
therm,therm,,,,,0,30,30,30,,,,,,,,352.0297444309108,None,"['t', 'h', 'e', 'r', 'm']",1,"[0.6333394139073789, 0.7533438820391893, 0.8252719468437135, 0.9052964625880122, 1.0413022600114346]",352.0297444309108,None,352.02969968589025,352.129544718191,,,,,,,,,,,,83_07142022,001,2022_Jul_14_1619,test_typingtask_norepeats,2020.2.10,60.032648392919214,
tithe,tithe,,,,,0,31,31,31,,,,,,,,357.52968542603776,None,"['t', 'i', 'u', 't', 'h', 'e']",0,"[0.7653596238233149, 0.9493523817509413, 0.9493523817509413, 1.8214041427709162, 1.909309631679207, 2.021403396036476]",357.52968542603776,None,357.52972166603433,357.6295258263126,,,,,,,,,,,,83_07142022,001,2022_Jul_14_1619,test_typingtask_norepeats,2020.2.10,60.032648392919214,
cooed,cooed,,,,,0,32,32,32,,,,,,,,363.02979226922616,None,"['c', 'o', 'o', 'e', 'd']",1,"[0.6252442859113216, 0.889328149612993, 1.0572370239533484, 1.1291820858605206, 1.2492477516643703]",363.02979226922616,None,363.0297914220952,363.1297891889699,,,,,,,,,,,,83_07142022,001,2022_Jul_14_1619,test_typingtask_norepeats,2020.2.10,60.032648392919214,
cheer,cheer,,,,,0,33,33,33,,,,,,,,368.5299405651167,None,"['c', 'h', 'e', 'e', 'r']",1,"[0.7010336499661207, 0.885106485337019, 1.0450804643332958, 1.189079635310918, 1.3251024531200528]",368.5299405651167,None,368.52979028588163,368.62980633834377,,,,,,,,,,,,83_07142022,001,2022_Jul_14_1619,test_typingtask_norepeats,2020.2.10,60.032648392919214,
edthe,edthe,,,,,0,34,34,34,,,,,,,,374.0297029642388,None,"['e', 'd', 't', 'h', 'e']",1,"[0.8254153835587204, 0.9772568587213755, 1.1932749627158046, 1.305389880668372, 1.4172644186764956]",374.0297029642388,None,374.0297055108473,374.12970286700875,,,,,,,,,,,,83_07142022,001,2022_Jul_14_1619,test_typingtask_norepeats,2020.2.10,60.032648392919214,
zibja,zibja,,,,,0,35,35,35,,,,,,,,379.5304279802367,None,"['z', 'i', 'b', 'j', 'a']",1,"[1.0046111987903714, 1.236688462086022, 1.564657969865948, 2.268637946806848, 2.6046763667836785]",379.5304279802367,None,379.53163105100396,None,,,,,,,,,,,,83_07142022,001,2022_Jul_14_1619,test_typingtask_norepeats,2020.2.10,60.032648392919214,
haole,haole,,,,,0,36,36,36,,,,,,,,385.0295851691626,None,"['h', 'a', 'o', 'l', 'e']",1,"[0.8494867230765522, 0.9694403610192239, 1.2334971278905869, 1.441397009883076, 1.5694906348362565]",385.0295851691626,None,385.0297325308435,385.12973329098895,,,,,,,,,,,,83_07142022,001,2022_Jul_14_1619,test_typingtask_norepeats,2020.2.10,60.032648392919214,
cheer,cheer,,,,,0,37,37,37,,,,,,,,390.52965312311426,None,"['c', 'h', 'e', 'e', 'r']",1,"[0.7173155909404159, 0.8854237389750779, 1.0614047939889133, 1.205448311753571, 1.3573789587244391]",390.52965312311426,None,390.5296895917505,390.62972953822464,,,,,,,,,,,,83_07142022,001,2022_Jul_14_1619,test_typingtask_norepeats,2020.2.10,60.032648392919214,
would,would,,,,,0,38,38,38,,,,,,,,396.0296257152222,None,"['w', 'o', 'u', 'l', 'd']",1,"[0.8254875489510596, 1.0654477011412382, 1.1933584553189576, 1.4574162252247334, 1.5854540532454848]",396.0296257152222,None,396.02971774097534,396.1296320781112,,,,,,,,,,,,83_07142022,001,2022_Jul_14_1619,test_typingtask_norepeats,2020.2.10,60.032648392919214,
druze,druze,,,,,0,39,39,39,,,,,,,,401.529663648922,None,"['d', 'r', 'u', 'z', 'e']",1,"[0.8293161210604012, 1.133397196419537, 1.3334123161621392, 1.6054252753965557, 1.9173023654147983]",401.529663648922,None,401.52974588694053,401.63014430599287,,,,,,,,,,,,83_07142022,001,2022_Jul_14_1619,test_typingtask_norepeats,2020.2.10,60.032648392919214,
heond,heond,,,,,0,40,40,40,,,,,,,,407.02972843823954,None,"['h', 'e', 'o', 'n', 'd']",1,"[0.9453521179966629, 1.105302954558283, 1.2573986747302115, 1.4333219109103084, 1.6012392728589475]",407.02972843823954,None,407.02951401881876,407.12959364196286,,,,,,,,,,,,83_07142022,001,2022_Jul_14_1619,test_typingtask_norepeats,2020.2.10,60.032648392919214,
edthe,edthe,,,,,0,41,41,41,,,,,,,,412.5298916422762,None,"['e', 'd', 't', 'h', 'e']",1,"[0.6611989210359752, 0.8531867517158389, 1.0770832258276641, 1.2051510359160602, 1.32514983182773]",412.5298916422762,None,412.5295689179562,412.629789322149,,,,,,,,,,,,83_07142022,001,2022_Jul_14_1619,test_typingtask_norepeats,2020.2.10,60.032648392919214,
about,about,,,,,0,42,42,42,,,,,,,,418.0297468621284,None,"['a', 'b', 'o', 'u', 't']",1,"[0.6253946139477193, 0.8732581022195518, 1.0732176923193038, 1.2172196200117469, 1.3533141729421914]",418.0297468621284,None,418.0298169007525,418.12975150719285,,,,,,,,,,,,83_07142022,001,2022_Jul_14_1619,test_typingtask_norepeats,2020.2.10,60.032648392919214,
heond,heond,,,,,0,43,43,43,,,,,,,,423.5299456929788,None,"['h', 'e', 'o', 'n', 'd']",1,"[0.7570436182431877, 0.9411109602078795, 1.4451560378074646, 1.6130835469812155, 1.7571002738550305]",423.5299456929788,None,423.53036056868734,423.62967142416164,,,,,,,,,,,,83_07142022,001,2022_Jul_14_1619,test_typingtask_norepeats,2020.2.10,60.032648392919214,
faqir,faqir,,,,,0,44,44,44,,,,,,,,429.0299107520841,None,"['f', 'a', 'q', 'i', 'r']",1,"[0.7290709572844207, 1.1611427483148873, 1.4571685292758048, 1.6651674499735236, 1.825112758204341]",429.0299107520841,None,429.0299153881148,429.12972572119907,,,,,,,,,,,,83_07142022,001,2022_Jul_14_1619,test_typingtask_norepeats,2020.2.10,60.032648392919214,
edthe,edthe,,,,,0,45,45,45,,,,,,,,434.52980897109956,None,"['e', 'd', 't', 'h', 'e']",1,"[0.8931798557750881, 1.077151043806225, 1.30115338973701, 1.4052153546363115, 1.501154012978077]",434.52980897109956,None,434.52985574807974,434.6297202222049,,,,,,,,,,,,83_07142022,001,2022_Jul_14_1619,test_typingtask_norepeats,2020.2.10,60.032648392919214,
kremp,kremp,,,,,0,46,46,46,,,,,,,,440.02997399913147,None,"['k', 'r', 'e', 'm', 'p']",1,"[0.8090303400531411, 0.9210541066713631, 0.9929841770790517, 1.1450911867432296, 1.4810469867661595]",440.02997399913147,None,440.02969092307615,440.1300989771262,,,,,,,,,,,,83_07142022,001,2022_Jul_14_1619,test_typingtask_norepeats,2020.2.10,60.032648392919214,
champ,champ,,,,,0,47,47,47,,,,,,,,445.52974833734334,None,"['c', 'h', 'a', 'm', 'p']",1,"[0.669336105696857, 0.8213023110292852, 0.9973324127495289, 1.4932235456071794, 1.7172153848223388]",445.52974833734334,None,445.5297198657878,445.63014335697517,,,,,,,,,,,,83_07142022,001,2022_Jul_14_1619,test_typingtask_norepeats,2020.2.10,60.032648392919214,
heond,heond,,,,,0,48,48,48,,,,,,,,451.0298772188835,None,"['h', 'e', 'o', 'n', 'd']",1,"[0.6971784979104996, 0.8412200203165412, 0.9850929663516581, 1.1931011471897364, 1.2972063403576612]",451.0298772188835,None,451.0298628717661,451.129938588012,,,,,,,,,,,,83_07142022,001,2022_Jul_14_1619,test_typingtask_norepeats,2020.2.10,60.032648392919214,
zibja,zibja,,,,,0,49,49,49,,,,,,,,456.52981774602085,None,"['z', 'i', 'b', 'j', 'a']",1,"[0.8532680170610547, 1.1332226027734578, 1.349263192154467, 1.5812006411142647, 1.7811973579227924]",456.52981774602085,None,456.5301399867982,456.62989265518263,,,,,,,,,,,,83_07142022,001,2022_Jul_14_1619,test_typingtask_norepeats,2020.2.10,60.032648392919214,
theme,theme,,,,,0,50,50,50,,,,,,,,462.0296397251077,None,"['t', 'h', 'e', 'm', 'e']",1,"[0.7213983731344342, 0.8573373081162572, 1.01736507890746, 1.1933373329229653, 1.3054393748752773]",462.0296397251077,None,462.0297275198624,462.1298386929557,,,,,,,,,,,,83_07142022,001,2022_Jul_14_1619,test_typingtask_norepeats,2020.2.10,60.032648392919214,
therm,therm,,,,,0,51,51,51,,,,,,,,467.5297208139673,None,"['t', 'h', 'e', 'r', 'm']",1,"[0.6853344971314073, 0.8052510730922222, 0.9172618249431252, 0.9973168801516294, 1.133297075983137]",467.5297208139673,None,467.5296725196764,467.6298320009373,,,,,,,,,,,,83_07142022,001,2022_Jul_14_1619,test_typingtask_norepeats,2020.2.10,60.032648392919214,
vanru,vanru,,,,,0,52,52,52,,,,,,,,473.0321046542376,None,"['v', 'a', 'n', 'r', 'u']",1,"[0.902844674885273, 1.0788694797083735, 1.486862442921847, 1.982949344906956, 2.15091968793422]",473.0321046542376,None,473.0305830206722,473.13084498094395,,,,,,,,,,,,83_07142022,001,2022_Jul_14_1619,test_typingtask_norepeats,2020.2.10,60.032648392919214,
faqir,faqir,,,,,0,53,53,53,,,,,,,,478.53105017216876,None,"['f', 'a', 'q', 'i', 'r']",1,"[0.7241067937575281, 1.1239820700138807, 1.3879134538583457, 1.5960163958370686, 1.7319983029738069]",478.53105017216876,None,478.5304513190873,478.6293065370992,,,,,,,,,,,,83_07142022,001,2022_Jul_14_1619,test_typingtask_norepeats,2020.2.10,60.032648392919214,
cheer,cheer,,,,,0,54,54,54,,,,,,,,484.04657418234274,None,"['c', 'h', 'e', 'e', 'r']",1,"[0.6405015299096704, 0.80845712358132, 0.9364978377707303, 1.1045044148340821, 1.2324551297351718]",484.04657418234274,None,484.0466403881088,484.14652771130204,,,,,,,,,,,,83_07142022,001,2022_Jul_14_1619,test_typingtask_norepeats,2020.2.10,60.032648392919214,
lucky,lucky,,,,,0,55,55,55,,,,,,,,489.5466822651215,None,"['l', 'u', 'c', 'k', 'y']",1,"[0.7723604799248278, 0.9403154719620943, 1.1002912218682468, 1.1964290589094162, 1.4364586360752583]",489.5466822651215,None,489.5469937020913,489.6468285713345,,,,,,,,,,,,83_07142022,001,2022_Jul_14_1619,test_typingtask_norepeats,2020.2.10,60.032648392919214,
kremp,kremp,,,,,0,56,56,56,,,,,,,,495.0467457980849,None,"['k', 'r', 'e', 'm', 'p']",1,"[0.8402952528558671, 0.9602361773140728, 1.0563360401429236, 1.192289762198925, 1.4803121420554817]",495.0467457980849,None,495.04644941482695,495.1467894660309,,,,,,,,,,,,83_07142022,001,2022_Jul_14_1619,test_typingtask_norepeats,2020.2.10,60.032648392919214,
cooed,cooed,,,,,0,57,57,57,,,,,,,,500.54665685631335,None,"['c', 'o', 'o', 'e', 'd']",1,"[0.6684068352915347, 0.8843038170598447, 1.0284272953867912, 1.1002883203327656, 1.2123312670737505]",500.54665685631335,None,500.5465866019018,500.6466242033057,,,,,,,,,,,,83_07142022,001,2022_Jul_14_1619,test_typingtask_norepeats,2020.2.10,60.032648392919214,
about,about,,,,,0,58,58,58,,,,,,,,506.04648237815127,None,"['a', 'b', 'o', 'u', 't']",1,"[0.7605160241946578, 0.9925635349936783, 1.1525763659738004, 1.2966245338320732, 1.4246190232224762]",506.04648237815127,None,506.0466553889215,506.1466517508961,,,,,,,,,,,,83_07142022,001,2022_Jul_14_1619,test_typingtask_norepeats,2020.2.10,60.032648392919214,
vanru,vanru,,,,,0,59,59,59,,,,,,,,511.54658734519035,None,"['v', 'a', 'n', 'r', 'u']",1,"[0.7725102659314871, 0.9164881422184408, 1.0364933223463595, 1.1884437473490834, 1.3805039119906723]",511.54658734519035,None,511.5466055626981,511.6465381588787,,,,,,,,,,,,83_07142022,001,2022_Jul_14_1619,test_typingtask_norepeats,2020.2.10,60.032648392919214,
belly,belly,,,,,0,60,60,60,,,,,,,,517.0464630322531,None,"['b', 'e', 'l', 'l', 'y']",1,"[0.6645405171439052, 0.7604974079877138, 1.064560494851321, 1.216611706186086, 1.304644849151373]",517.0464630322531,None,517.0464952028357,517.1465746629983,,,,,,,,,,,,83_07142022,001,2022_Jul_14_1619,test_typingtask_norepeats,2020.2.10,60.032648392919214,
would,would,,,,,0,61,61,61,,,,,,,,522.546561084222,None,"['w', 'o', 'u', 'l', 'd']",1,"[0.7644353229552507, 1.06045384099707, 1.180517781060189, 1.4285087822936475, 1.6044944450259209]",522.546561084222,None,522.5464124199003,522.6466101473197,,,,,,,,,,,,83_07142022,001,2022_Jul_14_1619,test_typingtask_norepeats,2020.2.10,60.032648392919214,
zibja,zibja,,,,,0,62,62,62,,,,,,,,528.0465042549185,None,"['z', 'i', 'b', 'j', 'a']",1,"[0.8965838178992271, 1.0885339919477701, 1.4165688487701118, 1.7525665848515928, 1.976467777043581]",528.0465042549185,None,528.0465492591262,528.1466745520011,,,,,,,,,,,,83_07142022,001,2022_Jul_14_1619,test_typingtask_norepeats,2020.2.10,60.032648392919214,
puppy,puppy,,,,,0,63,63,63,,,,,,,,533.5466424711049,None,"['p', 'u', 'p', 'p', 'y']",1,"[0.7724524852819741, 0.9963348479941487, 1.212335254997015, 1.3403920084238052, 1.484331310261041]",533.5466424711049,None,533.5463453306817,533.6464351029135,,,,,,,,,,,,83_07142022,001,2022_Jul_14_1619,test_typingtask_norepeats,2020.2.10,60.032648392919214,
vodka,vodka,,,,,0,64,64,64,,,,,,,,539.0465596141294,None,"['v', 'o', 'd', 'k', 'a']",1,"[0.8004077449440956, 0.9124294365756214, 1.1444872128777206, 1.2885211859829724, 1.4404813926666975]",539.0465596141294,None,539.046370231919,539.1465213489719,,,,,,,,,,,,83_07142022,001,2022_Jul_14_1619,test_typingtask_norepeats,2020.2.10,60.032648392919214,
kremp,kremp,,,,,0,65,65,65,,,,,,,,544.5466843079776,None,"['k', 'r', 'e', 'm', 'p']",1,"[0.692353576887399, 0.8123526992276311, 0.8683900549076498, 1.0363939320668578, 1.228369442280382]",544.5466843079776,None,544.5464896037244,544.6465808963403,,,,,,,,,,,,83_07142022,001,2022_Jul_14_1619,test_typingtask_norepeats,2020.2.10,60.032648392919214,
puppy,puppy,,,,,0,66,66,66,,,,,,,,550.0466042798944,None,"['p', 'u', 'p', 'p', 'y']",1,"[0.8484724541194737, 1.200351390056312, 1.3923807237297297, 1.5364734306931496, 1.704476956743747]",550.0466042798944,None,550.0466484459117,550.1463938970119,,,,,,,,,,,,83_07142022,001,2022_Jul_14_1619,test_typingtask_norepeats,2020.2.10,60.032648392919214,
tithe,tithe,,,,,0,67,67,67,,,,,,,,555.5467954589985,None,"['t', 'i', 't', 'h', 'e']",1,"[0.7722811121493578, 0.9162511304020882, 1.0122292884625494, 1.14826291333884, 1.244477148167789]",555.5467954589985,None,555.5467900679447,555.6464056521654,,,,,,,,,,,,83_07142022,001,2022_Jul_14_1619,test_typingtask_norepeats,2020.2.10,60.032648392919214,
druze,druze,,,,,0,68,68,68,,,,,,,,561.0466523179784,None,"['d', 'r', 'u', 'z', 'e']",1,"[0.5843277471140027, 0.7684262334369123, 1.0003169644623995, 1.2163984850049019, 1.5123651432804763]",561.0466523179784,None,561.0468125309795,561.1466286419891,,,,,,,,,,,,83_07142022,001,2022_Jul_14_1619,test_typingtask_norepeats,2020.2.10,60.032648392919214,
puppy,puppy,,,,,0,69,69,69,,,,,,,,566.5468423860148,None,"['p', 'u', 'p', 'p', 'y']",1,"[0.7401748360134661, 0.9721557470038533, 1.1641218150034547, 1.3242374551482499, 1.4522364889271557]",566.5468423860148,None,566.5467499498278,566.6466035181656,,,,,,,,,,,,83_07142022,001,2022_Jul_14_1619,test_typingtask_norepeats,2020.2.10,60.032648392919214,
pykka,pykka,,,,,0,70,70,70,,,,,,,,572.0464435783215,None,"['p', 'u', 'k', 'k', 'a']",0,"[0.9045980828814209, 1.192507881205529, 2.040595863945782, 2.2005263972096145, 2.34465078311041]",572.0464435783215,None,572.0465773757547,572.1468527982943,,,,,,,,,,,,83_07142022,001,2022_Jul_14_1619,test_typingtask_norepeats,2020.2.10,60.032648392919214,
belly,belly,,,,,0,71,71,71,,,,,,,,577.546752218157,None,"['b', 'e', 'l', 'l', 'y']",1,"[0.6922785327769816, 0.8842197540216148, 1.076231052633375, 1.2283568596467376, 1.3323279679752886]",577.546752218157,None,577.5467632030137,577.6467264979146,,,,,,,,,,,,83_07142022,001,2022_Jul_14_1619,test_typingtask_norepeats,2020.2.10,60.032648392919214,
cheer,cheer,,,,,0,72,72,72,,,,,,,,583.046562815085,None,"['c', 'h', 'e', 'e', 'r']",1,"[0.6484175869263709, 0.7844134797342122, 0.9205249017104506, 1.0644725859165192, 1.1844077529385686]",583.046562815085,None,583.0466401408427,583.146632659249,,,,,,,,,,,,83_07142022,001,2022_Jul_14_1619,test_typingtask_norepeats,2020.2.10,60.032648392919214,
would,would,,,,,0,73,73,73,,,,,,,,588.5466552563012,None,"['w', 'o', 'u', 'l', 'd']",1,"[0.8043817887082696, 1.0363826458342373, 1.1484373058192432, 1.3883092999458313, 1.5003115329891443]",588.5466552563012,None,588.5467462529429,588.646648186259,,,,,,,,,,,,83_07142022,001,2022_Jul_14_1619,test_typingtask_norepeats,2020.2.10,60.032648392919214,
lucky,lucky,,,,,0,74,74,74,,,,,,,,594.0464821849018,None,"['l', 'u', 'c', 'k', 'y']",1,"[0.6645367271266878, 0.8806126150302589, 1.0004845480434597, 1.1045323279686272, 1.2964970809407532]",594.0464821849018,None,594.0465988348238,594.1466413172893,,,,,,,,,,,,83_07142022,001,2022_Jul_14_1619,test_typingtask_norepeats,2020.2.10,60.032648392919214,
pykka,pykka,,,,,0,75,75,75,,,,,,,,599.546873264946,None,"['p', 'y', 'k', 'k', 'a']",1,"[0.8282225038856268, 1.2281823856756091, 1.700103537645191, 1.8442879267968237, 1.9641487677581608]",599.546873264946,None,599.5466756400652,599.646447441075,,,,,,,,,,,,83_07142022,001,2022_Jul_14_1619,test_typingtask_norepeats,2020.2.10,60.032648392919214,
vanru,vanru,,,,,0,76,76,76,,,,,,,,605.0466975602321,None,"['v', 'a', 'n', 'r', 'u']",1,"[0.6883942601270974, 0.8403271920979023, 0.9602574813179672, 1.0963017889298499, 1.2563360990025103]",605.0466975602321,None,605.0467313047499,605.1466294750571,,,,,,,,,,,,83_07142022,001,2022_Jul_14_1619,test_typingtask_norepeats,2020.2.10,60.032648392919214,
druze,druze,,,,,0,77,77,77,,,,,,,,610.5467499820516,None,"['d', 'r', 'u', 'z', 'e']",1,"[0.6363323046825826, 0.8202900178730488, 1.0203536259941757, 1.2602133136242628, 1.5963479890488088]",610.5467499820516,None,610.5466786258854,610.6467112679966,,,,,,,,,,,,83_07142022,001,2022_Jul_14_1619,test_typingtask_norepeats,2020.2.10,60.032648392919214,
theme,theme,,,,,0,78,78,78,,,,,,,,616.0467741950415,None,"['t', 'h', 'e', 'm', 'e']",1,"[0.6242602998390794, 0.7203044751659036, 0.8642866839654744, 1.0163002209737897, 1.1042336039245129]",616.0467741950415,None,616.0466277090833,616.1469610822387,,,,,,,,,,,,83_07142022,001,2022_Jul_14_1619,test_typingtask_norepeats,2020.2.10,60.032648392919214,
druze,druze,,,,,0,79,79,79,,,,,,,,621.546718607191,None,"['d', 'r', 'u', 'z', 'e']",1,"[0.6043465198017657, 0.8123103459365666, 1.0762548251077533, 1.284253146033734, 1.5002877959050238]",621.546718607191,None,621.5467486510985,621.6464563910849,,,,,,,,,,,,83_07142022,001,2022_Jul_14_1619,test_typingtask_norepeats,2020.2.10,60.032648392919214,
lucky,lucky,,,,,0,80,80,80,,,,,,,,627.0466913920827,None,"['l', 'u', 'c', 'k', 'y']",1,"[0.7284257155843079, 0.888388519641012, 1.0323904938995838, 1.1523881745524704, 1.3523297938518226]",627.0466913920827,None,627.0468685677275,627.1467198762111,,,,,,,,,,,,83_07142022,001,2022_Jul_14_1619,test_typingtask_norepeats,2020.2.10,60.032648392919214,
think,think,,,,,0,81,81,81,,,,,,,,632.5467755161226,None,"['t', 'h', 'i', 'n', 'k']",1,"[0.5881694280542433, 0.7722605429589748, 0.8841959410347044, 1.0761874378658831, 1.2442836868576705]",632.5467755161226,None,632.5469351600856,632.6469162642024,,,,,,,,,,,,83_07142022,001,2022_Jul_14_1619,test_typingtask_norepeats,2020.2.10,60.032648392919214,
champ,champ,,,,,0,82,82,82,,,,,,,,638.0468842103146,None,"['c', 'h', 'a', 'm', 'p']",1,"[0.5681687039323151, 0.7201795899309218, 0.8641328318044543, 1.0000901310704648, 1.2081542978994548]",638.0468842103146,None,638.0467408498749,638.1467334562913,,,,,,,,,,,,83_07142022,001,2022_Jul_14_1619,test_typingtask_norepeats,2020.2.10,60.032648392919214,
pykka,pykka,,,,,0,83,83,83,,,,,,,,643.5470635290258,None,"['p', 'y', 'k', 'k', 'a']",1,"[0.8279959550127387, 1.0999646242707968, 1.667957792058587, 1.819938801229, 1.9240402351133525]",643.5470635290258,None,643.5467756180093,643.6468129940331,,,,,,,,,,,,83_07142022,001,2022_Jul_14_1619,test_typingtask_norepeats,2020.2.10,60.032648392919214,
think,think,,,,,0,84,84,84,,,,,,,,649.0465472042561,None,"['t', 'h', 'i', 'n', 'k']",1,"[0.6004239162430167, 0.7764234119094908, 1.29643177613616, 1.4724508849903941, 1.648430353961885]",649.0465472042561,None,649.0468107619323,649.1467164410278,,,,,,,,,,,,83_07142022,001,2022_Jul_14_1619,test_typingtask_norepeats,2020.2.10,60.032648392919214,
kremp,kremp,,,,,0,85,85,85,,,,,,,,654.5465875403024,None,"['k', 'r', 'e', 'm', 'p']",1,"[0.7963926950469613, 0.9324591709300876, 0.9964213850907981, 1.1164933699183166, 1.3164837691001594]",654.5465875403024,None,654.5467616877519,654.6466720560566,,,,,,,,,,,,83_07142022,001,2022_Jul_14_1619,test_typingtask_norepeats,2020.2.10,60.032648392919214,
about,about,,,,,0,86,86,86,,,,,,,,660.0467765801586,None,"['a', 'b', 'o', 'u', 't']",1,"[0.5841955039650202, 0.7682084180414677, 0.8883184278383851, 1.0001902799122036, 1.0962256020866334]",660.0467765801586,None,660.0466922557913,660.1468197400682,,,,,,,,,,,,83_07142022,001,2022_Jul_14_1619,test_typingtask_norepeats,2020.2.10,60.032648392919214,
there,there,,,,,0,87,87,87,,,,,,,,665.5466604488902,None,"['t', 'h', 'r', 'e']",0,"[0.5563741219229996, 0.6603485480882227, 0.780398485250771, 0.9324152111075819]",665.5466604488902,None,665.5466516678222,665.6468987138942,,,,,,,,,,,,83_07142022,001,2022_Jul_14_1619,test_typingtask_norepeats,2020.2.10,60.032648392919214,
therm,therm,,,,,0,88,88,88,,,,,,,,671.0634544133209,None,"['t', 'h', 'e', 'r', 'm']",1,"[0.623543263413012, 0.7276802472770214, 0.8395988792181015, 0.9435058762319386, 1.0475331842899323]",671.0634544133209,None,671.0633193956688,671.1634646588936,,,,,,,,,,,,83_07142022,001,2022_Jul_14_1619,test_typingtask_norepeats,2020.2.10,60.032648392919214,
vanru,vanru,,,,,0,89,89,89,,,,,,,,676.563439917285,None,"['v', 'a', 'n', 'r', 'u']",1,"[0.7156340782530606, 0.8515305961482227, 1.019640482030809, 1.1636381703428924, 1.307601806242019]",676.563439917285,None,676.5634813810699,676.6633241050877,,,,,,,,,,,,83_07142022,001,2022_Jul_14_1619,test_typingtask_norepeats,2020.2.10,60.032648392919214,
buddy,buddy,,,,,0,90,90,90,,,,,,,,682.063500283286,None,"['b', 'u', 'd', 'd', 'y']",1,"[0.6475092857144773, 0.8075796207413077, 1.239530426915735, 1.375458172056824, 1.4794770367443562]",682.063500283286,None,682.0635488609784,682.1633384432644,,,,,,,,,,,,83_07142022,001,2022_Jul_14_1619,test_typingtask_norepeats,2020.2.10,60.032648392919214,
vodka,vodka,,,,,0,91,91,91,,,,,,,,687.5635075089522,None,"['v', 'o', 'd', 'k', 'a']",1,"[0.6995646911673248, 1.2355245710350573, 1.6995626618154347, 1.8754746639169753, 2.0035674357786775]",687.5635075089522,None,687.5635988096707,687.6635055071674,,,,,,,,,,,,83_07142022,001,2022_Jul_14_1619,test_typingtask_norepeats,2020.2.10,60.032648392919214,
cheer,cheer,,,,,0,92,92,92,,,,,,,,693.0635996940546,None,"['c', 'h', 'e', 'e', 'r']",1,"[0.6234463732689619, 0.7994428821839392, 0.9433954614214599, 1.103481428232044, 1.2473921393975616]",693.0635996940546,None,693.0633902460337,693.16367209889,,,,,,,,,,,,83_07142022,001,2022_Jul_14_1619,test_typingtask_norepeats,2020.2.10,60.032648392919214,
kremp,kremp,,,,,0,93,93,93,,,,,,,,698.5634339982644,None,"['k', 'r', 'e', 'm', 'p']",1,"[0.6996484124101698, 0.8435290260240436, 0.907611567992717, 1.067536311224103, 1.2675353712402284]",698.5634339982644,None,698.5633871759288,698.6634279219434,,,,,,,,,,,,83_07142022,001,2022_Jul_14_1619,test_typingtask_norepeats,2020.2.10,60.032648392919214,
buddy,buddy,,,,,0,94,94,94,,,,,,,,704.063679753337,None,"['b', 'u', 'd', 'd', 'y']",1,"[0.7033747839741409, 1.0153283290565014, 1.1752803148701787, 1.3272549379616976, 1.4073392879217863]",704.063679753337,None,704.0634811868891,704.1639383411966,,,,,,,,,,,,83_07142022,001,2022_Jul_14_1619,test_typingtask_norepeats,2020.2.10,60.032648392919214,
champ,champ,,,,,0,95,95,95,,,,,,,,709.5633629113436,None,"['c', 'h', 'a', 'm', 'p']",1,"[0.5957028777338564, 0.7236131448298693, 0.8756494815461338, 1.0196447889320552, 1.2117549777030945]",709.5633629113436,None,709.5635985959321,709.6636083670892,,,,,,,,,,,,83_07142022,001,2022_Jul_14_1619,test_typingtask_norepeats,2020.2.10,60.032648392919214,
haole,haole,,,,,0,96,96,96,,,,,,,,715.063352194149,None,"['h', 'a', 'o', 'l', 'e']",1,"[0.7676026010885835, 0.9596179421059787, 1.1596154500730336, 1.4156992812640965, 1.5436566690914333]",715.063352194149,None,715.0635226288811,715.1635108590126,,,,,,,,,,,,83_07142022,001,2022_Jul_14_1619,test_typingtask_norepeats,2020.2.10,60.032648392919214,
therm,therm,,,,,0,97,97,97,,,,,,,,720.56342275301,None,"['t', 'h', 'e', 'r', 'm']",1,"[0.6036530891433358, 0.7156519740819931, 0.8116811932995915, 0.8916529510170221, 1.0515580540522933]",720.56342275301,None,720.5634343818762,720.6634844383225,,,,,,,,,,,,83_07142022,001,2022_Jul_14_1619,test_typingtask_norepeats,2020.2.10,60.032648392919214,
buddy,buddy,,,,,0,98,98,98,,,,,,,,726.0633876249194,None,"['b', 'u', 'd', 'd', 'y']",1,"[0.6876940270885825, 0.9116761009208858, 1.1276476550847292, 1.2877092170529068, 1.3835921580903232]",726.0633876249194,None,726.0635946718045,726.1637131823227,,,,,,,,,,,,83_07142022,001,2022_Jul_14_1619,test_typingtask_norepeats,2020.2.10,60.032648392919214,
think,think,,,,,0,99,99,99,,,,,,,,731.5634990590625,None,"['t', 'h', 'i', 'n', 'k']",1,"[0.6115647270344198, 0.8195825046859682, 1.0116490768268704, 1.2195791560225189, 1.4035593117587268]",731.5634990590625,None,731.5635441340506,731.6637122193351,,,,,,,,,,,,83_07142022,001,2022_Jul_14_1619,test_typingtask_norepeats,2020.2.10,60.032648392919214,
cooed,cooed,,,,,0,100,100,100,,,,,,,,737.0635457900353,None,"['c', 'o', 'o', 'e', 'd']",1,"[0.6315445271320641, 1.1115304669365287, 1.2635287921875715, 1.3674229439347982, 1.4555426919832826]",737.0635457900353,None,737.063416971732,737.1635427349247,,,,,,,,,,,,83_07142022,001,2022_Jul_14_1619,test_typingtask_norepeats,2020.2.10,60.032648392919214,
there,there,,,,,0,101,101,101,,,,,,,,742.5635505970567,None,"['t', 'h', 'e', 'r', 'e']",1,"[0.5794670539908111, 0.6754272920079529, 0.7635295977815986, 0.8594229649752378, 0.9794274461455643]",742.5635505970567,None,742.5634286127985,742.6636924319901,,,,,,,,,,,,83_07142022,001,2022_Jul_14_1619,test_typingtask_norepeats,2020.2.10,60.032648392919214,
would,would,,,,,0,102,102,102,,,,,,,,748.0634265202098,None,"['w', 'o', 'u', 'l', 'd']",1,"[0.8636463768780231, 1.0716069219633937, 1.2475820719264448, 1.4875552006997168, 1.6475636758841574]",748.0634265202098,None,748.063470805902,748.1633155583404,,,,,,,,,,,,83_07142022,001,2022_Jul_14_1619,test_typingtask_norepeats,2020.2.10,60.032648392919214,
champ,champ,,,,,0,103,103,103,,,,,,,,753.5635848119855,None,"['c', 'h', 'a', 'm', 'p']",1,"[0.7314354036934674, 0.8994233850389719, 1.0353936851024628, 1.2354892189614475, 1.4593827626667917]",753.5635848119855,None,753.5636589540169,753.6634047762491,,,,,,,,,,,,83_07142022,001,2022_Jul_14_1619,test_typingtask_norepeats,2020.2.10,60.032648392919214,
lucky,lucky,,,,,0,104,104,104,,,,,,,,759.0635805670172,None,"['l', 'u', 'c', 'k', 'y']",1,"[0.9115278269164264, 1.127477329224348, 1.2555177100002766, 1.3354777349159122, 1.7914990400895476]",759.0635805670172,None,759.0637162629515,759.1635000631213,,,,,,,,,,,,83_07142022,001,2022_Jul_14_1619,test_typingtask_norepeats,2020.2.10,60.032648392919214,
cooed,cooed,,,,,0,105,105,105,,,,,,,,764.5636690901592,None,"['c', 'o', 'o', 'e', 'd']",1,"[0.5633862023241818, 0.7473978400230408, 0.9233649400994182, 1.0194100881926715, 1.1313484823331237]",764.5636690901592,None,764.5636645340361,764.6635875552893,,,,,,,,,,,,83_07142022,001,2022_Jul_14_1619,test_typingtask_norepeats,2020.2.10,60.032648392919214,
would,would,,,,,0,106,106,106,,,,,,,,770.0635346672498,None,"['w', 'o', 'u', 'l', 'd']",1,"[0.7674252581782639, 0.9035006877966225, 1.0474477489478886, 1.239499936811626, 1.3594291801564395]",770.0635346672498,None,770.0635254470632,770.1637184000574,,,,,,,,,,,,83_07142022,001,2022_Jul_14_1619,test_typingtask_norepeats,2020.2.10,60.032648392919214,
theme,theme,,,,,0,107,107,107,,,,,,,,775.5635478459299,None,"['t', 'h', 'e', 'm', 'e']",1,"[0.6035363259725273, 0.7075029769912362, 0.8194770263507962, 0.9875222900882363, 1.067424715962261]",775.5635478459299,None,775.5636443350464,775.6635691393167,,,,,,,,,,,,83_07142022,001,2022_Jul_14_1619,test_typingtask_norepeats,2020.2.10,60.032648392919214,
think,think,,,,,0,108,108,108,,,,,,,,781.0638801408932,None,"['t', 'h', 'i', 'n', 'k']",1,"[0.6150838267058134, 0.75118747074157, 1.015156561974436, 1.2071626749821007, 1.38308598799631]",781.0638801408932,None,781.063841190096,781.1630769982003,,,,,,,,,,,,83_07142022,001,2022_Jul_14_1619,test_typingtask_norepeats,2020.2.10,60.032648392919214,
theme,theme,,,,,0,109,109,109,,,,,,,,786.5634550983086,None,"['t', 'h', 'e', 'm', 'e']",1,"[0.6196260927245021, 0.7156196939758956, 0.8595209699124098, 0.9636219837702811, 1.0675156880170107]",786.5634550983086,None,786.5637211947702,786.6636957149021,,,,,,,,,,,,83_07142022,001,2022_Jul_14_1619,test_typingtask_norepeats,2020.2.10,60.032648392919214,
belly,belly,,,,,0,110,110,110,,,,,,,,792.0635483423248,None,"['b', 'e', 'l', 'l', 'y']",1,"[0.639550490770489, 1.1035380358807743, 1.359422910027206, 1.5355092626996338, 1.687502009794116]",792.0635483423248,None,792.0635027758777,792.1636947649531,,,,,,,,,,,,83_07142022,001,2022_Jul_14_1619,test_typingtask_norepeats,2020.2.10,60.032648392919214,
about,about,,,,,0,111,111,111,,,,,,,,797.5634441738948,None,"['a', 'b', 'o', 'u', 't']",1,"[0.7076353668235242, 0.9395896480418742, 1.0996362520381808, 1.2036340539343655, 1.3075136640109122]",797.5634441738948,None,797.56363785211,797.6634521391243,,,,,,,,,,,,83_07142022,001,2022_Jul_14_1619,test_typingtask_norepeats,2020.2.10,60.032648392919214,
haole,haole,,,,,0,112,112,112,,,,,,,,803.0636567440815,None,"['h', 'a', 'o', 'l', 'e']",1,"[0.6793622742407024, 0.807438753079623, 1.0393816949799657, 1.239394593052566, 1.3273020363412797]",803.0636567440815,None,803.0636068609543,803.1635862109251,,,,,,,,,,,,83_07142022,001,2022_Jul_14_1619,test_typingtask_norepeats,2020.2.10,60.032648392919214,
theme,theme,,,,,0,113,113,113,,,,,,,,808.5638154959306,None,"['t', 'h', 'e', 'm', 'e']",1,"[0.6271430719643831, 0.7152627380564809, 0.8591753202490509, 0.9791643018834293, 1.0752220721915364]",808.5638154959306,None,808.5634559578262,808.6635482441634,,,,,,,,,,,,83_07142022,001,2022_Jul_14_1619,test_typingtask_norepeats,2020.2.10,60.032648392919214,
druze,druze,,,,,0,114,114,114,,,,,,,,814.0635482901707,None,"['d', 'r', 'u', 'z', 'e']",1,"[0.7674041842110455, 1.0314441989175975, 1.263481317088008, 1.4715035851113498, 1.7195298811420798]",814.0635482901707,None,814.0634956400842,814.1636793902144,,,,,,,,,,,,83_07142022,001,2022_Jul_14_1619,test_typingtask_norepeats,2020.2.10,60.032648392919214,
vodka,vodka,,,,,0,115,115,115,,,,,,,,819.5636460413225,None,"['v', 'o', 'd', 'k', 'a']",1,"[0.8114145277068019, 1.0834289006888866, 1.259306755848229, 1.4114164458587766, 1.5474113249219954]",819.5636460413225,None,819.563656778913,819.6634888402186,,,,,,,,,,,,83_07142022,001,2022_Jul_14_1619,test_typingtask_norepeats,2020.2.10,60.032648392919214,
edthe,edthe,,,,,0,116,116,116,,,,,,,,825.0635825833306,None,"['e', 'd', 'h', 'e']",0,"[0.6794360056519508, 0.7994932276196778, 1.2555154776200652, 1.3834917997010052]",825.0635825833306,None,825.0637502669357,825.1634061802179,,,,,,,,,,,,83_07142022,001,2022_Jul_14_1619,test_typingtask_norepeats,2020.2.10,60.032648392919214,
heond,heond,,,,,0,117,117,117,,,,,,,,830.5636525209993,None,"['h', 'e', 'o', 'n', 'd']",1,"[0.8914253008551896, 1.1394772711209953, 1.3393901959061623, 1.5634418088011444, 1.6834232290275395]",830.5636525209993,None,830.5637402687222,830.6639170013368,,,,,,,,,,,,83_07142022,001,2022_Jul_14_1619,test_typingtask_norepeats,2020.2.10,60.032648392919214,
tithe,tithe,,,,,0,118,118,118,,,,,,,,836.0637248489074,None,"['t', 'i', 't', 'h', 'e']",1,"[0.8153122239746153, 0.9592457357794046, 1.0713118147104979, 1.2153537538833916, 1.303284415975213]",836.0637248489074,None,836.0638096317649,836.1636107019149,,,,,,,,,,,,83_07142022,001,2022_Jul_14_1619,test_typingtask_norepeats,2020.2.10,60.032648392919214,
heond,heond,,,,,0,119,119,119,,,,,,,,841.5635043191724,None,"['h', 'e', 'o', 'n', 'd']",1,"[0.7314877891913056, 0.9794755750335753, 1.1155367940664291, 1.3395992941223085, 1.4355719592422247]",841.5635043191724,None,841.5634256050922,841.6636677961797,,,,,,,,,,,,83_07142022,001,2022_Jul_14_1619,test_typingtask_norepeats,2020.2.10,60.032648392919214,
buddy,buddy,,,,,,,,,0,0,0,0,,,,,,,,,,,,,847.063642446883,None,851.9880575272255,None,"['b', 'u', 'd', 'd', 'y']",1,"[0.7710231207311153, 1.0110082398168743, 1.1870036548934877, 1.3230412686243653, 1.4669902818277478]",851.9880575272255,None,851.9807685486973,852.0807364350185,83_07142022,001,2022_Jul_14_1619,test_typingtask_norepeats,2020.2.10,60.032648392919214,
lucky,lucky,,,,,,,,,0,1,1,1,,,,,,,,,,,,,,,857.4970105132088,None,"['l', 'u', 'c', 'k', 'y']",1,"[0.8060215008445084, 1.0140695529989898, 1.1900330469943583, 1.3179613440297544, 1.774031369946897]",857.4970105132088,None,857.49700391097,857.5969382822514,83_07142022,001,2022_Jul_14_1619,test_typingtask_norepeats,2020.2.10,60.032648392919214,
belly,belly,,,,,,,,,0,2,2,2,,,,,,,,,,,,,,,862.9970544110984,None,"['b', 'e', 'l', 'l', 'y']",1,"[0.6179167982190847, 0.8099187179468572, 1.0420616162009537, 1.20199962425977, 1.3620100002735853]",862.9970544110984,None,862.9968964647502,863.0970633602701,83_07142022,001,2022_Jul_14_1619,test_typingtask_norepeats,2020.2.10,60.032648392919214,
would,would,,,,,,,,,0,3,3,3,,,,,,,,,,,,,,,868.4971307902597,None,"['w', 'o', 'u', 'l', 'd']",1,"[0.6539129163138568, 0.8378572291694582, 0.9659075019881129, 1.1978853321634233, 1.3338648830540478]",868.4971307902597,None,868.4968736408279,868.5974204232916,83_07142022,001,2022_Jul_14_1619,test_typingtask_norepeats,2020.2.10,60.032648392919214,
pykka,pykka,,,,,,,,,0,4,4,4,,,,,,,,,,,,,,,873.997010990046,None,"['p', 'y', 'k', 'k', 'a']",1,"[0.8179579977877438, 1.178050930146128, 1.5220824130810797, 1.6739659938029945, 1.8259459962137043]",873.997010990046,None,873.9970817080699,874.0968354721554,83_07142022,001,2022_Jul_14_1619,test_typingtask_norepeats,2020.2.10,60.032648392919214,
tithe,tithe,,,,,,,,,0,5,5,5,,,,,,,,,,,,,,,879.4970662239939,None,"['t', 'i', 't', 'h', 'e']",1,"[0.742029975168407, 0.9099216600880027, 1.0380326453596354, 1.1820134143345058, 1.2939143851399422]",879.4970662239939,None,879.4971190229058,879.5969991190359,83_07142022,001,2022_Jul_14_1619,test_typingtask_norepeats,2020.2.10,60.032648392919214,
vanru,vanru,,,,,,,,,0,6,6,6,,,,,,,,,,,,,,,884.9970628092997,None,"['v', 'a', 'n', 'r', 'u']",1,"[0.6739373542368412, 0.8019841280765831, 0.9378953082486987, 1.0819816570729017, 1.2019466701894999]",884.9970628092997,None,884.997173983045,885.0969586563297,83_07142022,001,2022_Jul_14_1619,test_typingtask_norepeats,2020.2.10,60.032648392919214,
tithe,tithe,,,,,,,,,0,7,7,7,,,,,,,,,,,,,,,890.4971648179926,None,"['i', 't', 'h', 't', 'e']",0,"[0.7738894647918642, 1.5098017700947821, 1.6539242267608643, 1.7337877750396729, 1.885916135739535]",890.4971648179926,None,890.497189989686,890.5971244969405,83_07142022,001,2022_Jul_14_1619,test_typingtask_norepeats,2020.2.10,60.032648392919214,
cooed,cooed,,,,,,,,,0,8,8,8,,,,,,,,,,,,,,,895.9973094803281,None,"['c', 'o', 'o', 'e', 'd']",1,"[0.7297706832177937, 0.945691985078156, 1.0976690500974655, 1.1777510913088918, 1.321789590176195]",895.9973094803281,None,895.9972298940644,896.0976307261735,83_07142022,001,2022_Jul_14_1619,test_typingtask_norepeats,2020.2.10,60.032648392919214,
cheer,cheer,,,,,,,,,0,9,9,9,,,,,,,,,,,,,,,901.4970917631872,None,"['c', 'h', 'e', 'e', 'r']",1,"[0.6780191566795111, 0.8139481619000435, 0.9420326170511544, 1.117922259029001, 1.237938102800399]",901.4970917631872,None,901.4972700200975,901.5972430240363,83_07142022,001,2022_Jul_14_1619,test_typingtask_norepeats,2020.2.10,60.032648392919214,
faqir,faqir,,,,,,,,,0,10,10,10,,,,,,,,,,,,,,,906.9970225412399,None,"['f', 'a', 'q', 'i', 'r']",1,"[0.6339280623942614, 0.7699907193891704, 1.121932642068714, 1.2419411493465304, 1.386016617063433]",906.9970225412399,None,906.9972131209448,907.0971525721252,83_07142022,001,2022_Jul_14_1619,test_typingtask_norepeats,2020.2.10,60.032648392919214,
vodka,vodka,,,,,,,,,0,11,11,11,,,,,,,,,,,,,,,912.4971860391088,None,"['v', 'o', 'd', 'k', 'a']",1,"[0.6698701581917703, 0.8058491479605436, 0.949910996016115, 1.1097851302474737, 1.221907075960189]",912.4971860391088,None,912.4974221027456,912.5970991728827,83_07142022,001,2022_Jul_14_1619,test_typingtask_norepeats,2020.2.10,60.032648392919214,
therm,therm,,,,,,,,,0,12,12,12,,,,,,,,,,,,,,,917.997003772296,None,"['t', 'h', 'e', 'r', 'm']",1,"[0.5939917089417577, 0.6980147929862142, 0.8021103590726852, 0.8820388629101217, 0.9860750241205096]",917.997003772296,None,917.9973068678752,918.0971371270716,83_07142022,001,2022_Jul_14_1619,test_typingtask_norepeats,2020.2.10,60.032648392919214,
lucky,lucky,,,,,,,,,0,13,13,13,,,,,,,,,,,,,,,923.4969412581995,None,"['l', 'u', 'c', 'k', 'y']",1,"[0.7260135971009731, 0.9021378140896559, 0.9980668001808226, 1.1180215338245034, 1.3100481629371643]",923.4969412581995,None,923.4971122098156,923.5970267429948,83_07142022,001,2022_Jul_14_1619,test_typingtask_norepeats,2020.2.10,60.032648392919214,
think,think,,,,,,,,,0,14,14,14,,,,,,,,,,,,,,,928.9971421132796,None,"['t', 'h', 'i', 'n', 'k']",1,"[0.6178265670314431, 0.8098608469590545, 0.9619185719639063, 1.1699129939079285, 1.3458501808345318]",928.9971421132796,None,928.9970869118348,929.0970065072179,83_07142022,001,2022_Jul_14_1619,test_typingtask_norepeats,2020.2.10,60.032648392919214,
champ,champ,,,,,,,,,0,15,15,15,,,,,,,,,,,,,,,934.4969338010997,None,"['c', 'h', 'a', 'm', 'p']",1,"[0.5901565258391201, 0.6940287901088595, 0.8060413580387831, 0.9821453611366451, 1.1421854817308486]",934.4969338010997,None,934.4969114380889,934.5969377481379,83_07142022,001,2022_Jul_14_1619,test_typingtask_norepeats,2020.2.10,60.032648392919214,
tithe,tithe,,,,,,,,,0,16,16,16,,,,,,,,,,,,,,,939.9971867231652,None,"['t', 'i', 't', 'h', 'e']",1,"[0.753916506189853, 0.9218290960416198, 1.0337823270820081, 1.1938115749508142, 1.2818282567895949]",939.9971867231652,None,939.9970468738117,940.0970721929334,83_07142022,001,2022_Jul_14_1619,test_typingtask_norepeats,2020.2.10,60.032648392919214,
heond,heond,,,,,,,,,0,17,17,17,,,,,,,,,,,,,,,945.4972515483387,None,"['h', 'e', 'o', 'n', 'd']",1,"[0.6937443506903946, 0.8937477190047503, 1.053829331882298, 1.25382641563192, 1.3419083119370043]",945.4972515483387,None,945.497133005783,945.5971865509637,83_07142022,001,2022_Jul_14_1619,test_typingtask_norepeats,2020.2.10,60.032648392919214,
theme,theme,,,,,,,,,0,18,18,18,,,,,,,,,,,,,,,950.9971794872545,None,"['t', 'h', 'e', 'n', 'm', 'e']",0,"[0.585851491894573, 0.689926085062325, 0.7938436078839004, 0.9458195138722658, 0.953953995835036, 1.0258384607732296]",950.9971794872545,None,950.9970838310197,951.0970325600356,83_07142022,001,2022_Jul_14_1619,test_typingtask_norepeats,2020.2.10,60.032648392919214,
faqir,faqir,,,,,,,,,0,19,19,19,,,,,,,,,,,,,,,956.497113131918,None,"['f', 'a', 'q', 'i', 'r']",1,"[0.7098644059151411, 0.8779646498151124, 1.2459431481547654, 1.4379303948953748, 1.542042925953865]",956.497113131918,None,956.4973230416887,956.5969792259857,83_07142022,001,2022_Jul_14_1619,test_typingtask_norepeats,2020.2.10,60.032648392919214,
kremp,kremp,,,,,,,,,0,20,20,20,,,,,,,,,,,,,,,961.9972290340811,None,"['k', 'r', 'e', 'm', 'p']",1,"[0.8898106161504984, 0.9778508222661912, 1.0417494671419263, 1.1538141211494803, 1.3057886431924999]",961.9972290340811,None,961.9973485487513,962.0975347012281,83_07142022,001,2022_Jul_14_1619,test_typingtask_norepeats,2020.2.10,60.032648392919214,
faqir,faqir,,,,,,,,,0,21,21,21,,,,,,,,,,,,,,,967.4973909361288,None,"['f', 'a', 'q', 'i', 'r']",1,"[0.7816803310997784, 0.9576139971613884, 1.2375756539404392, 1.373642294202, 1.4696463528089225]",967.4973909361288,None,967.4972336021252,967.5972703620791,83_07142022,001,2022_Jul_14_1619,test_typingtask_norepeats,2020.2.10,60.032648392919214,
haole,haole,,,,,,,,,0,22,22,22,,,,,,,,,,,,,,,972.997192111332,None,"['h', 'a', 'o', 'l', 'e']",1,"[0.8337577120400965, 0.9538933569565415, 1.3059044871479273, 1.497842200100422, 1.5698919799178839]",972.997192111332,None,972.9972282730974,973.0971767120063,83_07142022,001,2022_Jul_14_1619,test_typingtask_norepeats,2020.2.10,60.032648392919214,
champ,champ,,,,,,,,,0,23,23,23,,,,,,,,,,,,,,,978.497187322937,None,"['c', 'h', 'a', 'm', 'p']",1,"[0.685849669855088, 0.8538417499512434, 1.0058425520546734, 1.1738924868404865, 1.3579124580137432]",978.497187322937,None,978.4973754406907,978.5974657861516,83_07142022,001,2022_Jul_14_1619,test_typingtask_norepeats,2020.2.10,60.032648392919214,
cooed,cooed,,,,,,,,,0,24,24,24,,,,,,,,,,,,,,,983.9970591911115,None,"['c', 'o', 'o', 'e', 'd']",1,"[0.5860196370631456, 0.7140199886634946, 0.8739923448301852, 0.9700247710570693, 1.066032133065164]",983.9970591911115,None,983.9971850187518,984.0973033253103,83_07142022,001,2022_Jul_14_1619,test_typingtask_norepeats,2020.2.10,60.032648392919214,
buddy,buddy,,,,,,,,,0,25,25,25,,,,,,,,,,,,,,,989.4971226402558,None,"['b', 'u', 'd', 'd', 'y']",1,"[0.7419751118868589, 0.973908307030797, 1.1499598980881274, 1.3099182290025055, 1.461932625155896]",989.4971226402558,None,989.4971515800804,989.5972670642659,83_07142022,001,2022_Jul_14_1619,test_typingtask_norepeats,2020.2.10,60.032648392919214,
kremp,kremp,,,,,,,,,0,26,26,26,,,,,,,,,,,,,,,994.9971007690765,None,"['k', 'r', 'e', 'm', 'p']",1,"[1.0499718100763857, 1.1619602092541754, 1.242001537233591, 1.3699618242681026, 1.5378672759979963]",994.9971007690765,None,994.997224411834,995.0970853590406,83_07142022,001,2022_Jul_14_1619,test_typingtask_norepeats,2020.2.10,60.032648392919214,
buddy,buddy,,,,,,,,,0,27,27,27,,,,,,,,,,,,,,,1000.4971697251312,None,"['b', 'u', 'd', 'd', 'y']",1,"[0.6779039762914181, 0.9178019310347736, 1.1098062889650464, 1.2458283491432667, 1.3498789062723517]",1000.4971697251312,None,1000.4971613738686,1000.5970877860673,83_07142022,001,2022_Jul_14_1619,test_typingtask_norepeats,2020.2.10,60.032648392919214,
heond,heond,,,,,,,,,0,28,28,28,,,,,,,,,,,,,,,1005.9972242242657,None,"['h', 'e', 'o', 'n', 'd']",1,"[0.7138226819224656, 1.0738269286230206, 1.249811427667737, 1.4578183349221945, 1.5779065056703985]",1005.9972242242657,None,1005.9971610660665,1006.0972154880874,83_07142022,001,2022_Jul_14_1619,test_typingtask_norepeats,2020.2.10,60.032648392919214,
would,would,,,,,,,,,0,29,29,29,,,,,,,,,,,,,,,1011.4973461739719,None,"['w', 'o', 'u', 'l', 'd']",1,"[0.6537223998457193, 0.749726259149611, 0.8616999448277056, 1.0697529702447355, 1.1816983940079808]",1011.4973461739719,None,1011.4972409977578,1011.597239498049,83_07142022,001,2022_Jul_14_1619,test_typingtask_norepeats,2020.2.10,60.032648392919214,
theme,theme,,,,,,,,,0,30,30,30,,,,,,,,,,,,,,,1016.9971961881965,None,"['t', 'h', 'e', 'm', 'e']",1,"[0.6498397993855178, 0.7297786823473871, 0.817768179345876, 0.9539036592468619, 1.0337614002637565]",1016.9971961881965,None,1016.9972834907472,1017.0976464198902,83_07142022,001,2022_Jul_14_1619,test_typingtask_norepeats,2020.2.10,60.032648392919214,
about,about,,,,,,,,,0,31,31,31,,,,,,,,,,,,,,,1022.4973399220034,None,"['a', 'b', 'o', 'u', 't']",1,"[0.6617522556334734, 0.8537457189522684, 0.9657528409734368, 1.0617648349143565, 1.173713373951614]",1022.4973399220034,None,1022.4973660171032,1022.5970170111395,83_07142022,001,2022_Jul_14_1619,test_typingtask_norepeats,2020.2.10,60.032648392919214,
think,think,,,,,,,,,0,32,32,32,,,,,,,,,,,,,,,1027.9972702749074,None,"['t', 'h', 'i', 'n', 'k']",1,"[0.5778510291129351, 0.7697558449581265, 0.9218113208189607, 1.1137710940092802, 1.2897589011117816]",1027.9972702749074,None,1027.9973857350647,1028.0971349868923,83_07142022,001,2022_Jul_14_1619,test_typingtask_norepeats,2020.2.10,60.032648392919214,
puppy,puppy,,,,,,,,,0,33,33,33,,,,,,,,,,,,,,,1033.4973022812046,None,"['p', 'u', 'p', 'p', 'y']",1,"[0.7817387850955129, 0.9657817403785884, 1.1257109721191227, 1.2936591682955623, 1.445696314331144]",1033.4973022812046,None,1033.4973189927637,1033.5972495363094,83_07142022,001,2022_Jul_14_1619,test_typingtask_norepeats,2020.2.10,60.032648392919214,
there,there,,,,,,,,,0,34,34,34,,,,,,,,,,,,,,,1038.9974191072397,None,"['t', 'h', 'e', 'r', 'e']",1,"[0.5856598662212491, 0.6976010650396347, 0.7776209800504148, 0.8656570282764733, 0.9776970692910254]",1038.9974191072397,None,1038.9973196800797,1039.09731019428,83_07142022,001,2022_Jul_14_1619,test_typingtask_norepeats,2020.2.10,60.032648392919214,
edthe,edthe,,,,,,,,,0,35,35,35,,,,,,,,,,,,,,,1044.4972796891816,None,"['e', 'd', 't', 'h', 'e']",1,"[0.6378044639714062, 0.7738042026758194, 0.9657318717800081, 1.0936683677136898, 1.165778388734907]",1044.4972796891816,None,1044.497315355949,1044.5973867750727,83_07142022,001,2022_Jul_14_1619,test_typingtask_norepeats,2020.2.10,60.032648392919214,
vanru,vanru,,,,,,,,,0,36,36,36,,,,,,,,,,,,,,,1049.9971954161301,None,"['v', 'a', 'n', 'r', 'u']",1,"[0.6177782122977078, 0.7377748591825366, 0.8337587439455092, 0.9699268490076065, 1.1378975841216743]",1049.9971954161301,None,1049.997355729714,1050.0972739360295,83_07142022,001,2022_Jul_14_1619,test_typingtask_norepeats,2020.2.10,60.032648392919214,
heond,heond,,,,,,,,,0,37,37,37,,,,,,,,,,,,,,,1055.497187548317,None,"['h', 'e', 'o', 'n', 'd']",1,"[0.7018705569207668, 0.8298496836796403, 0.9419133020564914, 1.1337952818721533, 1.237802059855312]",1055.497187548317,None,1055.4972685011103,1055.5972775542177,83_07142022,001,2022_Jul_14_1619,test_typingtask_norepeats,2020.2.10,60.032648392919214,
pykka,pykka,,,,,,,,,0,38,38,38,,,,,,,,,,,,,,,1060.9971775868908,None,"['p', 'y', 'k', 'k', 'a']",1,"[1.089816875755787, 1.401904467958957, 1.8578691026195884, 2.009794401936233, 2.193821298889816]",1060.9971775868908,None,1060.9972471607848,1061.0972374952398,83_07142022,001,2022_Jul_14_1619,test_typingtask_norepeats,2020.2.10,60.032648392919214,
zibja,zibja,,,,,,,,,0,39,39,39,,,,,,,,,,,,,,,1066.4972164472565,None,"['a', 'z', 'i', 'b', 'j', 'a']",0,"[0.9177556945942342, 1.7418239410035312, 2.0778678855858743, 2.27789723360911, 2.6538707949221134, 2.7658640439622104]",1066.4972164472565,None,1066.4972408538683,1066.5973738450557,83_07142022,001,2022_Jul_14_1619,test_typingtask_norepeats,2020.2.10,60.032648392919214,
would,would,,,,,,,,,0,40,40,40,,,,,,,,,,,,,,,1071.997316966299,None,"['w', 'o', 'u', 'l', 'd']",1,"[1.1057156468741596, 1.2257125531323254, 1.353772555012256, 1.5857540918514132, 1.7057060501538217]",1071.997316966299,None,1071.9972842367365,1072.0973597778939,83_07142022,001,2022_Jul_14_1619,test_typingtask_norepeats,2020.2.10,60.032648392919214,
buddy,buddy,,,,,,,,,0,41,41,41,,,,,,,,,,,,,,,1077.4973252490163,None,"['b', 'u', 'd', 'd', 'y']",1,"[0.6376315909437835, 0.8056539390236139, 0.997727382928133, 1.1737164841033518, 1.285648101940751]",1077.4973252490163,None,1077.4972206208854,1077.5974314422347,83_07142022,001,2022_Jul_14_1619,test_typingtask_norepeats,2020.2.10,60.032648392919214,
cheer,cheer,,,,,,,,,0,42,42,42,,,,,,,,,,,,,,,1082.9973050970584,None,"['c', 'h', 'e', 'e', 'r']",1,"[0.633662408683449, 0.769715019967407, 0.8816737327724695, 1.04975193599239, 1.2096639941446483]",1082.9973050970584,None,1082.9973303036763,1083.0973323090002,83_07142022,001,2022_Jul_14_1619,test_typingtask_norepeats,2020.2.10,60.032648392919214,
haole,haole,,,,,,,,,0,43,43,43,,,,,,,,,,,,,,,1088.49740578793,None,"['h', 'a', 'o', 'l', 'e']",1,"[0.6296262089163065, 0.7976252310909331, 1.0376360658556223, 1.221674570813775, 1.2935751830227673]",1088.49740578793,None,1088.4972714850678,1088.5971840089187,83_07142022,001,2022_Jul_14_1619,test_typingtask_norepeats,2020.2.10,60.032648392919214,
belly,belly,,,,,,,,,0,44,44,44,,,,,,,,,,,,,,,1093.9972604941577,None,"['b', 'e', 'l', 'l', 'y']",1,"[0.7137948223389685, 0.8338005682453513, 1.1457513440400362, 1.2977495132945478, 1.5858171894215047]",1093.9972604941577,None,1093.9973947777412,1094.0973020000383,83_07142022,001,2022_Jul_14_1619,test_typingtask_norepeats,2020.2.10,60.032648392919214,
vodka,vodka,,,,,,,,,0,45,45,45,,,,,,,,,,,,,,,1099.4975202279165,None,"['v', 'o', 'd', 'k', 'a']",1,"[0.7815314410254359, 1.0375232729129493, 1.5015588700771332, 1.6855572881177068, 1.7895285901613533]",1099.4975202279165,None,1099.4974400027654,1099.597184685059,83_07142022,001,2022_Jul_14_1619,test_typingtask_norepeats,2020.2.10,60.032648392919214,
zibja,zibja,,,,,,,,,0,46,46,46,,,,,,,,,,,,,,,1104.9974172241054,None,"['z', 'i', 'b', 'j', 'a']",1,"[0.8815607130527496, 1.1136590749956667, 1.32956357114017, 1.86579703213647, 1.9777132631279528]",1104.9974172241054,None,1104.997451672703,1105.0976002248935,83_07142022,001,2022_Jul_14_1619,test_typingtask_norepeats,2020.2.10,60.032648392919214,
tithe,tithe,,,,,,,,,0,47,47,47,,,,,,,,,,,,,,,1110.497461143881,None,"['t', 'i', 't', 'h', 'e']",1,"[0.701615858823061, 0.8536295727826655, 0.9735780116170645, 1.0935436179861426, 1.1655815006233752]",1110.497461143881,None,1110.4974906108341,1110.597368634306,83_07142022,001,2022_Jul_14_1619,test_typingtask_norepeats,2020.2.10,60.032648392919214,
about,about,,,,,,,,,0,48,48,48,,,,,,,,,,,,,,,1115.997602101881,None,"['a', 'b', 'o', 'u', 't']",1,"[0.5694851772859693, 0.7694938848726451, 0.9054618109948933, 1.0093666380271316, 1.073450525291264]",1115.997602101881,None,1115.997493883036,1116.0974208912812,83_07142022,001,2022_Jul_14_1619,test_typingtask_norepeats,2020.2.10,60.032648392919214,
puppy,puppy,,,,,,,,,0,49,49,49,,,,,,,,,,,,,,,1121.4972567842342,None,"['p', 'u', 'p', 'p', 'y']",1,"[1.1177129969000816, 1.3417811482213438, 1.613825049251318, 1.7817578501999378, 1.901711855083704]",1121.4972567842342,None,1121.4973914217203,1121.5972750289366,83_07142022,001,2022_Jul_14_1619,test_typingtask_norepeats,2020.2.10,60.032648392919214,
think,think,,,,,,,,,0,50,50,50,,,,,,,,,,,,,,,1126.9972639530897,None,"['t', 'h', 'i', 'n', 'k']",1,"[0.6737788752652705, 0.8897724002599716, 1.017703605350107, 1.2018212550319731, 1.3777760649099946]",1126.9972639530897,None,1126.9974111359566,1127.097366556991,83_07142022,001,2022_Jul_14_1619,test_typingtask_norepeats,2020.2.10,60.032648392919214,
vodka,vodka,,,,,,,,,0,51,51,51,,,,,,,,,,,,,,,1132.4973038570024,None,"['v', 'o', 'd', 'k', 'a']",1,"[0.6697436422109604, 0.7977291410788894, 0.9976603789255023, 1.117667119950056, 1.2377222189679742]",1132.4973038570024,None,1132.4974375538527,1132.5974521399476,83_07142022,001,2022_Jul_14_1619,test_typingtask_norepeats,2020.2.10,60.032648392919214,
pykka,pykka,,,,,,,,,0,52,52,52,,,,,,,,,,,,,,,1137.9972136160359,None,"['p', 'y', 'k', 'k', 'a']",1,"[0.8577796178869903, 1.2658575451932847, 1.4898803979158401, 1.6898811999708414, 1.8898307951167226]",1137.9972136160359,None,1137.997415076848,1138.0973190502264,83_07142022,001,2022_Jul_14_1619,test_typingtask_norepeats,2020.2.10,60.032648392919214,
edthe,edthe,,,,,,,,,0,53,53,53,,,,,,,,,,,,,,,1143.4972107531503,None,"['e', 'd', 'h', 'e']",0,"[0.7738269469700754, 0.925770535133779, 1.2538748471997678, 2.0538851260207593]",1143.4972107531503,None,1143.4975635836831,1143.597429044079,83_07142022,001,2022_Jul_14_1619,test_typingtask_norepeats,2020.2.10,60.032648392919214,
buddy,buddy,,,,,,,,,0,54,54,54,,,,,,,,,,,,,,,1148.9974201912992,None,"['b', 'u', 'd', 'd', 'y']",1,"[0.6975303920917213, 0.865624978672713, 0.9856199868954718, 1.1455946071073413, 1.2336057568900287]",1148.9974201912992,None,1148.9975029517896,1149.0974350352772,83_07142022,001,2022_Jul_14_1619,test_typingtask_norepeats,2020.2.10,60.032648392919214,
edthe,edthe,,,,,,,,,0,55,55,55,,,,,,,,,,,,,,,1154.4974764720537,None,"['e', 'd', 't', 'h', 'e']",1,"[0.7016078527085483, 0.8375398288480937, 1.077656464651227, 1.221602935809642, 1.3415737659670413]",1154.4974764720537,None,1154.497251845803,1154.59779253928,83_07142022,001,2022_Jul_14_1619,test_typingtask_norepeats,2020.2.10,60.032648392919214,
cooed,cooed,,,,,,,,,0,56,56,56,,,,,,,,,,,,,,,1159.9975388329476,None,"['c', 'o', 'o', 'e', 'd']",1,"[0.6575035420246422, 0.8334132740274072, 0.9855358665809035, 1.0814964389428496, 1.1774197649210691]",1159.9975388329476,None,1159.9973231269046,1160.0975016630255,83_07142022,001,2022_Jul_14_1619,test_typingtask_norepeats,2020.2.10,60.032648392919214,
heond,heond,,,,,,,,,0,57,57,57,,,,,,,,,,,,,,,1165.4975205142982,None,"['h', 'e', 'o', 'n', 'd']",1,"[0.6695951418951154, 0.8694800287485123, 1.045499692671001, 1.2455430529080331, 1.3495495356619358]",1165.4975205142982,None,1165.4974899686872,1165.5973487151787,83_07142022,001,2022_Jul_14_1619,test_typingtask_norepeats,2020.2.10,60.032648392919214,
think,think,,,,,,,,,0,58,58,58,,,,,,,,,,,,,,,1170.9974725940265,None,"['t', 'h', 'i', 'n', 'k']",1,"[0.6655546696856618, 0.9055571407079697, 1.0495668770745397, 1.2575804200023413, 1.4174972497858107]",1170.9974725940265,None,1170.9975388398393,1171.0973019842058,83_07142022,001,2022_Jul_14_1619,test_typingtask_norepeats,2020.2.10,60.032648392919214,
vanru,vanru,,,,,,,,,0,59,59,59,,,,,,,,,,,,,,,1176.4975274102762,None,"['v', 'a', 'n', 'r', 'u', 'e']",0,"[0.6535533079877496, 0.8135504820384085, 1.0135123492218554, 1.2215221812948585, 1.3974915971048176, 1.5014997720718384]",1176.4975274102762,None,1176.497632008884,1176.5974491750821,83_07142022,001,2022_Jul_14_1619,test_typingtask_norepeats,2020.2.10,60.032648392919214,
pykka,pykka,,,,,,,,,0,60,60,60,,,,,,,,,,,,,,,1181.9975149179809,None,"['p', 'y', 'k', 'k', 'a']",1,"[0.8575420472770929, 1.1454804469831288, 1.537534954957664, 1.6894761910662055, 1.7934610922820866]",1181.9975149179809,None,1181.9974221409298,1182.0974458679557,83_07142022,001,2022_Jul_14_1619,test_typingtask_norepeats,2020.2.10,60.032648392919214,
druze,druze,,,,,,,,,0,61,61,61,,,,,,,,,,,,,,,1187.4977139323018,None,"['d', 'r', 'u', 'z', 'e']",1,"[0.597373906057328, 0.8053314797580242, 1.0613868329674006, 1.2452624570578337, 1.469321794807911]",1187.4977139323018,None,1187.4976059746928,1187.5975693562068,83_07142022,001,2022_Jul_14_1619,test_typingtask_norepeats,2020.2.10,60.032648392919214,
cooed,cooed,,,,,,,,,0,62,62,62,,,,,,,,,,,,,,,1192.9974983572029,None,"['c', 'o', 'o', 'e', 'd']",1,"[0.6174712907522917, 0.7934668520465493, 0.9295004028826952, 1.0094797289930284, 1.1135632786899805]",1192.9974983572029,None,1192.9975940980016,1193.097893062979,83_07142022,001,2022_Jul_14_1619,test_typingtask_norepeats,2020.2.10,60.032648392919214,
champ,champ,,,,,,,,,0,63,63,63,,,,,,,,,,,,,,,1198.4973549400456,None,"['c', 'h', 'a', 'm', 'p']",1,"[0.5656847879290581, 0.7096187337301672, 0.8537269588559866, 0.9736802577972412, 1.1577357947826385]",1198.4973549400456,None,1198.4974779970012,1198.5980674060993,83_07142022,001,2022_Jul_14_1619,test_typingtask_norepeats,2020.2.10,60.032648392919214,
lucky,lucky,,,,,,,,,0,64,64,64,,,,,,,,,,,,,,,1203.9975757542998,None,"['l', 'u', 'c', 'k', 'y']",1,"[0.6494668489322066, 0.8735213200561702, 1.0013943421654403, 1.1294000851921737, 1.3614842370152473]",1203.9975757542998,None,1203.9975389897822,1204.0977923651226,83_07142022,001,2022_Jul_14_1619,test_typingtask_norepeats,2020.2.10,60.032648392919214,
theme,theme,,,,,,,,,0,65,65,65,,,,,,,,,,,,,,,1209.4974253410473,None,"['t', 'h', 'e', 'm', 'e']",1,"[0.5736551927402616, 0.6695936350151896, 0.781588613986969, 0.9175478629767895, 1.013705920893699]",1209.4974253410473,None,1209.4975254809483,1209.5975262993015,83_07142022,001,2022_Jul_14_1619,test_typingtask_norepeats,2020.2.10,60.032648392919214,
edthe,edthe,,,,,,,,,0,66,66,66,,,,,,,,,,,,,,,1214.9973701480776,None,"['e', 'd', 't', 'h', 'e']",1,"[0.6175993708893657, 0.7457005996257067, 1.02564070886001, 1.3537130169570446, 1.4897224735468626]",1214.9973701480776,None,1214.9974649170413,1215.0978656569496,83_07142022,001,2022_Jul_14_1619,test_typingtask_norepeats,2020.2.10,60.032648392919214,
about,about,,,,,,,,,0,67,67,67,,,,,,,,,,,,,,,1220.4976422572508,None,"['a', 'b', 'o', 'u', 't']",1,"[0.5173297082073987, 0.6933634160086513, 0.8374302610754967, 0.9173287232406437, 1.0054417862556875]",1220.4976422572508,None,1220.4975392109714,1220.5974864410236,83_07142022,001,2022_Jul_14_1619,test_typingtask_norepeats,2020.2.10,60.032648392919214,
therm,therm,,,,,,,,,0,68,68,68,,,,,,,,,,,,,,,1225.9975491962396,None,"['t', 'h', 'e', 'r', 'm']",1,"[0.5535299526527524, 0.6655263160355389, 0.7615523859858513, 0.8335097408853471, 0.9934472790919244]",1225.9975491962396,None,1225.9973579448647,1226.097446851898,83_07142022,001,2022_Jul_14_1619,test_typingtask_norepeats,2020.2.10,60.032648392919214,
about,about,,,,,,,,,0,69,69,69,,,,,,,,,,,,,,,1231.497565777041,None,"['a', 'b', 'o', 'u', 't']",1,"[0.5574850193224847, 0.7174037559889257, 0.8294553812593222, 0.9575113663449883, 1.0855177049525082]",1231.497565777041,None,1231.4973550419322,1231.5975757609122,83_07142022,001,2022_Jul_14_1619,test_typingtask_norepeats,2020.2.10,60.032648392919214,
tithe,tithe,,,,,,,,,0,70,70,70,,,,,,,,,,,,,,,1236.9975723270327,None,"['t', 'i', 't', 'h', 'e']",1,"[0.625435080844909, 0.85751884104684, 0.9773849747143686, 1.0974866207689047, 1.1934105060063303]",1236.9975723270327,None,1236.9974965629167,1237.0975798610598,83_07142022,001,2022_Jul_14_1619,test_typingtask_norepeats,2020.2.10,60.032648392919214,
there,there,,,,,,,,,0,71,71,71,,,,,,,,,,,,,,,1242.497550833039,None,"['t', 'h', 'e', 'r', 'e']",1,"[0.5655133668333292, 0.6855270629748702, 0.7814265508204699, 0.90152976103127, 1.0455482169054449]",1242.497550833039,None,1242.4976655579171,1242.5973779712804,83_07142022,001,2022_Jul_14_1619,test_typingtask_norepeats,2020.2.10,60.032648392919214,
about,about,,,,,,,,,0,72,72,72,,,,,,,,,,,,,,,1247.9975159959868,None,"['a', 'b', 'o', 'u', 't']",1,"[0.5054384861141443, 0.689608802087605, 0.8254700060933828, 0.9375283401459455, 1.04153314512223]",1247.9975159959868,None,1247.9978142789564,1248.0977320019156,83_07142022,001,2022_Jul_14_1619,test_typingtask_norepeats,2020.2.10,60.032648392919214,
would,would,,,,,,,,,0,73,73,73,,,,,,,,,,,,,,,1253.497669622302,None,"['w', 'o', 'u', 'l', 'd']",1,"[0.6373781440779567, 0.8134089061059058, 0.9253740119747818, 1.141414017882198, 1.2932981313206255]",1253.497669622302,None,1253.4977100709452,1253.5978831760585,83_07142022,001,2022_Jul_14_1619,test_typingtask_norepeats,2020.2.10,60.032648392919214,
puppy,puppy,,,,,,,,,0,74,74,74,,,,,,,,,,,,,,,1258.9976873281412,None,"['p', 'u', 'p', 'p', 'y']",1,"[0.7533291424624622, 1.1054055071435869, 1.4573410511948168, 1.657293071039021, 1.8414117190986872]",1258.9976873281412,None,1258.9974006008356,1259.0976579003036,83_07142022,001,2022_Jul_14_1619,test_typingtask_norepeats,2020.2.10,60.032648392919214,
vodka,vodka,,,,,,,,,0,75,75,75,,,,,,,,,,,,,,,1264.4976319181733,None,"['v', 'o', 'd', 'k', 'a']",1,"[0.7093443488702178, 1.1734498566947877, 1.4374462030828, 1.6053529661148787, 1.7093424377962947]",1264.4976319181733,None,1264.4976701037026,1264.5976609471254,83_07142022,001,2022_Jul_14_1619,test_typingtask_norepeats,2020.2.10,60.032648392919214,
druze,druze,,,,,,,,,0,76,76,76,,,,,,,,,,,,,,,1269.9976661270484,None,"['d', 'r', 'u', 'z', 'e']",1,"[0.5854089283384383, 0.7773369112983346, 0.9534174692817032, 1.1613941541872919, 1.3933069952763617]",1269.9976661270484,None,1269.9977222270331,1270.0979359080084,83_07142022,001,2022_Jul_14_1619,test_typingtask_norepeats,2020.2.10,60.032648392919214,
faqir,faqir,,,,,,,,,0,77,77,77,,,,,,,,,,,,,,,1275.4975531790406,None,"['f', 'a', 'q', 'i', 'r']",1,"[0.6135067548602819, 0.773477905895561, 1.1414163908921182, 1.3174160360358655, 1.4535426530055702]",1275.4975531790406,None,1275.4975735707208,1275.5976105732843,83_07142022,001,2022_Jul_14_1619,test_typingtask_norepeats,2020.2.10,60.032648392919214,
theme,theme,,,,,,,,,0,78,78,78,,,,,,,,,,,,,,,1280.9973876769654,None,"['t', 'h', 'e', 'm', 'e']",1,"[0.5936093227937818, 0.6976744756102562, 0.7935832529328763, 0.95370500581339, 1.0335724130272865]",1280.9973876769654,None,1280.9975756647996,1281.09756669309,83_07142022,001,2022_Jul_14_1619,test_typingtask_norepeats,2020.2.10,60.032648392919214,
puppy,puppy,,,,,,,,,0,79,79,79,,,,,,,,,,,,,,,1286.497451290954,None,"['p', 'u', 'p', 'p', 'y']",1,"[0.7896409225650132, 0.9815272139385343, 1.1496243826113641, 1.309521494898945, 1.4615772739052773]",1286.497451290954,None,1286.4975703977047,1286.5976511752233,83_07142022,001,2022_Jul_14_1619,test_typingtask_norepeats,2020.2.10,60.032648392919214,
champ,champ,,,,,,,,,0,80,80,80,,,,,,,,,,,,,,,1291.9975292780437,None,"['c', 'h', 'a', 'm', 'p']",1,"[0.5774873332120478, 0.6735370983369648, 0.7934243050403893, 0.9615908060222864, 1.169540564995259]",1291.9975292780437,None,1291.997619002033,1292.0976730422117,83_07142022,001,2022_Jul_14_1619,test_typingtask_norepeats,2020.2.10,60.032648392919214,
kremp,kremp,,,,,,,,,0,81,81,81,,,,,,,,,,,,,,,1297.4977044221014,None,"['k', 'r', 'e', 'm', 'p']",1,"[0.693285817746073, 0.7893431228585541, 0.8613562495447695, 0.9493417567573488, 1.1092645227909088]",1297.4977044221014,None,1297.4974569328128,1297.5976259461604,83_07142022,001,2022_Jul_14_1619,test_typingtask_norepeats,2020.2.10,60.032648392919214,
therm,therm,,,,,,,,,0,82,82,82,,,,,,,,,,,,,,,1302.9976555192843,None,"['t', 'h', 'e', 'r', 'm']",1,"[0.6013168981298804, 0.689436451997608, 0.7854375238530338, 0.8653830108232796, 1.0013204528950155]",1302.9976555192843,None,1302.9974933726712,1303.0976368589327,83_07142022,001,2022_Jul_14_1619,test_typingtask_norepeats,2020.2.10,60.032648392919214,
haole,haole,,,,,,,,,0,83,83,83,,,,,,,,,,,,,,,1308.4976438870654,None,"['h', 'a', 'o', 'l', 'e']",1,"[0.6214073267765343, 0.7333911238238215, 0.9414477008394897, 1.1414028410799801, 1.2134294509887695]",1308.4976438870654,None,1308.4975189467891,1308.5976462750696,83_07142022,001,2022_Jul_14_1619,test_typingtask_norepeats,2020.2.10,60.032648392919214,
cheer,cheer,,,,,,,,,0,84,84,84,,,,,,,,,,,,,,,1313.9975042901933,None,"['c', 'h', 'e', 'e', 'r']",1,"[0.5855752862989902, 0.6895381370559335, 0.8014658032916486, 0.9695361503399909, 1.073478305246681]",1313.9975042901933,None,1313.9975988370365,1314.0973335593008,83_07142022,001,2022_Jul_14_1619,test_typingtask_norepeats,2020.2.10,60.032648392919214,
belly,belly,,,,,,,,,0,85,85,85,,,,,,,,,,,,,,,1319.4977962719277,None,"['b', 'e', 'l', 'l', 'y']",1,"[0.613278835080564, 0.7811790169216692, 1.0132799339480698, 1.141283739823848, 1.2932178899645805]",1319.4977962719277,None,1319.4978025601245,1319.5975081520155,83_07142022,001,2022_Jul_14_1619,test_typingtask_norepeats,2020.2.10,60.032648392919214,
there,there,,,,,,,,,0,86,86,86,,,,,,,,,,,,,,,1324.9977559358813,None,"['t', 'h', 'e', 'r', 'e']",1,"[0.5292306239716709, 0.6172145679593086, 0.7052723090164363, 0.809205343015492, 0.9132967749610543]",1324.9977559358813,None,1324.9977665817364,1325.097631753888,83_07142022,001,2022_Jul_14_1619,test_typingtask_norepeats,2020.2.10,60.032648392919214,
therm,therm,,,,,,,,,0,87,87,87,,,,,,,,,,,,,,,1330.497876133304,None,"['t', 'h', 'e', 'r', 'm']",1,"[0.5170912146568298, 0.6051679300144315, 0.701099269092083, 0.797194215003401, 0.9412369010969996]",1330.497876133304,None,1330.497722647991,1330.597849604208,83_07142022,001,2022_Jul_14_1619,test_typingtask_norepeats,2020.2.10,60.032648392919214,
puppy,puppy,,,,,,,,,0,88,88,88,,,,,,,,,,,,,,,1335.997661008034,None,"['p', 'u', 'p', 'p', 'y']",1,"[0.777320153079927, 0.9213312999345362, 1.1454333919100463, 1.3214156199246645, 1.4573071589693427]",1335.997661008034,None,1335.997761940956,1336.0977783771232,83_07142022,001,2022_Jul_14_1619,test_typingtask_norepeats,2020.2.10,60.032648392919214,
cooed,cooed,,,,,,,,,0,89,89,89,,,,,,,,,,,,,,,1341.497710912954,None,"['c', 'o', 'o', 'e', 'd']",1,"[0.5733196288347244, 0.7413681210018694, 0.9012561230920255, 0.9493732787668705, 1.045384510885924]",1341.497710912954,None,1341.4978243600576,1341.5977717600763,83_07142022,001,2022_Jul_14_1619,test_typingtask_norepeats,2020.2.10,60.032648392919214,
edthe,edthe,,,,,,,,,0,90,90,90,,,,,,,,,,,,,,,1346.99766094191,None,"['e', 'd', 't', 'h', 'e']",1,"[0.6013732342980802, 0.7293175333179533, 0.9293717104010284, 1.0654130312614143, 1.137421505060047]",1346.99766094191,None,1346.9976858421228,1347.0977306109853,83_07142022,001,2022_Jul_14_1619,test_typingtask_norepeats,2020.2.10,60.032648392919214,
lucky,lucky,,,,,,,,,0,91,91,91,,,,,,,,,,,,,,,1352.4974987851456,None,"['l', 'u', 'c', 'k', 'y']",1,"[0.8535469360649586, 0.9814756168052554, 1.1095081688836217, 1.2215676051564515, 1.4456307529471815]",1352.4974987851456,None,1352.4977138348854,1352.5978396763094,83_07142022,001,2022_Jul_14_1619,test_typingtask_norepeats,2020.2.10,60.032648392919214,
zibja,zibja,,,,,,,,,0,92,92,92,,,,,,,,,,,,,,,1357.997558728326,None,"['z', 'i', 'b', 'j', 'a']",1,"[0.8814195189625025, 1.0495135597884655, 1.2415249957703054, 1.4734731940552592, 1.6093985349871218]",1357.997558728326,None,1357.9977106097153,1358.0976440771483,83_07142022,001,2022_Jul_14_1619,test_typingtask_norepeats,2020.2.10,60.032648392919214,
would,would,,,,,,,,,0,93,93,93,,,,,,,,,,,,,,,1363.4977669930086,None,"['w', 'o', 'u', 'l', 'k', 'd']",0,"[0.8932640608400106, 1.0213218228891492, 1.1253760028630495, 1.4053258509375155, 1.4053258509375155, 1.7732748468406498]",1363.4977669930086,None,1363.4978394600562,1363.597766532097,83_07142022,001,2022_Jul_14_1619,test_typingtask_norepeats,2020.2.10,60.032648392919214,
theme,theme,,,,,,,,,0,94,94,94,,,,,,,,,,,,,,,1368.9977957732044,None,"['t', 'h', 'e', 'm', 'e']",1,"[0.6011773589998484, 0.7052971930243075, 0.8011757452040911, 0.9291868540458381, 1.0252439733594656]",1368.9977957732044,None,1368.9976816791109,1369.0979859749787,83_07142022,001,2022_Jul_14_1619,test_typingtask_norepeats,2020.2.10,60.032648392919214,
druze,druze,,,,,,,,,0,95,95,95,,,,,,,,,,,,,,,1374.4977770689875,None,"['d', 'r', 'u', 'z', 'e']",1,"[0.5972416261211038, 0.7812379240058362, 0.9412662307731807, 1.309250834863633, 1.677192087750882]",1374.4977770689875,None,1374.4974863290786,1374.5977850719355,83_07142022,001,2022_Jul_14_1619,test_typingtask_norepeats,2020.2.10,60.032648392919214,
lucky,lucky,,,,,,,,,0,96,96,96,,,,,,,,,,,,,,,1380.0000988743268,None,"['l', 'u', 'c', 'k', 'y']",1,"[0.758898320607841, 0.9109426247887313, 1.0068136369809508, 1.1268240376375616, 1.3108145208097994]",1380.0000988743268,None,1379.998354853969,1380.0984977539629,83_07142022,001,2022_Jul_14_1619,test_typingtask_norepeats,2020.2.10,60.032648392919214,
think,think,,,,,,,,,0,97,97,97,,,,,,,,,,,,,,,1385.514021109324,None,"['t', 'h', 'i', 'n', 'k']",1,"[0.6050586421042681, 0.7970398138277233, 0.9649948328733444, 1.1970314788632095, 1.3810067190788686]",1385.514021109324,None,1385.5141820189542,1385.6143661811948,83_07142022,001,2022_Jul_14_1619,test_typingtask_norepeats,2020.2.10,60.032648392919214,
zibja,zibja,,,,,,,,,0,98,98,98,,,,,,,,,,,,,,,1391.014797625132,None,"['z', 'i', 'b', 'j', 'a']",1,"[0.824200255330652, 1.0322436862625182, 1.2641778523102403, 1.464220920111984, 1.712225005030632]",1391.014797625132,None,1391.0145128568633,1391.114588451106,83_07142022,001,2022_Jul_14_1619,test_typingtask_norepeats,2020.2.10,60.032648392919214,
there,there,,,,,,,,,0,99,99,99,,,,,,,,,,,,,,,1396.5144401821308,None,"['t', 'h', 'e', 'r', 'e']",1,"[0.5646052630618215, 0.7166079757735133, 0.8045500759035349, 0.9166355077177286, 1.0446642651222646]",1396.5144401821308,None,1396.5143484118394,1396.6149289570749,83_07142022,001,2022_Jul_14_1619,test_typingtask_norepeats,2020.2.10,60.032648392919214,
kremp,kremp,,,,,,,,,0,100,100,100,,,,,,,,,,,,,,,1402.0145603870042,None,"['k', 'r', 'e', 'm', 'p']",1,"[0.7365167187526822, 0.8565366249531507, 0.9364897268824279, 1.0805044597946107, 1.2324783448129892]",1402.0145603870042,None,1402.014508933667,1402.1146472189575,83_07142022,001,2022_Jul_14_1619,test_typingtask_norepeats,2020.2.10,60.032648392919214,
vanru,vanru,,,,,,,,,0,101,101,101,,,,,,,,,,,,,,,1407.5143783260137,None,"['v', 'a', 'n', 'r', 'u']",1,"[0.7005923339165747, 0.9006281569600105, 1.036654660012573, 1.1727180359885097, 1.3087546490132809]",1407.5143783260137,None,1407.5144220100715,1407.6145208273083,83_07142022,001,2022_Jul_14_1619,test_typingtask_norepeats,2020.2.10,60.032648392919214,
vodka,vodka,,,,,,,,,0,102,102,102,,,,,,,,,,,,,,,1413.014497492928,None,"['v', 'o', 'd', 'k', 'a']",1,"[0.6325780060142279, 0.752562961075455, 1.000468511134386, 1.1525600687600672, 1.2645199047401547]",1413.014497492928,None,1413.014379402995,1413.1145753930323,83_07142022,001,2022_Jul_14_1619,test_typingtask_norepeats,2020.2.10,60.032648392919214,
cheer,cheer,,,,,,,,,0,103,103,103,,,,,,,,,,,,,,,1418.514468530193,None,"['c', 'h', 'e', 'e', 'r']",1,"[0.6286198766902089, 0.7886131508275867, 0.9486047117970884, 1.0686055747792125, 1.620616801083088]",1418.514468530193,None,1418.5144544987938,1418.6144852843136,83_07142022,001,2022_Jul_14_1619,test_typingtask_norepeats,2020.2.10,60.032648392919214,
vanru,vanru,,,,,,,,,0,104,104,104,,,,,,,,,,,,,,,1424.0144789842889,None,"['v', 'a', 'n', 'r', 'u']",1,"[0.6245678206905723, 0.768484188709408, 0.896582133602351, 1.0325613976456225, 1.2165951956994832]",1424.0144789842889,None,1424.014333471097,1424.1144429212436,83_07142022,001,2022_Jul_14_1619,test_typingtask_norepeats,2020.2.10,60.032648392919214,
faqir,faqir,,,,,,,,,0,105,105,105,,,,,,,,,,,,,,,1429.5145489219576,None,"['f', 'a', 'q', 'i', 'r']",1,"[0.6124873622320592, 0.7804951700381935, 1.3165334020741284, 1.5325221731327474, 1.6444928240962327]",1429.5145489219576,None,1429.5144106307066,1429.6148917651735,83_07142022,001,2022_Jul_14_1619,test_typingtask_norepeats,2020.2.10,60.032648392919214,
kremp,kremp,,,,,,,,,0,106,106,106,,,,,,,,,,,,,,,1435.0145139042288,None,"['k', 'r', 'e', 'm', 'p']",1,"[0.856518441811204, 0.9445889820344746, 1.0004537208005786, 1.1205628798343241, 1.296547656878829]",1435.0145139042288,None,1435.0143674457445,1435.1145967449993,83_07142022,001,2022_Jul_14_1619,test_typingtask_norepeats,2020.2.10,60.032648392919214,
druze,druze,,,,,,,,,0,107,107,107,,,,,,,,,,,,,,,1440.5145454672165,None,"['d', 'r', 'u', 'z', 'e']",1,"[0.6365343276411295, 0.8445047279819846, 1.036491175647825, 1.196569164749235, 1.932463875040412]",1440.5145454672165,None,1440.5145554108544,1440.6144708581269,83_07142022,001,2022_Jul_14_1619,test_typingtask_norepeats,2020.2.10,60.032648392919214,
belly,belly,,,,,,,,,0,108,108,108,,,,,,,,,,,,,,,1446.0145876691677,None,"['b', 'e', 'l', 'l', 'y']",1,"[0.8244943940080702, 1.0244656801223755, 1.3285131370648742, 1.504453908186406, 1.6324552549049258]",1446.0145876691677,None,1446.0145908858626,1446.1143663572147,83_07142022,001,2022_Jul_14_1619,test_typingtask_norepeats,2020.2.10,60.032648392919214,
therm,therm,,,,,,,,,0,109,109,109,,,,,,,,,,,,,,,1451.514901902061,None,"['t', 'h', 'e', 'r', 'm']",1,"[0.5481904721818864, 0.6521669761277735, 0.7401695889420807, 0.8041758141480386, 0.9161671809852123]",1451.514901902061,None,1451.5148067748173,1451.6145561560988,83_07142022,001,2022_Jul_14_1619,test_typingtask_norepeats,2020.2.10,60.032648392919214,
champ,champ,,,,,,,,,0,110,110,110,,,,,,,,,,,,,,,1457.0146583230235,None,"['c', 'h', 'a', 'm', 'p']",1,"[0.5843097129836679, 0.6804189337417483, 0.792314691003412, 0.9684145138598979, 1.1203867909498513]",1457.0146583230235,None,1457.0145419639534,1457.1149086020887,83_07142022,001,2022_Jul_14_1619,test_typingtask_norepeats,2020.2.10,60.032648392919214,
belly,belly,,,,,,,,,0,111,111,111,,,,,,,,,,,,,,,1462.5145683242008,None,"['b', 'e', 'l', 'l', 'y']",1,"[0.564456719905138, 0.7404098780825734, 0.9003890380263329, 1.0603845389559865, 1.2525058193132281]",1462.5145683242008,None,1462.5145944798364,1462.6148620760068,83_07142022,001,2022_Jul_14_1619,test_typingtask_norepeats,2020.2.10,60.032648392919214,
cheer,cheer,,,,,,,,,0,112,112,112,,,,,,,,,,,,,,,1468.0145716099069,None,"['c', 'h', 'e', 'e', 'r']",1,"[0.5684087751433253, 0.6964549911208451, 0.8325036182068288, 0.9603887828998268, 1.0804633959196508]",1468.0145716099069,None,1468.0146718666888,1468.1145222908817,83_07142022,001,2022_Jul_14_1619,test_typingtask_norepeats,2020.2.10,60.032648392919214,
there,there,,,,,,,,,0,113,113,113,,,,,,,,,,,,,,,1473.514419847168,None,"['t', 'h', 'e', 'r', 'e']",1,"[0.6045639319345355, 0.7645608107559383, 0.900553388055414, 1.0206583929248154, 1.140623090788722]",1473.514419847168,None,1473.5145351299084,1473.6144781769253,83_07142022,001,2022_Jul_14_1619,test_typingtask_norepeats,2020.2.10,60.032648392919214,
pykka,pykka,,,,,,,,,0,114,114,114,,,,,,,,,,,,,,,1479.0144226672128,None,"['p', 'y', 'k', 'k', 'a']",1,"[0.9125764407217503, 1.2005424546077847, 1.6326506426557899, 1.768647630698979, 1.8406160776503384]",1479.0144226672128,None,1479.014473708719,1479.1146311610937,83_07142022,001,2022_Jul_14_1619,test_typingtask_norepeats,2020.2.10,60.032648392919214,
heond,heond,,,,,,,,,0,115,115,115,,,,,,,,,,,,,,,1484.5144822970033,None,"['h', 'e', 'o', 'n', 'd']",1,"[0.6525954096578062, 0.7645598626695573, 0.8685927176848054, 1.052592203952372, 1.1485905507579446]",1484.5144822970033,None,1484.5145088917575,1484.6146412179805,83_07142022,001,2022_Jul_14_1619,test_typingtask_norepeats,2020.2.10,60.032648392919214,
zibja,zibja,,,,,,,,,0,116,116,116,,,,,,,,,,,,,,,1490.0145073779859,None,"['z', 'i', 'b', 'j', 'a']",1,"[0.6725279288366437, 0.8165335897356272, 0.9285540566779673, 1.0805759597569704, 1.2004569070413709]",1490.0145073779859,None,1490.0144014399498,1490.1146106179804,83_07142022,001,2022_Jul_14_1619,test_typingtask_norepeats,2020.2.10,60.032648392919214,
haole,haole,,,,,,,,,0,117,117,117,,,,,,,,,,,,,,,1495.5145902950317,None,"['h', 'a', 'o', 'l', 'e']",1,"[0.7404518350958824, 0.8763847132213414, 1.348411372397095, 1.5403858250938356, 1.6364905051887035]",1495.5145902950317,None,1495.5147531227208,1495.6145473872311,83_07142022,001,2022_Jul_14_1619,test_typingtask_norepeats,2020.2.10,60.032648392919214,
druze,druze,,,,,,,,,0,118,118,118,,,,,,,,,,,,,,,1501.0145688029006,None,"['d', 'r', 'u', 'z', 'e']",1,"[0.6004003332927823, 1.000386514235288, 1.2484993822872639, 1.4245087830349803, 1.6964903003536165]",1501.0145688029006,None,1501.0144511087797,1501.114583835937,83_07142022,001,2022_Jul_14_1619,test_typingtask_norepeats,2020.2.10,60.032648392919214,
haole,haole,,,,,,,,,0,119,119,119,,,,,,,,,,,,,,,1506.5147453309037,None,"['h', 'a', 'o', 'l', 'e']",1,"[0.7243222943507135, 0.8762282291427255, 1.3883426683023572, 1.9803349100984633, 2.060215118341148]",1506.5147453309037,None,1506.514464870002,1506.6146748783067,83_07142022,001,2022_Jul_14_1619,test_typingtask_norepeats,2020.2.10,60.032648392919214,
